ImageFile,targ_side,correctAnswer,trials.thisRepN,trials.thisTrialN,trials.thisN,trials.thisIndex,dispStimuli.started,dispStimuli.stopped,key_resp_2.keys,key_resp_2.corr,key_resp_2.rt,key_resp_2.started,key_resp_2.stopped,breakMessage.started,breakMessage.stopped,key_resp.keys,key_resp.started,key_resp.stopped,key_resp.rt,participant,session,date,expName,psychopyVersion,frameRate,
images/exp1a_trial_10_colour3_distractors1_r.png,r,2,0,0,0,10,8.868362299981527,None,2,1,2.2180703999474645,8.868362299981527,None,None,None,None,None,None,,10,001,2020_Oct_08_1413,searchDisc,2020.2.4,59.84017887331191,
images/exp1a_trial_77_colour3_distractors19_r.png,r,2,0,1,1,77,11.175187099957839,None,2,1,1.0710695999441668,11.175187099957839,None,None,None,None,None,None,,10,001,2020_Oct_08_1413,searchDisc,2020.2.4,59.84017887331191,
images/exp1a_trial_37_colour2_distractors1_r.png,r,2,0,2,2,37,12.3069158999715,None,2,1,1.1715486999601126,12.3069158999715,None,None,None,None,None,None,,10,001,2020_Oct_08_1413,searchDisc,2020.2.4,59.84017887331191,
images/exp1a_trial_87_colour2_distractors19_l.png,l,1,0,3,3,87,13.54848569992464,None,1,1,0.9700422000605613,13.54848569992464,None,None,None,None,None,None,,10,001,2020_Oct_08_1413,searchDisc,2020.2.4,59.84017887331191,
images/exp1a_trial_80_colour1_distractors4_l.png,l,1,0,4,4,80,14.587445699959062,None,1,1,0.9949924999382347,14.587445699959062,None,None,None,None,None,None,,10,001,2020_Oct_08_1413,searchDisc,2020.2.4,59.84017887331191,
images/exp1a_trial_40_colour2_distractors19_r.png,r,2,0,5,5,40,15.64075389993377,None,2,1,1.1256598000181839,15.64075389993377,None,None,None,None,None,None,,10,001,2020_Oct_08_1413,searchDisc,2020.2.4,59.84017887331191,
images/exp1a_trial_66_colour1_distractors9_r.png,r,2,0,6,6,66,16.833095699897967,None,2,1,0.9654006999917328,16.833095699897967,None,None,None,None,None,None,,10,001,2020_Oct_08_1413,searchDisc,2020.2.4,59.84017887331191,
images/exp1a_trial_17_colour1_distractors9_l.png,l,1,0,7,7,17,17.869015599950217,None,1,1,0.7214745000237599,17.869015599950217,None,None,None,None,None,None,,10,001,2020_Oct_08_1413,searchDisc,2020.2.4,59.84017887331191,
images/exp1a_trial_79_colour1_distractors1_l.png,l,1,0,8,8,79,18.667567999917082,None,1,1,0.8429044000804424,18.667567999917082,None,None,None,None,None,None,,10,001,2020_Oct_08_1413,searchDisc,2020.2.4,59.84017887331191,
images/exp1a_trial_89_colour3_distractors1_l.png,l,1,0,9,9,89,19.582953399978578,None,1,1,0.9673931000288576,19.582953399978578,None,None,None,None,None,None,,10,001,2020_Oct_08_1413,searchDisc,2020.2.4,59.84017887331191,
images/exp1a_trial_46_colour3_distractors31_r.png,r,2,0,10,10,46,20.612471199943684,None,2,1,0.8660959999542683,20.612471199943684,None,21.51103289995808,None,space,21.51103289995808,None,3.335162900038995,10,001,2020_Oct_08_1413,searchDisc,2020.2.4,59.84017887331191,
images/exp1a_trial_18_colour1_distractors19_l.png,l,1,0,11,11,18,24.90408629993908,None,1,1,0.7903705999488011,24.90408629993908,None,None,None,None,None,None,,10,001,2020_Oct_08_1413,searchDisc,2020.2.4,59.84017887331191,
images/exp1a_trial_52_colour2_distractors1_l.png,l,1,0,12,12,52,25.766466600005515,None,1,1,0.8639679999323562,25.766466600005515,None,None,None,None,None,None,,10,001,2020_Oct_08_1413,searchDisc,2020.2.4,59.84017887331191,
images/exp1a_trial_57_colour3_distractors1_l.png,l,1,0,13,13,57,26.699743999983184,None,1,1,0.8267372999107465,26.699743999983184,None,None,None,None,None,None,,10,001,2020_Oct_08_1413,searchDisc,2020.2.4,59.84017887331191,
images/exp1a_trial_50_colour1_distractors19_l.png,l,1,0,14,14,50,27.60198879998643,None,1,1,0.9485255999024957,27.60198879998643,None,None,None,None,None,None,,10,001,2020_Oct_08_1413,searchDisc,2020.2.4,59.84017887331191,
images/exp1a_trial_19_colour1_distractors31_l.png,l,1,0,15,15,19,28.621121099917218,None,1,1,1.1135145000880584,28.621121099917218,None,None,None,None,None,None,,10,001,2020_Oct_08_1413,searchDisc,2020.2.4,59.84017887331191,
images/exp1a_trial_59_colour3_distractors9_l.png,l,1,0,16,16,59,29.794973099953495,None,1,1,0.9080561000155285,29.794973099953495,None,None,None,None,None,None,,10,001,2020_Oct_08_1413,searchDisc,2020.2.4,59.84017887331191,
images/exp1a_trial_31_colour0_distractors0_l.png,l,1,0,17,17,31,30.7689614999108,None,1,1,0.813557600020431,30.7689614999108,None,None,None,None,None,None,,10,001,2020_Oct_08_1413,searchDisc,2020.2.4,59.84017887331191,
images/exp1a_trial_94_colour0_distractors0_r.png,r,2,0,18,18,94,31.64913409994915,None,2,1,0.8535153999691829,31.64913409994915,None,None,None,None,None,None,,10,001,2020_Oct_08_1413,searchDisc,2020.2.4,59.84017887331191,
images/exp1a_trial_9_colour2_distractors31_r.png,r,2,0,19,19,9,32.561752300010994,None,2,1,0.9886738000204787,32.561752300010994,None,None,None,None,None,None,,10,001,2020_Oct_08_1413,searchDisc,2020.2.4,59.84017887331191,
images/exp1a_trial_88_colour2_distractors31_l.png,l,1,0,20,20,88,33.61746059998404,None,1,1,0.7810016999719664,33.61746059998404,None,None,None,None,None,None,,10,001,2020_Oct_08_1413,searchDisc,2020.2.4,59.84017887331191,
images/exp1a_trial_26_colour3_distractors4_l.png,l,1,0,21,21,26,34.466681299963966,None,1,1,0.8036573000717908,34.466681299963966,None,None,None,None,None,None,,10,001,2020_Oct_08_1413,searchDisc,2020.2.4,59.84017887331191,
images/exp1a_trial_91_colour3_distractors9_l.png,l,1,0,22,22,91,35.326223099953495,None,1,1,0.9684601000044495,35.326223099953495,None,None,None,None,None,None,,10,001,2020_Oct_08_1413,searchDisc,2020.2.4,59.84017887331191,
images/exp1a_trial_61_colour3_distractors31_l.png,l,1,0,23,23,61,36.368993799900636,None,1,1,0.8215028000995517,36.368993799900636,None,None,None,None,None,None,,10,001,2020_Oct_08_1413,searchDisc,2020.2.4,59.84017887331191,
images/exp1a_trial_54_colour2_distractors9_l.png,l,1,0,24,24,54,37.260336000006646,None,1,1,1.4499535999493673,37.260336000006646,None,None,None,None,None,None,,10,001,2020_Oct_08_1413,searchDisc,2020.2.4,59.84017887331191,
images/exp1a_trial_1_colour1_distractors4_r.png,r,2,0,25,25,1,38.77763059991412,None,2,1,0.6929199000587687,38.77763059991412,None,None,None,None,None,None,,10,001,2020_Oct_08_1413,searchDisc,2020.2.4,59.84017887331191,
images/exp1a_trial_48_colour1_distractors4_l.png,l,1,0,26,26,48,39.532660899916664,None,1,1,0.6737899999134243,39.532660899916664,None,None,None,None,None,None,,10,001,2020_Oct_08_1413,searchDisc,2020.2.4,59.84017887331191,
images/exp1a_trial_20_colour2_distractors1_l.png,l,1,0,27,27,20,40.28972319990862,None,1,1,0.8048047000775114,40.28972319990862,None,None,None,None,None,None,,10,001,2020_Oct_08_1413,searchDisc,2020.2.4,59.84017887331191,
images/exp1a_trial_74_colour3_distractors1_r.png,r,2,0,28,28,74,41.165556699968874,None,2,1,0.9127325000008568,41.165556699968874,None,None,None,None,None,None,,10,001,2020_Oct_08_1413,searchDisc,2020.2.4,59.84017887331191,
images/exp1a_trial_58_colour3_distractors4_l.png,l,1,0,29,29,58,42.14642159990035,None,1,1,0.5960053000599146,42.14642159990035,None,None,None,None,None,None,,10,001,2020_Oct_08_1413,searchDisc,2020.2.4,59.84017887331191,
images/exp1a_trial_49_colour1_distractors9_l.png,l,1,0,30,30,49,42.81127919990104,None,1,1,0.9312442000955343,42.81127919990104,None,None,None,None,None,None,,10,001,2020_Oct_08_1413,searchDisc,2020.2.4,59.84017887331191,
images/exp1a_trial_13_colour3_distractors19_r.png,r,2,0,31,31,13,43.822293899953365,None,2,1,1.1120184999890625,43.822293899953365,None,None,None,None,None,None,,10,001,2020_Oct_08_1413,searchDisc,2020.2.4,59.84017887331191,
images/exp1a_trial_12_colour3_distractors9_r.png,r,2,0,32,32,12,44.99917729990557,None,2,1,1.1352707999758422,44.99917729990557,None,None,None,None,None,None,,10,001,2020_Oct_08_1413,searchDisc,2020.2.4,59.84017887331191,
images/exp1a_trial_60_colour3_distractors19_l.png,l,1,0,33,33,60,46.20318899990525,None,1,1,0.6830380000174046,46.20318899990525,None,None,None,None,None,None,,10,001,2020_Oct_08_1413,searchDisc,2020.2.4,59.84017887331191,
images/exp1a_trial_47_colour1_distractors1_l.png,l,1,0,34,34,47,46.94919949991163,None,1,1,1.0016210000030696,46.94919949991163,None,None,None,None,None,None,,10,001,2020_Oct_08_1413,searchDisc,2020.2.4,59.84017887331191,
images/exp1a_trial_32_colour1_distractors1_r.png,r,2,0,35,35,32,48.0009419999551,None,2,1,0.7977318000048399,48.0009419999551,None,None,None,None,None,None,,10,001,2020_Oct_08_1413,searchDisc,2020.2.4,59.84017887331191,
images/exp1a_trial_83_colour1_distractors31_l.png,l,1,0,36,36,83,48.86873270000797,None,1,1,0.6575165999820456,48.86873270000797,None,None,None,None,None,None,,10,001,2020_Oct_08_1413,searchDisc,2020.2.4,59.84017887331191,
images/exp1a_trial_43_colour3_distractors4_r.png,r,2,0,37,37,43,49.59613510000054,None,2,1,0.6741727999178693,49.59613510000054,None,None,None,None,None,None,,10,001,2020_Oct_08_1413,searchDisc,2020.2.4,59.84017887331191,
images/exp1a_trial_6_colour2_distractors4_r.png,r,2,0,38,38,6,50.34506469999906,None,2,1,0.9494617000455037,50.34506469999906,None,None,None,None,None,None,,10,001,2020_Oct_08_1413,searchDisc,2020.2.4,59.84017887331191,
images/exp1a_trial_84_colour2_distractors1_l.png,l,1,0,39,39,84,51.36329739994835,None,1,1,0.5631855999818072,51.36329739994835,None,None,None,None,None,None,,10,001,2020_Oct_08_1413,searchDisc,2020.2.4,59.84017887331191,
images/exp1a_trial_81_colour1_distractors9_l.png,l,1,0,40,40,81,51.99328289995901,None,1,1,0.8290597000159323,51.99328289995901,None,None,None,None,None,None,,10,001,2020_Oct_08_1413,searchDisc,2020.2.4,59.84017887331191,
images/exp1a_trial_93_colour3_distractors31_l.png,l,1,0,41,41,93,52.89616369991563,None,1,1,0.7902451000409201,52.89616369991563,None,None,None,None,None,None,,10,001,2020_Oct_08_1413,searchDisc,2020.2.4,59.84017887331191,
images/exp1a_trial_71_colour2_distractors9_r.png,r,2,0,42,42,71,53.75784539990127,None,2,1,0.8483736000489444,53.75784539990127,None,None,None,None,None,None,,10,001,2020_Oct_08_1413,searchDisc,2020.2.4,59.84017887331191,
images/exp1a_trial_3_colour1_distractors19_r.png,r,2,0,43,43,3,54.66982289997395,None,2,1,1.0965416999533772,54.66982289997395,None,None,None,None,None,None,,10,001,2020_Oct_08_1413,searchDisc,2020.2.4,59.84017887331191,
images/exp1a_trial_33_colour1_distractors4_r.png,r,2,0,44,44,33,55.82973919995129,None,2,1,0.8086417999584228,55.82973919995129,None,None,None,None,None,None,,10,001,2020_Oct_08_1413,searchDisc,2020.2.4,59.84017887331191,
images/exp1a_trial_78_colour3_distractors31_r.png,r,2,0,45,45,78,56.70936769992113,None,2,1,0.7049929000204429,56.70936769992113,None,None,None,None,None,None,,10,001,2020_Oct_08_1413,searchDisc,2020.2.4,59.84017887331191,
images/exp1a_trial_15_colour1_distractors1_l.png,l,1,0,46,46,15,57.480577699956484,None,1,1,0.9501069999532774,57.480577699956484,None,None,None,None,None,None,,10,001,2020_Oct_08_1413,searchDisc,2020.2.4,59.84017887331191,
images/exp1a_trial_39_colour2_distractors9_r.png,r,2,0,47,47,39,58.49457330000587,None,2,1,0.8158337000058964,58.49457330000587,None,None,None,None,None,None,,10,001,2020_Oct_08_1413,searchDisc,2020.2.4,59.84017887331191,
images/exp1a_trial_14_colour3_distractors31_r.png,r,2,0,48,48,14,59.382920900010504,None,1,0,0.7595217000925913,59.382920900010504,None,None,None,None,None,None,,10,001,2020_Oct_08_1413,searchDisc,2020.2.4,59.84017887331191,
images/exp1a_trial_68_colour1_distractors31_r.png,r,2,0,49,49,68,60.224939699983224,None,2,1,0.5173920999513939,60.224939699983224,None,None,None,None,None,None,,10,001,2020_Oct_08_1413,searchDisc,2020.2.4,59.84017887331191,
images/exp1a_trial_2_colour1_distractors9_r.png,r,2,0,50,50,2,60.82590860000346,None,2,1,0.36450839997269213,60.82590860000346,None,None,None,None,None,None,,10,001,2020_Oct_08_1413,searchDisc,2020.2.4,59.84017887331191,
images/exp1a_trial_86_colour2_distractors9_l.png,l,1,0,51,51,86,61.24642649991438,None,2,0,0.28794259997084737,61.24642649991438,None,None,None,None,None,None,,10,001,2020_Oct_08_1413,searchDisc,2020.2.4,59.84017887331191,
images/exp1a_trial_38_colour2_distractors4_r.png,r,2,0,52,52,38,61.598460999899544,None,2,1,0.287931099999696,61.598460999899544,None,None,None,None,None,None,,10,001,2020_Oct_08_1413,searchDisc,2020.2.4,59.84017887331191,
images/exp1a_trial_55_colour2_distractors19_l.png,l,1,0,53,53,55,61.959591199993156,None,2,0,0.31913059996441007,61.959591199993156,None,None,None,None,None,None,,10,001,2020_Oct_08_1413,searchDisc,2020.2.4,59.84017887331191,
images/exp1a_trial_11_colour3_distractors4_r.png,r,2,0,54,54,11,62.34587869991083,None,2,1,0.22852120001334697,62.34587869991083,None,None,None,None,None,None,,10,001,2020_Oct_08_1413,searchDisc,2020.2.4,59.84017887331191,
images/exp1a_trial_90_colour3_distractors4_l.png,l,1,0,55,55,90,62.64431050000712,None,2,0,0.2580702999839559,62.64431050000712,None,None,None,None,None,None,,10,001,2020_Oct_08_1413,searchDisc,2020.2.4,59.84017887331191,
images/exp1a_trial_34_colour1_distractors9_r.png,r,2,0,56,56,34,62.97915859997738,None,2,1,0.20330029993783683,62.97915859997738,None,None,None,None,None,None,,10,001,2020_Oct_08_1413,searchDisc,2020.2.4,59.84017887331191,
images/exp1a_trial_44_colour3_distractors9_r.png,r,2,0,57,57,44,63.24348389997613,None,2,1,0.242831900017336,63.24348389997613,None,None,None,None,None,None,,10,001,2020_Oct_08_1413,searchDisc,2020.2.4,59.84017887331191,
images/exp1a_trial_27_colour3_distractors9_l.png,l,1,0,58,58,27,63.55583709990606,None,2,0,0.23458589997608215,63.55583709990606,None,None,None,None,None,None,,10,001,2020_Oct_08_1413,searchDisc,2020.2.4,59.84017887331191,
images/exp1a_trial_63_colour0_distractors0_l.png,l,1,0,59,59,63,63.86028499994427,None,2,0,0.22606439993251115,63.86028499994427,None,None,None,None,None,None,,10,001,2020_Oct_08_1413,searchDisc,2020.2.4,59.84017887331191,
images/exp1a_trial_92_colour3_distractors19_l.png,l,1,0,60,60,92,64.15336100000422,None,2,0,0.1889767999527976,64.15336100000422,None,None,None,None,None,None,,10,001,2020_Oct_08_1413,searchDisc,2020.2.4,59.84017887331191,
images/exp1a_trial_65_colour1_distractors4_r.png,r,2,0,61,61,65,64.41391549992841,None,2,1,0.1605417999671772,64.41391549992841,None,None,None,None,None,None,,10,001,2020_Oct_08_1413,searchDisc,2020.2.4,59.84017887331191,
images/exp1a_trial_42_colour3_distractors1_r.png,r,2,0,62,62,42,64.64498939993791,None,2,1,0.16939349996391684,64.64498939993791,None,None,None,None,None,None,,10,001,2020_Oct_08_1413,searchDisc,2020.2.4,59.84017887331191,
images/exp1a_trial_76_colour3_distractors9_r.png,r,2,0,63,63,76,64.87268999998923,None,2,1,0.18982819991651922,64.87268999998923,None,None,None,None,None,None,,10,001,2020_Oct_08_1413,searchDisc,2020.2.4,59.84017887331191,
images/exp1a_trial_29_colour3_distractors31_l.png,l,1,0,64,64,29,65.13317429996096,None,2,0,0.3773199999704957,65.13317429996096,None,None,None,None,None,None,,10,001,2020_Oct_08_1413,searchDisc,2020.2.4,59.84017887331191,
images/exp1a_trial_28_colour3_distractors19_l.png,l,1,0,65,65,28,65.57580669992603,None,2,0,0.182624000008218,65.57580669992603,None,None,None,None,None,None,,10,001,2020_Oct_08_1413,searchDisc,2020.2.4,59.84017887331191,
images/exp1a_trial_24_colour2_distractors31_l.png,l,1,0,66,66,24,65.81661109998822,None,2,0,0.16585669992491603,65.81661109998822,None,None,None,None,None,None,,10,001,2020_Oct_08_1413,searchDisc,2020.2.4,59.84017887331191,
images/exp1a_trial_72_colour2_distractors19_r.png,r,2,0,67,67,72,66.03513619990554,None,2,1,0.1710064000217244,66.03513619990554,None,None,None,None,None,None,,10,001,2020_Oct_08_1413,searchDisc,2020.2.4,59.84017887331191,
images/exp1a_trial_51_colour1_distractors31_l.png,l,1,0,68,68,51,66.26585249998607,None,2,0,0.20443099993281066,66.26585249998607,None,None,None,None,None,None,,10,001,2020_Oct_08_1413,searchDisc,2020.2.4,59.84017887331191,
images/exp1a_trial_5_colour2_distractors1_r.png,r,2,0,69,69,5,66.5354146999307,None,2,1,0.15115789999254048,66.5354146999307,None,None,None,None,None,None,,10,001,2020_Oct_08_1413,searchDisc,2020.2.4,59.84017887331191,
images/exp1a_trial_25_colour3_distractors1_l.png,l,1,0,70,70,25,66.76024460000917,None,2,0,0.18217440007720143,66.76024460000917,None,None,None,None,None,None,,10,001,2020_Oct_08_1413,searchDisc,2020.2.4,59.84017887331191,
images/exp1a_trial_30_colour0_distractors0_r.png,r,2,0,71,71,30,67.0119450999191,None,2,1,0.1625119000673294,67.0119450999191,None,None,None,None,None,None,,10,001,2020_Oct_08_1413,searchDisc,2020.2.4,59.84017887331191,
images/exp1a_trial_16_colour1_distractors4_l.png,l,1,0,72,72,16,67.25174259999767,None,2,0,0.16334769991226494,67.25174259999767,None,None,None,None,None,None,,10,001,2020_Oct_08_1413,searchDisc,2020.2.4,59.84017887331191,
images/exp1a_trial_82_colour1_distractors19_l.png,l,1,0,73,73,82,67.48041989991907,None,2,0,0.18205940001644194,67.48041989991907,None,None,None,None,None,None,,10,001,2020_Oct_08_1413,searchDisc,2020.2.4,59.84017887331191,
images/exp1a_trial_4_colour1_distractors31_r.png,r,2,0,74,74,4,67.72776929999236,None,2,1,0.1507135999854654,67.72776929999236,None,None,None,None,None,None,,10,001,2020_Oct_08_1413,searchDisc,2020.2.4,59.84017887331191,
images/exp1a_trial_67_colour1_distractors19_r.png,r,2,0,75,75,67,67.94752359995618,None,2,1,0.16291089996229857,67.94752359995618,None,None,None,None,None,None,,10,001,2020_Oct_08_1413,searchDisc,2020.2.4,59.84017887331191,
images/exp1a_trial_22_colour2_distractors9_l.png,l,1,0,76,76,22,68.18070319993421,None,2,0,0.16956449998542666,68.18070319993421,None,None,None,None,None,None,,10,001,2020_Oct_08_1413,searchDisc,2020.2.4,59.84017887331191,
images/exp1a_trial_53_colour2_distractors4_l.png,l,1,0,77,77,53,68.41183200001251,None,2,0,0.17853969999123365,68.41183200001251,None,None,None,None,None,None,,10,001,2020_Oct_08_1413,searchDisc,2020.2.4,59.84017887331191,
images/exp1a_trial_45_colour3_distractors19_r.png,r,2,0,78,78,45,68.65694669994991,None,2,1,0.1813877000240609,68.65694669994991,None,None,None,None,None,None,,10,001,2020_Oct_08_1413,searchDisc,2020.2.4,59.84017887331191,
images/exp1a_trial_36_colour1_distractors31_r.png,r,2,0,79,79,36,68.91451689996757,None,2,1,0.14781230001244694,68.91451689996757,None,None,None,None,None,None,,10,001,2020_Oct_08_1413,searchDisc,2020.2.4,59.84017887331191,
images/exp1a_trial_95_colour0_distractors0_l.png,l,1,0,80,80,95,69.13157909992151,None,2,0,0.18683170003350824,69.13157909992151,None,None,None,None,None,None,,10,001,2020_Oct_08_1413,searchDisc,2020.2.4,59.84017887331191,
images/exp1a_trial_21_colour2_distractors4_l.png,l,1,0,81,81,21,69.39029099990148,None,2,0,0.16821490006987005,69.39029099990148,None,None,None,None,None,None,,10,001,2020_Oct_08_1413,searchDisc,2020.2.4,59.84017887331191,
images/exp1a_trial_62_colour0_distractors0_r.png,r,2,0,82,82,62,69.62944409996271,None,2,1,0.1610041999956593,69.62944409996271,None,None,None,None,None,None,,10,001,2020_Oct_08_1413,searchDisc,2020.2.4,59.84017887331191,
images/exp1a_trial_69_colour2_distractors1_r.png,r,2,0,83,83,69,69.85617589997128,None,2,1,0.16628639993723482,69.85617589997128,None,None,None,None,None,None,,10,001,2020_Oct_08_1413,searchDisc,2020.2.4,59.84017887331191,
images/exp1a_trial_70_colour2_distractors4_r.png,r,2,0,84,84,70,70.09147350001149,None,2,1,0.17099490005057305,70.09147350001149,None,None,None,None,None,None,,10,001,2020_Oct_08_1413,searchDisc,2020.2.4,59.84017887331191,
images/exp1a_trial_64_colour1_distractors1_r.png,r,2,0,85,85,64,70.32342559995595,None,2,1,0.17099130002316087,70.32342559995595,None,None,None,None,None,None,,10,001,2020_Oct_08_1413,searchDisc,2020.2.4,59.84017887331191,
images/exp1a_trial_0_colour1_distractors1_r.png,r,2,0,86,86,0,70.56199309998192,None,2,1,0.16439040005207062,70.56199309998192,None,None,None,None,None,None,,10,001,2020_Oct_08_1413,searchDisc,2020.2.4,59.84017887331191,
images/exp1a_trial_75_colour3_distractors4_r.png,r,2,0,87,87,75,70.79140489990823,None,2,1,0.15896650007925928,70.79140489990823,None,None,None,None,None,None,,10,001,2020_Oct_08_1413,searchDisc,2020.2.4,59.84017887331191,
images/exp1a_trial_56_colour2_distractors31_l.png,l,1,0,88,88,56,71.01146309997421,None,2,0,0.1708425999386236,71.01146309997421,None,None,None,None,None,None,,10,001,2020_Oct_08_1413,searchDisc,2020.2.4,59.84017887331191,
images/exp1a_trial_73_colour2_distractors31_r.png,r,2,0,89,89,73,71.24824290000834,None,2,1,0.16623319999780506,71.24824290000834,None,None,None,None,None,None,,10,001,2020_Oct_08_1413,searchDisc,2020.2.4,59.84017887331191,
images/exp1a_trial_23_colour2_distractors19_l.png,l,1,0,90,90,23,71.47620629996527,None,2,0,0.14614970004186034,71.47620629996527,None,None,None,None,None,None,,10,001,2020_Oct_08_1413,searchDisc,2020.2.4,59.84017887331191,
images/exp1a_trial_41_colour2_distractors31_r.png,r,2,0,91,91,41,71.69121009996161,None,2,1,0.15504220000002533,71.69121009996161,None,None,None,None,None,None,,10,001,2020_Oct_08_1413,searchDisc,2020.2.4,59.84017887331191,
images/exp1a_trial_85_colour2_distractors4_l.png,l,1,0,92,92,85,71.9107922000112,None,2,0,0.13544950005598366,71.9107922000112,None,None,None,None,None,None,,10,001,2020_Oct_08_1413,searchDisc,2020.2.4,59.84017887331191,
images/exp1a_trial_35_colour1_distractors19_r.png,r,2,0,93,93,35,72.11138809996191,None,2,1,0.2388867000117898,72.11138809996191,None,None,None,None,None,None,,10,001,2020_Oct_08_1413,searchDisc,2020.2.4,59.84017887331191,
images/exp1a_trial_8_colour2_distractors19_r.png,r,2,0,94,94,8,72.42672629992012,None,2,1,0.08376299997325987,72.42672629992012,None,None,None,None,None,None,,10,001,2020_Oct_08_1413,searchDisc,2020.2.4,59.84017887331191,
images/exp1a_trial_7_colour2_distractors9_r.png,r,2,0,95,95,7,72.57748819992412,None,2,1,0.18887309997808188,72.57748819992412,None,None,None,None,None,None,,10,001,2020_Oct_08_1413,searchDisc,2020.2.4,59.84017887331191,
