ImageFile,targ_side,correctAnswer,trials_2.thisRepN,trials_2.thisTrialN,trials_2.thisN,trials_2.thisIndex,trials.thisRepN,trials.thisTrialN,trials.thisN,trials.thisIndex,text_2.started,text_2.stopped,key_resp_5.keys,key_resp_5.rt,key_resp_5.started,key_resp_5.stopped,image_2.started,image_2.stopped,key_resp_6.keys,key_resp_6.rt,key_resp_6.started,key_resp_6.stopped,text_3.started,text_3.stopped,image_3.started,image_3.stopped,image.started,image.stopped,key_resp_4.keys,key_resp_4.corr,key_resp_4.rt,key_resp_4.started,key_resp_4.stopped,text_4.started,text_4.stopped,key_resp_7.keys,key_resp_7.started,key_resp_7.stopped,key_resp_7.rt,text.started,text.stopped,key_resp_3.keys,key_resp_3.rt,key_resp_3.started,key_resp_3.stopped,dispStimuli.started,dispStimuli.stopped,key_resp_2.keys,key_resp_2.corr,key_resp_2.rt,key_resp_2.started,key_resp_2.stopped,breakMessage.started,breakMessage.stopped,key_resp.keys,key_resp.started,key_resp.stopped,key_resp.rt,participant,session,date,expName,psychopyVersion,frameRate,
,,,,,,,,,,,8.349834368855227,None,space,0.2988531898590736,9.317645413684659,None,,,,,,,,,,,,,,,,,,,,,,,,,,,,,,,,,,,,,,,,,,,2,001,2020_Oct_14_1430,searchDisc2,2020.2.2,59.90614432902178,
,,,,,,,,,,,,,,,,,9.634432271705009,None,space,1.341382252110634,10.618963550892659,None,,,,,,,,,,,,,,,,,,,,,,,,,,,,,,,,,,,,,2,001,2020_Oct_14_1430,searchDisc2,2020.2.2,59.90614432902178,
images/exp1a_trial_22_colour2_distractors9_l.png,l,1,0,0,0,22,,,,,,,,,,,,,,,,,9.634432271705009,None,9.634432271705009,None,12.136876739212312,None,1,1,0.8635443786624819,12.136876739212312,None,None,None,None,None,None,,,,,,,,,,,,,,,,,,,,,2,001,2020_Oct_14_1430,searchDisc2,2020.2.2,59.90614432902178,
images/exp2c_trial_56_colour2_distractors31_l.png,l,1,0,1,1,440,,,,,,,,,,,,,,,,,,,,,13.121136979782023,None,1,1,0.8634384591714479,13.121136979782023,None,None,None,None,None,None,,,,,,,,,,,,,,,,,,,,,2,001,2020_Oct_14_1430,searchDisc2,2020.2.2,59.90614432902178,
images/exp2b_trial_83_colour1_distractors31_l.png,l,1,0,2,2,371,,,,,,,,,,,,,,,,,,,,,14.1388082493213,None,1,1,0.8295701526221819,14.1388082493213,None,None,None,None,None,None,,,,,,,,,,,,,,,,,,,,,2,001,2020_Oct_14_1430,searchDisc2,2020.2.2,59.90614432902178,
images/exp2a_trial_93_colour3_distractors31_l.png,l,1,0,3,3,285,,,,,,,,,,,,,,,,,,,,,15.106427615100984,None,1,1,0.8220940308528952,15.106427615100984,None,None,None,None,None,None,,,,,,,,,,,,,,,,,,,,,2,001,2020_Oct_14_1430,searchDisc2,2020.2.2,59.90614432902178,
images/exp2b_trial_12_colour3_distractors9_r.png,r,2,0,4,4,300,,,,,,,,,,,,,,,,,,,,,16.07425177982077,None,2,1,0.9740660527604632,16.07425177982077,None,None,None,None,None,None,,,,,,,,,,,,,,,,,,,,,2,001,2020_Oct_14_1430,searchDisc2,2020.2.2,59.90614432902178,
images/exp2c_trial_68_colour1_distractors31_r.png,r,2,0,5,5,452,,,,,,,,,,,,,,,,,,,,,17.17515814321814,None,2,1,0.6972383501706645,17.17515814321814,None,None,None,None,None,None,,,,,,,,,,,,,,,,,,,,,2,001,2020_Oct_14_1430,searchDisc2,2020.2.2,59.90614432902178,
images/exp2c_trial_38_colour2_distractors4_r.png,r,2,0,6,6,422,,,,,,,,,,,,,,,,,,,,,17.992808036855422,None,2,1,0.8475118207279593,17.992808036855422,None,None,None,None,None,None,,,,,,,,,,,,,,,,,,,,,2,001,2020_Oct_14_1430,searchDisc2,2020.2.2,59.90614432902178,
images/exp2c_trial_34_colour1_distractors9_r.png,r,2,0,7,7,418,,,,,,,,,,,,,,,,,,,,,18.960339723038487,None,2,1,0.6724784768885002,18.960339723038487,None,None,None,None,None,None,,,,,,,,,,,,,,,,,,,,,2,001,2020_Oct_14_1430,searchDisc2,2020.2.2,59.90614432902178,
images/exp2a_trial_38_colour2_distractors4_r.png,r,2,0,8,8,230,,,,,,,,,,,,,,,,,,,,,19.76104506343836,None,2,1,0.8476507000159472,19.76104506343836,None,None,None,None,None,None,,,,,,,,,,,,,,,,,,,,,2,001,2020_Oct_14_1430,searchDisc2,2020.2.2,59.90614432902178,
images/exp2c_trial_3_colour1_distractors19_r.png,r,2,0,9,9,387,,,,,,,,,,,,,,,,,,,,,20.728636909392662,None,2,1,0.6477493235142902,20.728636909392662,None,None,None,None,None,None,,,,,,,,,,,,,,,,,,,,,2,001,2020_Oct_14_1430,searchDisc2,2020.2.2,59.90614432902178,
images/exp1b_trial_11_colour3_distractors4_r.png,r,2,0,10,10,107,,,,,,,,,,,,,,,,,,,,,21.5128623341443,None,2,1,1.0795413527521305,21.5128623341443,None,None,None,None,None,None,,,,,,,,,,,,,,,,,,,,,2,001,2020_Oct_14_1430,searchDisc2,2020.2.2,59.90614432902178,
images/exp1b_trial_84_colour2_distractors1_l.png,l,1,0,11,11,180,,,,,,,,,,,,,,,,,,,,,22.713948344578966,None,1,1,0.9744692507083528,22.713948344578966,None,None,None,None,None,None,,,,,,,,,,,,,,,,,,,,,2,001,2020_Oct_14_1430,searchDisc2,2020.2.2,59.90614432902178,
images/exp2c_trial_46_colour3_distractors31_r.png,r,2,0,12,12,430,,,,,,,,,,,,,,,,,,,,,23.815221426077187,None,2,1,0.8651437304215506,23.815221426077187,None,None,None,None,None,None,,,,,,,,,,,,,,,,,,,,,2,001,2020_Oct_14_1430,searchDisc2,2020.2.2,59.90614432902178,
images/exp1a_trial_4_colour1_distractors31_r.png,r,2,0,13,13,4,,,,,,,,,,,,,,,,,,,,,24.79929958761204,None,2,1,0.6250748796155676,24.79929958761204,None,None,None,None,None,None,,,,,,,,,,,,,,,,,,,,,2,001,2020_Oct_14_1430,searchDisc2,2020.2.2,59.90614432902178,
images/exp1a_trial_46_colour3_distractors31_r.png,r,2,0,14,14,46,,,,,,,,,,,,,,,,,,,,,25.550098623498343,None,2,1,0.7062674238695763,25.550098623498343,None,None,None,None,None,None,,,,,,,,,,,,,,,,,,,,,2,001,2020_Oct_14_1430,searchDisc2,2020.2.2,59.90614432902178,
images/exp2c_trial_19_colour1_distractors31_l.png,l,1,0,15,15,403,,,,,,,,,,,,,,,,,,,,,26.384236432728358,None,1,1,0.6882620760588907,26.384236432728358,None,None,None,None,None,None,,,,,,,,,,,,,,,,,,,,,2,001,2020_Oct_14_1430,searchDisc2,2020.2.2,59.90614432902178,
images/exp2a_trial_73_colour2_distractors31_r.png,r,2,0,16,16,265,,,,,,,,,,,,,,,,,,,,,27.218419041717425,None,2,1,0.6380274533294141,27.218419041717425,None,None,None,None,None,None,,,,,,,,,,,,,,,,,,,,,2,001,2020_Oct_14_1430,searchDisc2,2020.2.2,59.90614432902178,
images/exp2b_trial_43_colour3_distractors4_r.png,r,2,0,17,17,331,,,,,,,,,,,,,,,,,,,,,27.98600423167227,None,2,1,0.7824161540484056,27.98600423167227,None,None,None,None,None,None,,,,,,,,,,,,,,,,,,,,,2,001,2020_Oct_14_1430,searchDisc2,2020.2.2,59.90614432902178,
images/exp2a_trial_59_colour3_distractors9_l.png,l,1,0,18,18,251,,,,,,,,,,,,,,,,,,,,,28.88689145911485,None,1,1,1.0575366654084064,28.88689145911485,None,None,None,None,None,None,,,,,,,,,,,,,,,,,,,,,2,001,2020_Oct_14_1430,searchDisc2,2020.2.2,59.90614432902178,
images/exp2a_trial_6_colour2_distractors4_r.png,r,2,0,19,19,198,,,,,,,,,,,,,,,,,,,,,30.071188435540535,None,2,1,0.9214701621094719,30.071188435540535,None,31.055673634982668,None,space,31.055673634982668,None,2.7128296302980743,,,,,,,,,,,,,,,,,,,,2,001,2020_Oct_14_1430,searchDisc2,2020.2.2,59.90614432902178,
images/exp2b_trial_1_colour1_distractors4_r.png,r,2,0,20,20,289,,,,,,,,,,,,,,,,,,,,,None,None,None,0,,None,None,None,None,None,None,None,,,,,,,,,,,,,,,,,,,,,2,001,2020_Oct_14_1430,searchDisc2,2020.2.2,59.90614432902178,
images/exp2a_trial_19_colour1_distractors31_l.png,l,1,0,21,21,211,,,,,,,,,,,,,,,,,,,,,None,None,None,0,,None,None,None,None,None,None,None,,,,,,,,,,,,,,,,,,,,,2,001,2020_Oct_14_1430,searchDisc2,2020.2.2,59.90614432902178,
images/exp2a_trial_34_colour1_distractors9_r.png,r,2,0,22,22,226,,,,,,,,,,,,,,,,,,,,,None,None,None,0,,None,None,None,None,None,None,None,,,,,,,,,,,,,,,,,,,,,2,001,2020_Oct_14_1430,searchDisc2,2020.2.2,59.90614432902178,
images/exp2a_trial_40_colour2_distractors19_r.png,r,2,0,23,23,232,,,,,,,,,,,,,,,,,,,,,None,None,None,0,,None,None,None,None,None,None,None,,,,,,,,,,,,,,,,,,,,,2,001,2020_Oct_14_1430,searchDisc2,2020.2.2,59.90614432902178,
images/exp1b_trial_81_colour1_distractors9_l.png,l,1,0,24,24,177,,,,,,,,,,,,,,,,,,,,,None,None,None,0,,None,None,None,None,None,None,None,,,,,,,,,,,,,,,,,,,,,2,001,2020_Oct_14_1430,searchDisc2,2020.2.2,59.90614432902178,
images/exp2c_trial_36_colour1_distractors31_r.png,r,2,0,25,25,420,,,,,,,,,,,,,,,,,,,,,None,None,None,0,,None,None,None,None,None,None,None,,,,,,,,,,,,,,,,,,,,,2,001,2020_Oct_14_1430,searchDisc2,2020.2.2,59.90614432902178,
images/exp2a_trial_29_colour3_distractors31_l.png,l,1,0,26,26,221,,,,,,,,,,,,,,,,,,,,,None,None,None,0,,None,None,None,None,None,None,None,,,,,,,,,,,,,,,,,,,,,2,001,2020_Oct_14_1430,searchDisc2,2020.2.2,59.90614432902178,
images/exp1a_trial_86_colour2_distractors9_l.png,l,1,0,27,27,86,,,,,,,,,,,,,,,,,,,,,None,None,None,0,,None,None,None,None,None,None,None,,,,,,,,,,,,,,,,,,,,,2,001,2020_Oct_14_1430,searchDisc2,2020.2.2,59.90614432902178,
images/exp2c_trial_87_colour2_distractors19_l.png,l,1,0,28,28,471,,,,,,,,,,,,,,,,,,,,,None,None,None,0,,None,None,None,None,None,None,None,,,,,,,,,,,,,,,,,,,,,2,001,2020_Oct_14_1430,searchDisc2,2020.2.2,59.90614432902178,
images/exp2a_trial_20_colour2_distractors1_l.png,l,1,0,29,29,212,,,,,,,,,,,,,,,,,,,,,None,None,None,0,,None,None,None,None,None,None,None,,,,,,,,,,,,,,,,,,,,,2,001,2020_Oct_14_1430,searchDisc2,2020.2.2,59.90614432902178,
images/exp1a_trial_11_colour3_distractors4_r.png,r,2,0,30,30,11,,,,,,,,,,,,,,,,,,,,,None,None,None,0,,None,None,None,None,None,None,None,,,,,,,,,,,,,,,,,,,,,2,001,2020_Oct_14_1430,searchDisc2,2020.2.2,59.90614432902178,
images/exp2a_trial_50_colour1_distractors19_l.png,l,1,0,31,31,242,,,,,,,,,,,,,,,,,,,,,None,None,None,0,,None,None,None,None,None,None,None,,,,,,,,,,,,,,,,,,,,,2,001,2020_Oct_14_1430,searchDisc2,2020.2.2,59.90614432902178,
images/exp2a_trial_28_colour3_distractors19_l.png,l,1,0,32,32,220,,,,,,,,,,,,,,,,,,,,,None,None,None,0,,None,None,None,None,None,None,None,,,,,,,,,,,,,,,,,,,,,2,001,2020_Oct_14_1430,searchDisc2,2020.2.2,59.90614432902178,
images/exp1b_trial_55_colour2_distractors19_l.png,l,1,0,33,33,151,,,,,,,,,,,,,,,,,,,,,None,None,None,0,,None,None,None,None,None,None,None,,,,,,,,,,,,,,,,,,,,,2,001,2020_Oct_14_1430,searchDisc2,2020.2.2,59.90614432902178,
images/exp1a_trial_75_colour3_distractors4_r.png,r,2,0,34,34,75,,,,,,,,,,,,,,,,,,,,,None,None,None,0,,None,None,None,None,None,None,None,,,,,,,,,,,,,,,,,,,,,2,001,2020_Oct_14_1430,searchDisc2,2020.2.2,59.90614432902178,
images/exp2c_trial_54_colour2_distractors9_l.png,l,1,0,35,35,438,,,,,,,,,,,,,,,,,,,,,None,None,None,0,,None,None,None,None,None,None,None,,,,,,,,,,,,,,,,,,,,,2,001,2020_Oct_14_1430,searchDisc2,2020.2.2,59.90614432902178,
images/exp1a_trial_48_colour1_distractors4_l.png,l,1,0,36,36,48,,,,,,,,,,,,,,,,,,,,,None,None,None,0,,None,None,None,None,None,None,None,,,,,,,,,,,,,,,,,,,,,2,001,2020_Oct_14_1430,searchDisc2,2020.2.2,59.90614432902178,
images/exp1b_trial_46_colour3_distractors31_r.png,r,2,0,37,37,142,,,,,,,,,,,,,,,,,,,,,None,None,None,0,,None,None,None,None,None,None,None,,,,,,,,,,,,,,,,,,,,,2,001,2020_Oct_14_1430,searchDisc2,2020.2.2,59.90614432902178,
images/exp1a_trial_17_colour1_distractors9_l.png,l,1,0,38,38,17,,,,,,,,,,,,,,,,,,,,,None,None,None,0,,None,None,None,None,None,None,None,,,,,,,,,,,,,,,,,,,,,2,001,2020_Oct_14_1430,searchDisc2,2020.2.2,59.90614432902178,
images/exp2a_trial_76_colour3_distractors9_r.png,r,2,0,39,39,268,,,,,,,,,,,,,,,,,,,,,None,None,None,0,,None,None,None,None,None,None,None,,,,,,,,,,,,,,,,,,,,,2,001,2020_Oct_14_1430,searchDisc2,2020.2.2,59.90614432902178,
images/exp1b_trial_74_colour3_distractors1_r.png,r,2,0,40,40,170,,,,,,,,,,,,,,,,,,,,,None,None,None,0,,None,None,None,None,None,None,None,,,,,,,,,,,,,,,,,,,,,2,001,2020_Oct_14_1430,searchDisc2,2020.2.2,59.90614432902178,
images/exp2b_trial_14_colour3_distractors31_r.png,r,2,0,41,41,302,,,,,,,,,,,,,,,,,,,,,None,None,None,0,,None,None,None,None,None,None,None,,,,,,,,,,,,,,,,,,,,,2,001,2020_Oct_14_1430,searchDisc2,2020.2.2,59.90614432902178,
images/exp2c_trial_37_colour2_distractors1_r.png,r,2,0,42,42,421,,,,,,,,,,,,,,,,,,,,,None,None,None,0,,None,None,None,None,None,None,None,,,,,,,,,,,,,,,,,,,,,2,001,2020_Oct_14_1430,searchDisc2,2020.2.2,59.90614432902178,
images/exp1a_trial_16_colour1_distractors4_l.png,l,1,0,43,43,16,,,,,,,,,,,,,,,,,,,,,None,None,None,0,,None,None,None,None,None,None,None,,,,,,,,,,,,,,,,,,,,,2,001,2020_Oct_14_1430,searchDisc2,2020.2.2,59.90614432902178,
images/exp1b_trial_22_colour2_distractors9_l.png,l,1,0,44,44,118,,,,,,,,,,,,,,,,,,,,,None,None,None,0,,None,None,None,None,None,None,None,,,,,,,,,,,,,,,,,,,,,2,001,2020_Oct_14_1430,searchDisc2,2020.2.2,59.90614432902178,
images/exp2a_trial_84_colour2_distractors1_l.png,l,1,0,45,45,276,,,,,,,,,,,,,,,,,,,,,None,None,None,0,,None,None,None,None,None,None,None,,,,,,,,,,,,,,,,,,,,,2,001,2020_Oct_14_1430,searchDisc2,2020.2.2,59.90614432902178,
images/exp1b_trial_44_colour3_distractors9_r.png,r,2,0,46,46,140,,,,,,,,,,,,,,,,,,,,,None,None,None,0,,None,None,None,None,None,None,None,,,,,,,,,,,,,,,,,,,,,2,001,2020_Oct_14_1430,searchDisc2,2020.2.2,59.90614432902178,
images/exp1b_trial_3_colour1_distractors19_r.png,r,2,0,47,47,99,,,,,,,,,,,,,,,,,,,,,None,None,None,0,,None,None,None,None,None,None,None,,,,,,,,,,,,,,,,,,,,,2,001,2020_Oct_14_1430,searchDisc2,2020.2.2,59.90614432902178,
images/exp2a_trial_78_colour3_distractors31_r.png,r,2,0,48,48,270,,,,,,,,,,,,,,,,,,,,,None,None,None,0,,None,None,None,None,None,None,None,,,,,,,,,,,,,,,,,,,,,2,001,2020_Oct_14_1430,searchDisc2,2020.2.2,59.90614432902178,
images/exp2c_trial_5_colour2_distractors1_r.png,r,2,0,49,49,389,,,,,,,,,,,,,,,,,,,,,None,None,None,0,,None,None,None,None,None,None,None,,,,,,,,,,,,,,,,,,,,,2,001,2020_Oct_14_1430,searchDisc2,2020.2.2,59.90614432902178,
images/exp1b_trial_47_colour1_distractors1_l.png,l,1,0,50,50,143,,,,,,,,,,,,,,,,,,,,,None,None,None,0,,None,None,None,None,None,None,None,,,,,,,,,,,,,,,,,,,,,2,001,2020_Oct_14_1430,searchDisc2,2020.2.2,59.90614432902178,
images/exp1b_trial_39_colour2_distractors9_r.png,r,2,0,51,51,135,,,,,,,,,,,,,,,,,,,,,None,None,None,0,,None,None,None,None,None,None,None,,,,,,,,,,,,,,,,,,,,,2,001,2020_Oct_14_1430,searchDisc2,2020.2.2,59.90614432902178,
images/exp1a_trial_69_colour2_distractors1_r.png,r,2,0,52,52,69,,,,,,,,,,,,,,,,,,,,,None,None,None,0,,None,None,None,None,None,None,None,,,,,,,,,,,,,,,,,,,,,2,001,2020_Oct_14_1430,searchDisc2,2020.2.2,59.90614432902178,
images/exp1b_trial_59_colour3_distractors9_l.png,l,1,0,53,53,155,,,,,,,,,,,,,,,,,,,,,None,None,None,0,,None,None,None,None,None,None,None,,,,,,,,,,,,,,,,,,,,,2,001,2020_Oct_14_1430,searchDisc2,2020.2.2,59.90614432902178,
images/exp2b_trial_0_colour1_distractors1_r.png,r,2,0,54,54,288,,,,,,,,,,,,,,,,,,,,,None,None,None,0,,None,None,None,None,None,None,None,,,,,,,,,,,,,,,,,,,,,2,001,2020_Oct_14_1430,searchDisc2,2020.2.2,59.90614432902178,
images/exp1a_trial_68_colour1_distractors31_r.png,r,2,0,55,55,68,,,,,,,,,,,,,,,,,,,,,None,None,None,0,,None,None,None,None,None,None,None,,,,,,,,,,,,,,,,,,,,,2,001,2020_Oct_14_1430,searchDisc2,2020.2.2,59.90614432902178,
images/exp1b_trial_87_colour2_distractors19_l.png,l,1,0,56,56,183,,,,,,,,,,,,,,,,,,,,,None,None,None,0,,None,None,None,None,None,None,None,,,,,,,,,,,,,,,,,,,,,2,001,2020_Oct_14_1430,searchDisc2,2020.2.2,59.90614432902178,
images/exp2a_trial_46_colour3_distractors31_r.png,r,2,0,57,57,238,,,,,,,,,,,,,,,,,,,,,None,None,None,0,,None,None,None,None,None,None,None,,,,,,,,,,,,,,,,,,,,,2,001,2020_Oct_14_1430,searchDisc2,2020.2.2,59.90614432902178,
images/exp2b_trial_78_colour3_distractors31_r.png,r,2,0,58,58,366,,,,,,,,,,,,,,,,,,,,,None,None,None,0,,None,None,None,None,None,None,None,,,,,,,,,,,,,,,,,,,,,2,001,2020_Oct_14_1430,searchDisc2,2020.2.2,59.90614432902178,
images/exp2b_trial_26_colour3_distractors4_l.png,l,1,0,59,59,314,,,,,,,,,,,,,,,,,,,,,None,None,None,0,,None,None,None,None,None,None,None,,,,,,,,,,,,,,,,,,,,,2,001,2020_Oct_14_1430,searchDisc2,2020.2.2,59.90614432902178,
images/exp2b_trial_61_colour3_distractors31_l.png,l,1,0,60,60,349,,,,,,,,,,,,,,,,,,,,,None,None,None,0,,None,None,None,None,None,None,None,,,,,,,,,,,,,,,,,,,,,2,001,2020_Oct_14_1430,searchDisc2,2020.2.2,59.90614432902178,
images/exp2c_trial_43_colour3_distractors4_r.png,r,2,0,61,61,427,,,,,,,,,,,,,,,,,,,,,None,None,None,0,,None,None,None,None,None,None,None,,,,,,,,,,,,,,,,,,,,,2,001,2020_Oct_14_1430,searchDisc2,2020.2.2,59.90614432902178,
images/exp2b_trial_68_colour1_distractors31_r.png,r,2,0,62,62,356,,,,,,,,,,,,,,,,,,,,,None,None,None,0,,None,None,None,None,None,None,None,,,,,,,,,,,,,,,,,,,,,2,001,2020_Oct_14_1430,searchDisc2,2020.2.2,59.90614432902178,
images/exp1a_trial_45_colour3_distractors19_r.png,r,2,0,63,63,45,,,,,,,,,,,,,,,,,,,,,None,None,None,0,,None,None,None,None,None,None,None,,,,,,,,,,,,,,,,,,,,,2,001,2020_Oct_14_1430,searchDisc2,2020.2.2,59.90614432902178,
images/exp2c_trial_85_colour2_distractors4_l.png,l,1,0,64,64,469,,,,,,,,,,,,,,,,,,,,,None,None,None,0,,None,None,None,None,None,None,None,,,,,,,,,,,,,,,,,,,,,2,001,2020_Oct_14_1430,searchDisc2,2020.2.2,59.90614432902178,
images/exp2c_trial_10_colour3_distractors1_r.png,r,2,0,65,65,394,,,,,,,,,,,,,,,,,,,,,None,None,None,0,,None,None,None,None,None,None,None,,,,,,,,,,,,,,,,,,,,,2,001,2020_Oct_14_1430,searchDisc2,2020.2.2,59.90614432902178,
images/exp2c_trial_92_colour3_distractors19_l.png,l,1,0,66,66,476,,,,,,,,,,,,,,,,,,,,,None,None,None,0,,None,None,None,None,None,None,None,,,,,,,,,,,,,,,,,,,,,2,001,2020_Oct_14_1430,searchDisc2,2020.2.2,59.90614432902178,
images/exp1a_trial_94_colour0_distractors0_r.png,r,2,0,67,67,94,,,,,,,,,,,,,,,,,,,,,None,None,None,0,,None,None,None,None,None,None,None,,,,,,,,,,,,,,,,,,,,,2,001,2020_Oct_14_1430,searchDisc2,2020.2.2,59.90614432902178,
images/exp1b_trial_89_colour3_distractors1_l.png,l,1,0,68,68,185,,,,,,,,,,,,,,,,,,,,,None,None,None,0,,None,None,None,None,None,None,None,,,,,,,,,,,,,,,,,,,,,2,001,2020_Oct_14_1430,searchDisc2,2020.2.2,59.90614432902178,
images/exp1a_trial_0_colour1_distractors1_r.png,r,2,0,69,69,0,,,,,,,,,,,,,,,,,,,,,None,None,None,0,,None,None,None,None,None,None,None,,,,,,,,,,,,,,,,,,,,,2,001,2020_Oct_14_1430,searchDisc2,2020.2.2,59.90614432902178,
images/exp2c_trial_93_colour3_distractors31_l.png,l,1,0,70,70,477,,,,,,,,,,,,,,,,,,,,,None,None,None,0,,None,None,None,None,None,None,None,,,,,,,,,,,,,,,,,,,,,2,001,2020_Oct_14_1430,searchDisc2,2020.2.2,59.90614432902178,
images/exp1b_trial_33_colour1_distractors4_r.png,r,2,0,71,71,129,,,,,,,,,,,,,,,,,,,,,None,None,None,0,,None,None,None,None,None,None,None,,,,,,,,,,,,,,,,,,,,,2,001,2020_Oct_14_1430,searchDisc2,2020.2.2,59.90614432902178,
images/exp2b_trial_53_colour2_distractors4_l.png,l,1,0,72,72,341,,,,,,,,,,,,,,,,,,,,,None,None,None,0,,None,None,None,None,None,None,None,,,,,,,,,,,,,,,,,,,,,2,001,2020_Oct_14_1430,searchDisc2,2020.2.2,59.90614432902178,
images/exp1b_trial_92_colour3_distractors19_l.png,l,1,0,73,73,188,,,,,,,,,,,,,,,,,,,,,None,None,None,0,,None,None,None,None,None,None,None,,,,,,,,,,,,,,,,,,,,,2,001,2020_Oct_14_1430,searchDisc2,2020.2.2,59.90614432902178,
images/exp1a_trial_28_colour3_distractors19_l.png,l,1,0,74,74,28,,,,,,,,,,,,,,,,,,,,,None,None,None,0,,None,None,None,None,None,None,None,,,,,,,,,,,,,,,,,,,,,2,001,2020_Oct_14_1430,searchDisc2,2020.2.2,59.90614432902178,
images/exp1b_trial_15_colour1_distractors1_l.png,l,1,0,75,75,111,,,,,,,,,,,,,,,,,,,,,None,None,None,0,,None,None,None,None,None,None,None,,,,,,,,,,,,,,,,,,,,,2,001,2020_Oct_14_1430,searchDisc2,2020.2.2,59.90614432902178,
images/exp1b_trial_34_colour1_distractors9_r.png,r,2,0,76,76,130,,,,,,,,,,,,,,,,,,,,,None,None,None,0,,None,None,None,None,None,None,None,,,,,,,,,,,,,,,,,,,,,2,001,2020_Oct_14_1430,searchDisc2,2020.2.2,59.90614432902178,
images/exp2c_trial_0_colour1_distractors1_r.png,r,2,0,77,77,384,,,,,,,,,,,,,,,,,,,,,None,None,None,0,,None,None,None,None,None,None,None,,,,,,,,,,,,,,,,,,,,,2,001,2020_Oct_14_1430,searchDisc2,2020.2.2,59.90614432902178,
images/exp2a_trial_94_colour0_distractors0_r.png,r,2,0,78,78,286,,,,,,,,,,,,,,,,,,,,,None,None,None,0,,None,None,None,None,None,None,None,,,,,,,,,,,,,,,,,,,,,2,001,2020_Oct_14_1430,searchDisc2,2020.2.2,59.90614432902178,
images/exp1b_trial_12_colour3_distractors9_r.png,r,2,0,79,79,108,,,,,,,,,,,,,,,,,,,,,None,None,None,0,,None,None,None,None,None,None,None,,,,,,,,,,,,,,,,,,,,,2,001,2020_Oct_14_1430,searchDisc2,2020.2.2,59.90614432902178,
images/exp2b_trial_47_colour1_distractors1_l.png,l,1,0,80,80,335,,,,,,,,,,,,,,,,,,,,,None,None,None,0,,None,None,None,None,None,None,None,,,,,,,,,,,,,,,,,,,,,2,001,2020_Oct_14_1430,searchDisc2,2020.2.2,59.90614432902178,
images/exp2a_trial_0_colour1_distractors1_r.png,r,2,0,81,81,192,,,,,,,,,,,,,,,,,,,,,None,None,None,0,,None,None,None,None,None,None,None,,,,,,,,,,,,,,,,,,,,,2,001,2020_Oct_14_1430,searchDisc2,2020.2.2,59.90614432902178,
images/exp2b_trial_88_colour2_distractors31_l.png,l,1,0,82,82,376,,,,,,,,,,,,,,,,,,,,,None,None,None,0,,None,None,None,None,None,None,None,,,,,,,,,,,,,,,,,,,,,2,001,2020_Oct_14_1430,searchDisc2,2020.2.2,59.90614432902178,
images/exp2b_trial_74_colour3_distractors1_r.png,r,2,0,83,83,362,,,,,,,,,,,,,,,,,,,,,None,None,None,0,,None,None,None,None,None,None,None,,,,,,,,,,,,,,,,,,,,,2,001,2020_Oct_14_1430,searchDisc2,2020.2.2,59.90614432902178,
images/exp1b_trial_13_colour3_distractors19_r.png,r,2,0,84,84,109,,,,,,,,,,,,,,,,,,,,,None,None,None,0,,None,None,None,None,None,None,None,,,,,,,,,,,,,,,,,,,,,2,001,2020_Oct_14_1430,searchDisc2,2020.2.2,59.90614432902178,
images/exp2c_trial_60_colour3_distractors19_l.png,l,1,0,85,85,444,,,,,,,,,,,,,,,,,,,,,None,None,None,0,,None,None,None,None,None,None,None,,,,,,,,,,,,,,,,,,,,,2,001,2020_Oct_14_1430,searchDisc2,2020.2.2,59.90614432902178,
images/exp1b_trial_95_colour0_distractors0_l.png,l,1,0,86,86,191,,,,,,,,,,,,,,,,,,,,,None,None,None,0,,None,None,None,None,None,None,None,,,,,,,,,,,,,,,,,,,,,2,001,2020_Oct_14_1430,searchDisc2,2020.2.2,59.90614432902178,
images/exp2c_trial_42_colour3_distractors1_r.png,r,2,0,87,87,426,,,,,,,,,,,,,,,,,,,,,None,None,None,0,,None,None,None,None,None,None,None,,,,,,,,,,,,,,,,,,,,,2,001,2020_Oct_14_1430,searchDisc2,2020.2.2,59.90614432902178,
images/exp1b_trial_38_colour2_distractors4_r.png,r,2,0,88,88,134,,,,,,,,,,,,,,,,,,,,,None,None,None,0,,None,None,None,None,None,None,None,,,,,,,,,,,,,,,,,,,,,2,001,2020_Oct_14_1430,searchDisc2,2020.2.2,59.90614432902178,
images/exp1b_trial_93_colour3_distractors31_l.png,l,1,0,89,89,189,,,,,,,,,,,,,,,,,,,,,None,None,None,0,,None,None,None,None,None,None,None,,,,,,,,,,,,,,,,,,,,,2,001,2020_Oct_14_1430,searchDisc2,2020.2.2,59.90614432902178,
images/exp2a_trial_79_colour1_distractors1_l.png,l,1,0,90,90,271,,,,,,,,,,,,,,,,,,,,,None,None,None,0,,None,None,None,None,None,None,None,,,,,,,,,,,,,,,,,,,,,2,001,2020_Oct_14_1430,searchDisc2,2020.2.2,59.90614432902178,
images/exp2a_trial_30_colour0_distractors0_r.png,l,1,0,91,91,222,,,,,,,,,,,,,,,,,,,,,None,None,None,0,,None,None,None,None,None,None,None,,,,,,,,,,,,,,,,,,,,,2,001,2020_Oct_14_1430,searchDisc2,2020.2.2,59.90614432902178,
images/exp2b_trial_90_colour3_distractors4_l.png,l,1,0,92,92,378,,,,,,,,,,,,,,,,,,,,,None,None,None,0,,None,None,None,None,None,None,None,,,,,,,,,,,,,,,,,,,,,2,001,2020_Oct_14_1430,searchDisc2,2020.2.2,59.90614432902178,
images/exp2a_trial_8_colour2_distractors19_r.png,r,2,0,93,93,200,,,,,,,,,,,,,,,,,,,,,None,None,None,0,,None,None,None,None,None,None,None,,,,,,,,,,,,,,,,,,,,,2,001,2020_Oct_14_1430,searchDisc2,2020.2.2,59.90614432902178,
images/exp1a_trial_78_colour3_distractors31_r.png,r,2,0,94,94,78,,,,,,,,,,,,,,,,,,,,,None,None,None,0,,None,None,None,None,None,None,None,,,,,,,,,,,,,,,,,,,,,2,001,2020_Oct_14_1430,searchDisc2,2020.2.2,59.90614432902178,
images/exp2c_trial_75_colour3_distractors4_r.png,r,2,0,95,95,459,,,,,,,,,,,,,,,,,,,,,None,None,None,0,,None,None,None,None,None,None,None,,,,,,,,,,,,,,,,,,,,,2,001,2020_Oct_14_1430,searchDisc2,2020.2.2,59.90614432902178,
images/exp2b_trial_73_colour2_distractors31_r.png,r,2,0,96,96,361,,,,,,,,,,,,,,,,,,,,,None,None,None,0,,None,None,None,None,None,None,None,,,,,,,,,,,,,,,,,,,,,2,001,2020_Oct_14_1430,searchDisc2,2020.2.2,59.90614432902178,
images/exp2a_trial_27_colour3_distractors9_l.png,l,1,0,97,97,219,,,,,,,,,,,,,,,,,,,,,None,None,None,0,,None,None,None,None,None,None,None,,,,,,,,,,,,,,,,,,,,,2,001,2020_Oct_14_1430,searchDisc2,2020.2.2,59.90614432902178,
images/exp2b_trial_71_colour2_distractors9_r.png,r,2,0,98,98,359,,,,,,,,,,,,,,,,,,,,,None,None,None,0,,None,None,None,None,None,None,None,,,,,,,,,,,,,,,,,,,,,2,001,2020_Oct_14_1430,searchDisc2,2020.2.2,59.90614432902178,
images/exp2c_trial_64_colour1_distractors1_r.png,r,2,0,99,99,448,,,,,,,,,,,,,,,,,,,,,None,None,None,0,,None,None,None,None,None,None,None,,,,,,,,,,,,,,,,,,,,,2,001,2020_Oct_14_1430,searchDisc2,2020.2.2,59.90614432902178,
images/exp2a_trial_71_colour2_distractors9_r.png,r,2,0,100,100,263,,,,,,,,,,,,,,,,,,,,,None,None,None,0,,None,None,None,None,None,None,None,,,,,,,,,,,,,,,,,,,,,2,001,2020_Oct_14_1430,searchDisc2,2020.2.2,59.90614432902178,
images/exp2a_trial_42_colour3_distractors1_r.png,r,2,0,101,101,234,,,,,,,,,,,,,,,,,,,,,None,None,None,0,,None,None,None,None,None,None,None,,,,,,,,,,,,,,,,,,,,,2,001,2020_Oct_14_1430,searchDisc2,2020.2.2,59.90614432902178,
images/exp2a_trial_18_colour1_distractors19_l.png,l,1,0,102,102,210,,,,,,,,,,,,,,,,,,,,,None,None,None,0,,None,None,None,None,None,None,None,,,,,,,,,,,,,,,,,,,,,2,001,2020_Oct_14_1430,searchDisc2,2020.2.2,59.90614432902178,
images/exp2c_trial_22_colour2_distractors9_l.png,l,1,0,103,103,406,,,,,,,,,,,,,,,,,,,,,None,None,None,0,,None,None,None,None,None,None,None,,,,,,,,,,,,,,,,,,,,,2,001,2020_Oct_14_1430,searchDisc2,2020.2.2,59.90614432902178,
images/exp2c_trial_61_colour3_distractors31_l.png,l,1,0,104,104,445,,,,,,,,,,,,,,,,,,,,,None,None,None,0,,None,None,None,None,None,None,None,,,,,,,,,,,,,,,,,,,,,2,001,2020_Oct_14_1430,searchDisc2,2020.2.2,59.90614432902178,
images/exp2a_trial_36_colour1_distractors31_r.png,r,2,0,105,105,228,,,,,,,,,,,,,,,,,,,,,None,None,None,0,,None,None,None,None,None,None,None,,,,,,,,,,,,,,,,,,,,,2,001,2020_Oct_14_1430,searchDisc2,2020.2.2,59.90614432902178,
images/exp1a_trial_42_colour3_distractors1_r.png,r,2,0,106,106,42,,,,,,,,,,,,,,,,,,,,,None,None,None,0,,None,None,None,None,None,None,None,,,,,,,,,,,,,,,,,,,,,2,001,2020_Oct_14_1430,searchDisc2,2020.2.2,59.90614432902178,
images/exp2a_trial_54_colour2_distractors9_l.png,l,1,0,107,107,246,,,,,,,,,,,,,,,,,,,,,None,None,None,0,,None,None,None,None,None,None,None,,,,,,,,,,,,,,,,,,,,,2,001,2020_Oct_14_1430,searchDisc2,2020.2.2,59.90614432902178,
images/exp1b_trial_64_colour1_distractors1_r.png,r,2,0,108,108,160,,,,,,,,,,,,,,,,,,,,,None,None,None,0,,None,None,None,None,None,None,None,,,,,,,,,,,,,,,,,,,,,2,001,2020_Oct_14_1430,searchDisc2,2020.2.2,59.90614432902178,
images/exp1a_trial_41_colour2_distractors31_r.png,r,2,0,109,109,41,,,,,,,,,,,,,,,,,,,,,None,None,None,0,,None,None,None,None,None,None,None,,,,,,,,,,,,,,,,,,,,,2,001,2020_Oct_14_1430,searchDisc2,2020.2.2,59.90614432902178,
images/exp1b_trial_40_colour2_distractors19_r.png,r,2,0,110,110,136,,,,,,,,,,,,,,,,,,,,,None,None,None,0,,None,None,None,None,None,None,None,,,,,,,,,,,,,,,,,,,,,2,001,2020_Oct_14_1430,searchDisc2,2020.2.2,59.90614432902178,
images/exp2b_trial_81_colour1_distractors9_l.png,l,1,0,111,111,369,,,,,,,,,,,,,,,,,,,,,None,None,None,0,,None,None,None,None,None,None,None,,,,,,,,,,,,,,,,,,,,,2,001,2020_Oct_14_1430,searchDisc2,2020.2.2,59.90614432902178,
images/exp1b_trial_23_colour2_distractors19_l.png,l,1,0,112,112,119,,,,,,,,,,,,,,,,,,,,,None,None,None,0,,None,None,None,None,None,None,None,,,,,,,,,,,,,,,,,,,,,2,001,2020_Oct_14_1430,searchDisc2,2020.2.2,59.90614432902178,
images/exp1b_trial_5_colour2_distractors1_r.png,r,2,0,113,113,101,,,,,,,,,,,,,,,,,,,,,None,None,None,0,,None,None,None,None,None,None,None,,,,,,,,,,,,,,,,,,,,,2,001,2020_Oct_14_1430,searchDisc2,2020.2.2,59.90614432902178,
images/exp1b_trial_37_colour2_distractors1_r.png,r,2,0,114,114,133,,,,,,,,,,,,,,,,,,,,,None,None,None,0,,None,None,None,None,None,None,None,,,,,,,,,,,,,,,,,,,,,2,001,2020_Oct_14_1430,searchDisc2,2020.2.2,59.90614432902178,
images/exp2b_trial_51_colour1_distractors31_l.png,l,1,0,115,115,339,,,,,,,,,,,,,,,,,,,,,None,None,None,0,,None,None,None,None,None,None,None,,,,,,,,,,,,,,,,,,,,,2,001,2020_Oct_14_1430,searchDisc2,2020.2.2,59.90614432902178,
images/exp2b_trial_36_colour1_distractors31_r.png,r,2,0,116,116,324,,,,,,,,,,,,,,,,,,,,,None,None,None,0,,None,None,None,None,None,None,None,,,,,,,,,,,,,,,,,,,,,2,001,2020_Oct_14_1430,searchDisc2,2020.2.2,59.90614432902178,
images/exp1a_trial_2_colour1_distractors9_r.png,r,2,0,117,117,2,,,,,,,,,,,,,,,,,,,,,None,None,None,0,,None,None,None,None,None,None,None,,,,,,,,,,,,,,,,,,,,,2,001,2020_Oct_14_1430,searchDisc2,2020.2.2,59.90614432902178,
images/exp1b_trial_54_colour2_distractors9_l.png,l,1,0,118,118,150,,,,,,,,,,,,,,,,,,,,,None,None,None,0,,None,None,None,None,None,None,None,,,,,,,,,,,,,,,,,,,,,2,001,2020_Oct_14_1430,searchDisc2,2020.2.2,59.90614432902178,
images/exp1b_trial_20_colour2_distractors1_l.png,l,1,0,119,119,116,,,,,,,,,,,,,,,,,,,,,None,None,None,0,,None,None,None,None,None,None,None,,,,,,,,,,,,,,,,,,,,,2,001,2020_Oct_14_1430,searchDisc2,2020.2.2,59.90614432902178,
images/exp1a_trial_15_colour1_distractors1_l.png,l,1,0,120,120,15,,,,,,,,,,,,,,,,,,,,,None,None,None,0,,None,None,None,None,None,None,None,,,,,,,,,,,,,,,,,,,,,2,001,2020_Oct_14_1430,searchDisc2,2020.2.2,59.90614432902178,
images/exp1a_trial_8_colour2_distractors19_r.png,r,2,0,121,121,8,,,,,,,,,,,,,,,,,,,,,None,None,None,0,,None,None,None,None,None,None,None,,,,,,,,,,,,,,,,,,,,,2,001,2020_Oct_14_1430,searchDisc2,2020.2.2,59.90614432902178,
images/exp2b_trial_42_colour3_distractors1_r.png,r,2,0,122,122,330,,,,,,,,,,,,,,,,,,,,,None,None,None,0,,None,None,None,None,None,None,None,,,,,,,,,,,,,,,,,,,,,2,001,2020_Oct_14_1430,searchDisc2,2020.2.2,59.90614432902178,
images/exp1a_trial_26_colour3_distractors4_l.png,l,1,0,123,123,26,,,,,,,,,,,,,,,,,,,,,None,None,None,0,,None,None,None,None,None,None,None,,,,,,,,,,,,,,,,,,,,,2,001,2020_Oct_14_1430,searchDisc2,2020.2.2,59.90614432902178,
images/exp1a_trial_71_colour2_distractors9_r.png,r,2,0,124,124,71,,,,,,,,,,,,,,,,,,,,,None,None,None,0,,None,None,None,None,None,None,None,,,,,,,,,,,,,,,,,,,,,2,001,2020_Oct_14_1430,searchDisc2,2020.2.2,59.90614432902178,
images/exp2c_trial_67_colour1_distractors19_r.png,r,2,0,125,125,451,,,,,,,,,,,,,,,,,,,,,None,None,None,0,,None,None,None,None,None,None,None,,,,,,,,,,,,,,,,,,,,,2,001,2020_Oct_14_1430,searchDisc2,2020.2.2,59.90614432902178,
images/exp1b_trial_29_colour3_distractors31_l.png,l,1,0,126,126,125,,,,,,,,,,,,,,,,,,,,,None,None,None,0,,None,None,None,None,None,None,None,,,,,,,,,,,,,,,,,,,,,2,001,2020_Oct_14_1430,searchDisc2,2020.2.2,59.90614432902178,
images/exp2b_trial_28_colour3_distractors19_l.png,l,1,0,127,127,316,,,,,,,,,,,,,,,,,,,,,None,None,None,0,,None,None,None,None,None,None,None,,,,,,,,,,,,,,,,,,,,,2,001,2020_Oct_14_1430,searchDisc2,2020.2.2,59.90614432902178,
images/exp2a_trial_80_colour1_distractors4_l.png,l,1,0,128,128,272,,,,,,,,,,,,,,,,,,,,,None,None,None,0,,None,None,None,None,None,None,None,,,,,,,,,,,,,,,,,,,,,2,001,2020_Oct_14_1430,searchDisc2,2020.2.2,59.90614432902178,
images/exp2b_trial_48_colour1_distractors4_l.png,l,1,0,129,129,336,,,,,,,,,,,,,,,,,,,,,None,None,None,0,,None,None,None,None,None,None,None,,,,,,,,,,,,,,,,,,,,,2,001,2020_Oct_14_1430,searchDisc2,2020.2.2,59.90614432902178,
images/exp2c_trial_59_colour3_distractors9_l.png,l,1,0,130,130,443,,,,,,,,,,,,,,,,,,,,,None,None,None,0,,None,None,None,None,None,None,None,,,,,,,,,,,,,,,,,,,,,2,001,2020_Oct_14_1430,searchDisc2,2020.2.2,59.90614432902178,
images/exp1b_trial_90_colour3_distractors4_l.png,l,1,0,131,131,186,,,,,,,,,,,,,,,,,,,,,None,None,None,0,,None,None,None,None,None,None,None,,,,,,,,,,,,,,,,,,,,,2,001,2020_Oct_14_1430,searchDisc2,2020.2.2,59.90614432902178,
images/exp2a_trial_33_colour1_distractors4_r.png,r,2,0,132,132,225,,,,,,,,,,,,,,,,,,,,,None,None,None,0,,None,None,None,None,None,None,None,,,,,,,,,,,,,,,,,,,,,2,001,2020_Oct_14_1430,searchDisc2,2020.2.2,59.90614432902178,
images/exp1b_trial_10_colour3_distractors1_r.png,r,2,0,133,133,106,,,,,,,,,,,,,,,,,,,,,None,None,None,0,,None,None,None,None,None,None,None,,,,,,,,,,,,,,,,,,,,,2,001,2020_Oct_14_1430,searchDisc2,2020.2.2,59.90614432902178,
images/exp1a_trial_79_colour1_distractors1_l.png,l,1,0,134,134,79,,,,,,,,,,,,,,,,,,,,,None,None,None,0,,None,None,None,None,None,None,None,,,,,,,,,,,,,,,,,,,,,2,001,2020_Oct_14_1430,searchDisc2,2020.2.2,59.90614432902178,
images/exp2a_trial_35_colour1_distractors19_r.png,r,2,0,135,135,227,,,,,,,,,,,,,,,,,,,,,None,None,None,0,,None,None,None,None,None,None,None,,,,,,,,,,,,,,,,,,,,,2,001,2020_Oct_14_1430,searchDisc2,2020.2.2,59.90614432902178,
images/exp1a_trial_53_colour2_distractors4_l.png,l,1,0,136,136,53,,,,,,,,,,,,,,,,,,,,,None,None,None,0,,None,None,None,None,None,None,None,,,,,,,,,,,,,,,,,,,,,2,001,2020_Oct_14_1430,searchDisc2,2020.2.2,59.90614432902178,
images/exp2b_trial_37_colour2_distractors1_r.png,r,2,0,137,137,325,,,,,,,,,,,,,,,,,,,,,None,None,None,0,,None,None,None,None,None,None,None,,,,,,,,,,,,,,,,,,,,,2,001,2020_Oct_14_1430,searchDisc2,2020.2.2,59.90614432902178,
images/exp2b_trial_65_colour1_distractors4_r.png,r,2,0,138,138,353,,,,,,,,,,,,,,,,,,,,,None,None,None,0,,None,None,None,None,None,None,None,,,,,,,,,,,,,,,,,,,,,2,001,2020_Oct_14_1430,searchDisc2,2020.2.2,59.90614432902178,
images/exp2a_trial_91_colour3_distractors9_l.png,l,1,0,139,139,283,,,,,,,,,,,,,,,,,,,,,None,None,None,0,,None,None,None,None,None,None,None,,,,,,,,,,,,,,,,,,,,,2,001,2020_Oct_14_1430,searchDisc2,2020.2.2,59.90614432902178,
images/exp2a_trial_65_colour1_distractors4_r.png,r,2,0,140,140,257,,,,,,,,,,,,,,,,,,,,,None,None,None,0,,None,None,None,None,None,None,None,,,,,,,,,,,,,,,,,,,,,2,001,2020_Oct_14_1430,searchDisc2,2020.2.2,59.90614432902178,
images/exp1b_trial_66_colour1_distractors9_r.png,r,2,0,141,141,162,,,,,,,,,,,,,,,,,,,,,None,None,None,0,,None,None,None,None,None,None,None,,,,,,,,,,,,,,,,,,,,,2,001,2020_Oct_14_1430,searchDisc2,2020.2.2,59.90614432902178,
images/exp2c_trial_58_colour3_distractors4_l.png,l,1,0,142,142,442,,,,,,,,,,,,,,,,,,,,,None,None,None,0,,None,None,None,None,None,None,None,,,,,,,,,,,,,,,,,,,,,2,001,2020_Oct_14_1430,searchDisc2,2020.2.2,59.90614432902178,
images/exp2a_trial_31_colour0_distractors0_l.png,l,1,0,143,143,223,,,,,,,,,,,,,,,,,,,,,None,None,None,0,,None,None,None,None,None,None,None,,,,,,,,,,,,,,,,,,,,,2,001,2020_Oct_14_1430,searchDisc2,2020.2.2,59.90614432902178,
images/exp2c_trial_15_colour1_distractors1_l.png,l,1,0,144,144,399,,,,,,,,,,,,,,,,,,,,,None,None,None,0,,None,None,None,None,None,None,None,,,,,,,,,,,,,,,,,,,,,2,001,2020_Oct_14_1430,searchDisc2,2020.2.2,59.90614432902178,
images/exp2c_trial_25_colour3_distractors1_l.png,l,1,0,145,145,409,,,,,,,,,,,,,,,,,,,,,None,None,None,0,,None,None,None,None,None,None,None,,,,,,,,,,,,,,,,,,,,,2,001,2020_Oct_14_1430,searchDisc2,2020.2.2,59.90614432902178,
images/exp2a_trial_81_colour1_distractors9_l.png,l,1,0,146,146,273,,,,,,,,,,,,,,,,,,,,,None,None,None,0,,None,None,None,None,None,None,None,,,,,,,,,,,,,,,,,,,,,2,001,2020_Oct_14_1430,searchDisc2,2020.2.2,59.90614432902178,
images/exp1a_trial_47_colour1_distractors1_l.png,l,1,0,147,147,47,,,,,,,,,,,,,,,,,,,,,None,None,None,0,,None,None,None,None,None,None,None,,,,,,,,,,,,,,,,,,,,,2,001,2020_Oct_14_1430,searchDisc2,2020.2.2,59.90614432902178,
images/exp1b_trial_26_colour3_distractors4_l.png,l,1,0,148,148,122,,,,,,,,,,,,,,,,,,,,,None,None,None,0,,None,None,None,None,None,None,None,,,,,,,,,,,,,,,,,,,,,2,001,2020_Oct_14_1430,searchDisc2,2020.2.2,59.90614432902178,
images/exp1a_trial_36_colour1_distractors31_r.png,r,2,0,149,149,36,,,,,,,,,,,,,,,,,,,,,None,None,None,0,,None,None,None,None,None,None,None,,,,,,,,,,,,,,,,,,,,,2,001,2020_Oct_14_1430,searchDisc2,2020.2.2,59.90614432902178,
images/exp1a_trial_81_colour1_distractors9_l.png,l,1,0,150,150,81,,,,,,,,,,,,,,,,,,,,,None,None,None,0,,None,None,None,None,None,None,None,,,,,,,,,,,,,,,,,,,,,2,001,2020_Oct_14_1430,searchDisc2,2020.2.2,59.90614432902178,
images/exp2b_trial_22_colour2_distractors9_l.png,l,1,0,151,151,310,,,,,,,,,,,,,,,,,,,,,None,None,None,0,,None,None,None,None,None,None,None,,,,,,,,,,,,,,,,,,,,,2,001,2020_Oct_14_1430,searchDisc2,2020.2.2,59.90614432902178,
images/exp1a_trial_54_colour2_distractors9_l.png,l,1,0,152,152,54,,,,,,,,,,,,,,,,,,,,,None,None,None,0,,None,None,None,None,None,None,None,,,,,,,,,,,,,,,,,,,,,2,001,2020_Oct_14_1430,searchDisc2,2020.2.2,59.90614432902178,
images/exp1b_trial_69_colour2_distractors1_r.png,r,2,0,153,153,165,,,,,,,,,,,,,,,,,,,,,None,None,None,0,,None,None,None,None,None,None,None,,,,,,,,,,,,,,,,,,,,,2,001,2020_Oct_14_1430,searchDisc2,2020.2.2,59.90614432902178,
images/exp2c_trial_72_colour2_distractors19_r.png,r,2,0,154,154,456,,,,,,,,,,,,,,,,,,,,,None,None,None,0,,None,None,None,None,None,None,None,,,,,,,,,,,,,,,,,,,,,2,001,2020_Oct_14_1430,searchDisc2,2020.2.2,59.90614432902178,
images/exp2a_trial_62_colour0_distractors0_r.png,r,2,0,155,155,254,,,,,,,,,,,,,,,,,,,,,None,None,None,0,,None,None,None,None,None,None,None,,,,,,,,,,,,,,,,,,,,,2,001,2020_Oct_14_1430,searchDisc2,2020.2.2,59.90614432902178,
images/exp2c_trial_78_colour3_distractors31_r.png,r,2,0,156,156,462,,,,,,,,,,,,,,,,,,,,,None,None,None,0,,None,None,None,None,None,None,None,,,,,,,,,,,,,,,,,,,,,2,001,2020_Oct_14_1430,searchDisc2,2020.2.2,59.90614432902178,
images/exp2b_trial_84_colour2_distractors1_l.png,l,1,0,157,157,372,,,,,,,,,,,,,,,,,,,,,None,None,None,0,,None,None,None,None,None,None,None,,,,,,,,,,,,,,,,,,,,,2,001,2020_Oct_14_1430,searchDisc2,2020.2.2,59.90614432902178,
images/exp2b_trial_85_colour2_distractors4_l.png,l,1,0,158,158,373,,,,,,,,,,,,,,,,,,,,,None,None,None,0,,None,None,None,None,None,None,None,,,,,,,,,,,,,,,,,,,,,2,001,2020_Oct_14_1430,searchDisc2,2020.2.2,59.90614432902178,
images/exp2a_trial_87_colour2_distractors19_l.png,l,1,0,159,159,279,,,,,,,,,,,,,,,,,,,,,None,None,None,0,,None,None,None,None,None,None,None,,,,,,,,,,,,,,,,,,,,,2,001,2020_Oct_14_1430,searchDisc2,2020.2.2,59.90614432902178,
images/exp2c_trial_82_colour1_distractors19_l.png,l,1,0,160,160,466,,,,,,,,,,,,,,,,,,,,,None,None,None,0,,None,None,None,None,None,None,None,,,,,,,,,,,,,,,,,,,,,2,001,2020_Oct_14_1430,searchDisc2,2020.2.2,59.90614432902178,
images/exp2b_trial_35_colour1_distractors19_r.png,r,2,0,161,161,323,,,,,,,,,,,,,,,,,,,,,None,None,None,0,,None,None,None,None,None,None,None,,,,,,,,,,,,,,,,,,,,,2,001,2020_Oct_14_1430,searchDisc2,2020.2.2,59.90614432902178,
images/exp2b_trial_66_colour1_distractors9_r.png,r,2,0,162,162,354,,,,,,,,,,,,,,,,,,,,,None,None,None,0,,None,None,None,None,None,None,None,,,,,,,,,,,,,,,,,,,,,2,001,2020_Oct_14_1430,searchDisc2,2020.2.2,59.90614432902178,
images/exp1b_trial_6_colour2_distractors4_r.png,r,2,0,163,163,102,,,,,,,,,,,,,,,,,,,,,None,None,None,0,,None,None,None,None,None,None,None,,,,,,,,,,,,,,,,,,,,,2,001,2020_Oct_14_1430,searchDisc2,2020.2.2,59.90614432902178,
images/exp1a_trial_90_colour3_distractors4_l.png,l,1,0,164,164,90,,,,,,,,,,,,,,,,,,,,,None,None,None,0,,None,None,None,None,None,None,None,,,,,,,,,,,,,,,,,,,,,2,001,2020_Oct_14_1430,searchDisc2,2020.2.2,59.90614432902178,
images/exp1a_trial_5_colour2_distractors1_r.png,r,2,0,165,165,5,,,,,,,,,,,,,,,,,,,,,None,None,None,0,,None,None,None,None,None,None,None,,,,,,,,,,,,,,,,,,,,,2,001,2020_Oct_14_1430,searchDisc2,2020.2.2,59.90614432902178,
images/exp2b_trial_50_colour1_distractors19_l.png,l,1,0,166,166,338,,,,,,,,,,,,,,,,,,,,,None,None,None,0,,None,None,None,None,None,None,None,,,,,,,,,,,,,,,,,,,,,2,001,2020_Oct_14_1430,searchDisc2,2020.2.2,59.90614432902178,
images/exp1b_trial_4_colour1_distractors31_r.png,r,2,0,167,167,100,,,,,,,,,,,,,,,,,,,,,None,None,None,0,,None,None,None,None,None,None,None,,,,,,,,,,,,,,,,,,,,,2,001,2020_Oct_14_1430,searchDisc2,2020.2.2,59.90614432902178,
images/exp1a_trial_32_colour1_distractors1_r.png,r,2,0,168,168,32,,,,,,,,,,,,,,,,,,,,,None,None,None,0,,None,None,None,None,None,None,None,,,,,,,,,,,,,,,,,,,,,2,001,2020_Oct_14_1430,searchDisc2,2020.2.2,59.90614432902178,
images/exp2a_trial_24_colour2_distractors31_l.png,l,1,0,169,169,216,,,,,,,,,,,,,,,,,,,,,None,None,None,0,,None,None,None,None,None,None,None,,,,,,,,,,,,,,,,,,,,,2,001,2020_Oct_14_1430,searchDisc2,2020.2.2,59.90614432902178,
images/exp1b_trial_79_colour1_distractors1_l.png,l,1,0,170,170,175,,,,,,,,,,,,,,,,,,,,,None,None,None,0,,None,None,None,None,None,None,None,,,,,,,,,,,,,,,,,,,,,2,001,2020_Oct_14_1430,searchDisc2,2020.2.2,59.90614432902178,
images/exp1a_trial_3_colour1_distractors19_r.png,r,2,0,171,171,3,,,,,,,,,,,,,,,,,,,,,None,None,None,0,,None,None,None,None,None,None,None,,,,,,,,,,,,,,,,,,,,,2,001,2020_Oct_14_1430,searchDisc2,2020.2.2,59.90614432902178,
images/exp2b_trial_3_colour1_distractors19_r.png,r,2,0,172,172,291,,,,,,,,,,,,,,,,,,,,,None,None,None,0,,None,None,None,None,None,None,None,,,,,,,,,,,,,,,,,,,,,2,001,2020_Oct_14_1430,searchDisc2,2020.2.2,59.90614432902178,
images/exp2a_trial_7_colour2_distractors9_r.png,r,2,0,173,173,199,,,,,,,,,,,,,,,,,,,,,None,None,None,0,,None,None,None,None,None,None,None,,,,,,,,,,,,,,,,,,,,,2,001,2020_Oct_14_1430,searchDisc2,2020.2.2,59.90614432902178,
images/exp1b_trial_94_colour0_distractors0_r.png,r,2,0,174,174,190,,,,,,,,,,,,,,,,,,,,,None,None,None,0,,None,None,None,None,None,None,None,,,,,,,,,,,,,,,,,,,,,2,001,2020_Oct_14_1430,searchDisc2,2020.2.2,59.90614432902178,
images/exp2a_trial_10_colour3_distractors1_r.png,r,2,0,175,175,202,,,,,,,,,,,,,,,,,,,,,None,None,None,0,,None,None,None,None,None,None,None,,,,,,,,,,,,,,,,,,,,,2,001,2020_Oct_14_1430,searchDisc2,2020.2.2,59.90614432902178,
images/exp1a_trial_66_colour1_distractors9_r.png,r,2,0,176,176,66,,,,,,,,,,,,,,,,,,,,,None,None,None,0,,None,None,None,None,None,None,None,,,,,,,,,,,,,,,,,,,,,2,001,2020_Oct_14_1430,searchDisc2,2020.2.2,59.90614432902178,
images/exp2b_trial_45_colour3_distractors19_r.png,r,2,0,177,177,333,,,,,,,,,,,,,,,,,,,,,None,None,None,0,,None,None,None,None,None,None,None,,,,,,,,,,,,,,,,,,,,,2,001,2020_Oct_14_1430,searchDisc2,2020.2.2,59.90614432902178,
images/exp2b_trial_6_colour2_distractors4_r.png,r,2,0,178,178,294,,,,,,,,,,,,,,,,,,,,,None,None,None,0,,None,None,None,None,None,None,None,,,,,,,,,,,,,,,,,,,,,2,001,2020_Oct_14_1430,searchDisc2,2020.2.2,59.90614432902178,
images/exp2c_trial_48_colour1_distractors4_l.png,l,1,0,179,179,432,,,,,,,,,,,,,,,,,,,,,None,None,None,0,,None,None,None,None,None,None,None,,,,,,,,,,,,,,,,,,,,,2,001,2020_Oct_14_1430,searchDisc2,2020.2.2,59.90614432902178,
images/exp1b_trial_80_colour1_distractors4_l.png,l,1,0,180,180,176,,,,,,,,,,,,,,,,,,,,,None,None,None,0,,None,None,None,None,None,None,None,,,,,,,,,,,,,,,,,,,,,2,001,2020_Oct_14_1430,searchDisc2,2020.2.2,59.90614432902178,
images/exp2c_trial_1_colour1_distractors4_r.png,r,2,0,181,181,385,,,,,,,,,,,,,,,,,,,,,None,None,None,0,,None,None,None,None,None,None,None,,,,,,,,,,,,,,,,,,,,,2,001,2020_Oct_14_1430,searchDisc2,2020.2.2,59.90614432902178,
images/exp2a_trial_77_colour3_distractors19_r.png,r,2,0,182,182,269,,,,,,,,,,,,,,,,,,,,,None,None,None,0,,None,None,None,None,None,None,None,,,,,,,,,,,,,,,,,,,,,2,001,2020_Oct_14_1430,searchDisc2,2020.2.2,59.90614432902178,
images/exp1b_trial_0_colour1_distractors1_r.png,r,2,0,183,183,96,,,,,,,,,,,,,,,,,,,,,None,None,None,0,,None,None,None,None,None,None,None,,,,,,,,,,,,,,,,,,,,,2,001,2020_Oct_14_1430,searchDisc2,2020.2.2,59.90614432902178,
images/exp2c_trial_31_colour0_distractors0_l.png,l,1,0,184,184,415,,,,,,,,,,,,,,,,,,,,,None,None,None,0,,None,None,None,None,None,None,None,,,,,,,,,,,,,,,,,,,,,2,001,2020_Oct_14_1430,searchDisc2,2020.2.2,59.90614432902178,
images/exp1a_trial_55_colour2_distractors19_l.png,l,1,0,185,185,55,,,,,,,,,,,,,,,,,,,,,None,None,None,0,,None,None,None,None,None,None,None,,,,,,,,,,,,,,,,,,,,,2,001,2020_Oct_14_1430,searchDisc2,2020.2.2,59.90614432902178,
images/exp2a_trial_52_colour2_distractors1_l.png,l,1,0,186,186,244,,,,,,,,,,,,,,,,,,,,,None,None,None,0,,None,None,None,None,None,None,None,,,,,,,,,,,,,,,,,,,,,2,001,2020_Oct_14_1430,searchDisc2,2020.2.2,59.90614432902178,
images/exp1a_trial_74_colour3_distractors1_r.png,r,2,0,187,187,74,,,,,,,,,,,,,,,,,,,,,None,None,None,0,,None,None,None,None,None,None,None,,,,,,,,,,,,,,,,,,,,,2,001,2020_Oct_14_1430,searchDisc2,2020.2.2,59.90614432902178,
images/exp2a_trial_15_colour1_distractors1_l.png,l,1,0,188,188,207,,,,,,,,,,,,,,,,,,,,,None,None,None,0,,None,None,None,None,None,None,None,,,,,,,,,,,,,,,,,,,,,2,001,2020_Oct_14_1430,searchDisc2,2020.2.2,59.90614432902178,
images/exp2a_trial_61_colour3_distractors31_l.png,l,1,0,189,189,253,,,,,,,,,,,,,,,,,,,,,None,None,None,0,,None,None,None,None,None,None,None,,,,,,,,,,,,,,,,,,,,,2,001,2020_Oct_14_1430,searchDisc2,2020.2.2,59.90614432902178,
images/exp1b_trial_28_colour3_distractors19_l.png,l,1,0,190,190,124,,,,,,,,,,,,,,,,,,,,,None,None,None,0,,None,None,None,None,None,None,None,,,,,,,,,,,,,,,,,,,,,2,001,2020_Oct_14_1430,searchDisc2,2020.2.2,59.90614432902178,
images/exp1a_trial_39_colour2_distractors9_r.png,r,2,0,191,191,39,,,,,,,,,,,,,,,,,,,,,None,None,None,0,,None,None,None,None,None,None,None,,,,,,,,,,,,,,,,,,,,,2,001,2020_Oct_14_1430,searchDisc2,2020.2.2,59.90614432902178,
images/exp2c_trial_20_colour2_distractors1_l.png,l,1,0,192,192,404,,,,,,,,,,,,,,,,,,,,,None,None,None,0,,None,None,None,None,None,None,None,,,,,,,,,,,,,,,,,,,,,2,001,2020_Oct_14_1430,searchDisc2,2020.2.2,59.90614432902178,
images/exp2c_trial_7_colour2_distractors9_r.png,r,2,0,193,193,391,,,,,,,,,,,,,,,,,,,,,None,None,None,0,,None,None,None,None,None,None,None,,,,,,,,,,,,,,,,,,,,,2,001,2020_Oct_14_1430,searchDisc2,2020.2.2,59.90614432902178,
images/exp2c_trial_71_colour2_distractors9_r.png,r,2,0,194,194,455,,,,,,,,,,,,,,,,,,,,,None,None,None,0,,None,None,None,None,None,None,None,,,,,,,,,,,,,,,,,,,,,2,001,2020_Oct_14_1430,searchDisc2,2020.2.2,59.90614432902178,
images/exp2a_trial_25_colour3_distractors1_l.png,l,1,0,195,195,217,,,,,,,,,,,,,,,,,,,,,None,None,None,0,,None,None,None,None,None,None,None,,,,,,,,,,,,,,,,,,,,,2,001,2020_Oct_14_1430,searchDisc2,2020.2.2,59.90614432902178,
images/exp1b_trial_17_colour1_distractors9_l.png,l,1,0,196,196,113,,,,,,,,,,,,,,,,,,,,,None,None,None,0,,None,None,None,None,None,None,None,,,,,,,,,,,,,,,,,,,,,2,001,2020_Oct_14_1430,searchDisc2,2020.2.2,59.90614432902178,
images/exp1a_trial_43_colour3_distractors4_r.png,r,2,0,197,197,43,,,,,,,,,,,,,,,,,,,,,None,None,None,0,,None,None,None,None,None,None,None,,,,,,,,,,,,,,,,,,,,,2,001,2020_Oct_14_1430,searchDisc2,2020.2.2,59.90614432902178,
images/exp2b_trial_30_colour0_distractors0_r.png,r,2,0,198,198,318,,,,,,,,,,,,,,,,,,,,,None,None,None,0,,None,None,None,None,None,None,None,,,,,,,,,,,,,,,,,,,,,2,001,2020_Oct_14_1430,searchDisc2,2020.2.2,59.90614432902178,
images/exp2a_trial_22_colour2_distractors9_l.png,l,1,0,199,199,214,,,,,,,,,,,,,,,,,,,,,None,None,None,0,,None,None,None,None,None,None,None,,,,,,,,,,,,,,,,,,,,,2,001,2020_Oct_14_1430,searchDisc2,2020.2.2,59.90614432902178,
images/exp1a_trial_88_colour2_distractors31_l.png,l,1,0,200,200,88,,,,,,,,,,,,,,,,,,,,,None,None,None,0,,None,None,None,None,None,None,None,,,,,,,,,,,,,,,,,,,,,2,001,2020_Oct_14_1430,searchDisc2,2020.2.2,59.90614432902178,
images/exp1b_trial_86_colour2_distractors9_l.png,l,1,0,201,201,182,,,,,,,,,,,,,,,,,,,,,None,None,None,0,,None,None,None,None,None,None,None,,,,,,,,,,,,,,,,,,,,,2,001,2020_Oct_14_1430,searchDisc2,2020.2.2,59.90614432902178,
images/exp1b_trial_48_colour1_distractors4_l.png,l,1,0,202,202,144,,,,,,,,,,,,,,,,,,,,,None,None,None,0,,None,None,None,None,None,None,None,,,,,,,,,,,,,,,,,,,,,2,001,2020_Oct_14_1430,searchDisc2,2020.2.2,59.90614432902178,
images/exp1a_trial_58_colour3_distractors4_l.png,l,1,0,203,203,58,,,,,,,,,,,,,,,,,,,,,None,None,None,0,,None,None,None,None,None,None,None,,,,,,,,,,,,,,,,,,,,,2,001,2020_Oct_14_1430,searchDisc2,2020.2.2,59.90614432902178,
images/exp1a_trial_93_colour3_distractors31_l.png,l,1,0,204,204,93,,,,,,,,,,,,,,,,,,,,,None,None,None,0,,None,None,None,None,None,None,None,,,,,,,,,,,,,,,,,,,,,2,001,2020_Oct_14_1430,searchDisc2,2020.2.2,59.90614432902178,
images/exp2b_trial_25_colour3_distractors1_l.png,l,1,0,205,205,313,,,,,,,,,,,,,,,,,,,,,None,None,None,0,,None,None,None,None,None,None,None,,,,,,,,,,,,,,,,,,,,,2,001,2020_Oct_14_1430,searchDisc2,2020.2.2,59.90614432902178,
images/exp2a_trial_92_colour3_distractors19_l.png,l,1,0,206,206,284,,,,,,,,,,,,,,,,,,,,,None,None,None,0,,None,None,None,None,None,None,None,,,,,,,,,,,,,,,,,,,,,2,001,2020_Oct_14_1430,searchDisc2,2020.2.2,59.90614432902178,
images/exp1b_trial_67_colour1_distractors19_r.png,r,2,0,207,207,163,,,,,,,,,,,,,,,,,,,,,None,None,None,0,,None,None,None,None,None,None,None,,,,,,,,,,,,,,,,,,,,,2,001,2020_Oct_14_1430,searchDisc2,2020.2.2,59.90614432902178,
images/exp2c_trial_16_colour1_distractors4_l.png,l,1,0,208,208,400,,,,,,,,,,,,,,,,,,,,,None,None,None,0,,None,None,None,None,None,None,None,,,,,,,,,,,,,,,,,,,,,2,001,2020_Oct_14_1430,searchDisc2,2020.2.2,59.90614432902178,
images/exp1a_trial_10_colour3_distractors1_r.png,r,2,0,209,209,10,,,,,,,,,,,,,,,,,,,,,None,None,None,0,,None,None,None,None,None,None,None,,,,,,,,,,,,,,,,,,,,,2,001,2020_Oct_14_1430,searchDisc2,2020.2.2,59.90614432902178,
images/exp2a_trial_16_colour1_distractors4_l.png,l,1,0,210,210,208,,,,,,,,,,,,,,,,,,,,,None,None,None,0,,None,None,None,None,None,None,None,,,,,,,,,,,,,,,,,,,,,2,001,2020_Oct_14_1430,searchDisc2,2020.2.2,59.90614432902178,
images/exp2c_trial_89_colour3_distractors1_l.png,l,1,0,211,211,473,,,,,,,,,,,,,,,,,,,,,None,None,None,0,,None,None,None,None,None,None,None,,,,,,,,,,,,,,,,,,,,,2,001,2020_Oct_14_1430,searchDisc2,2020.2.2,59.90614432902178,
images/exp2a_trial_37_colour2_distractors1_r.png,r,2,0,212,212,229,,,,,,,,,,,,,,,,,,,,,None,None,None,0,,None,None,None,None,None,None,None,,,,,,,,,,,,,,,,,,,,,2,001,2020_Oct_14_1430,searchDisc2,2020.2.2,59.90614432902178,
images/exp2a_trial_11_colour3_distractors4_r.png,r,2,0,213,213,203,,,,,,,,,,,,,,,,,,,,,None,None,None,0,,None,None,None,None,None,None,None,,,,,,,,,,,,,,,,,,,,,2,001,2020_Oct_14_1430,searchDisc2,2020.2.2,59.90614432902178,
images/exp1a_trial_91_colour3_distractors9_l.png,l,1,0,214,214,91,,,,,,,,,,,,,,,,,,,,,None,None,None,0,,None,None,None,None,None,None,None,,,,,,,,,,,,,,,,,,,,,2,001,2020_Oct_14_1430,searchDisc2,2020.2.2,59.90614432902178,
images/exp2a_trial_70_colour2_distractors4_r.png,r,2,0,215,215,262,,,,,,,,,,,,,,,,,,,,,None,None,None,0,,None,None,None,None,None,None,None,,,,,,,,,,,,,,,,,,,,,2,001,2020_Oct_14_1430,searchDisc2,2020.2.2,59.90614432902178,
images/exp2c_trial_74_colour3_distractors1_r.png,r,2,0,216,216,458,,,,,,,,,,,,,,,,,,,,,None,None,None,0,,None,None,None,None,None,None,None,,,,,,,,,,,,,,,,,,,,,2,001,2020_Oct_14_1430,searchDisc2,2020.2.2,59.90614432902178,
images/exp2b_trial_40_colour2_distractors19_r.png,r,2,0,217,217,328,,,,,,,,,,,,,,,,,,,,,None,None,None,0,,None,None,None,None,None,None,None,,,,,,,,,,,,,,,,,,,,,2,001,2020_Oct_14_1430,searchDisc2,2020.2.2,59.90614432902178,
images/exp2a_trial_1_colour1_distractors4_r.png,r,2,0,218,218,193,,,,,,,,,,,,,,,,,,,,,None,None,None,0,,None,None,None,None,None,None,None,,,,,,,,,,,,,,,,,,,,,2,001,2020_Oct_14_1430,searchDisc2,2020.2.2,59.90614432902178,
images/exp1b_trial_56_colour2_distractors31_l.png,l,1,0,219,219,152,,,,,,,,,,,,,,,,,,,,,None,None,None,0,,None,None,None,None,None,None,None,,,,,,,,,,,,,,,,,,,,,2,001,2020_Oct_14_1430,searchDisc2,2020.2.2,59.90614432902178,
images/exp1a_trial_23_colour2_distractors19_l.png,l,1,0,220,220,23,,,,,,,,,,,,,,,,,,,,,None,None,None,0,,None,None,None,None,None,None,None,,,,,,,,,,,,,,,,,,,,,2,001,2020_Oct_14_1430,searchDisc2,2020.2.2,59.90614432902178,
images/exp1b_trial_82_colour1_distractors19_l.png,l,1,0,221,221,178,,,,,,,,,,,,,,,,,,,,,None,None,None,0,,None,None,None,None,None,None,None,,,,,,,,,,,,,,,,,,,,,2,001,2020_Oct_14_1430,searchDisc2,2020.2.2,59.90614432902178,
images/exp2a_trial_53_colour2_distractors4_l.png,l,1,0,222,222,245,,,,,,,,,,,,,,,,,,,,,None,None,None,0,,None,None,None,None,None,None,None,,,,,,,,,,,,,,,,,,,,,2,001,2020_Oct_14_1430,searchDisc2,2020.2.2,59.90614432902178,
images/exp2c_trial_17_colour1_distractors9_l.png,l,1,0,223,223,401,,,,,,,,,,,,,,,,,,,,,None,None,None,0,,None,None,None,None,None,None,None,,,,,,,,,,,,,,,,,,,,,2,001,2020_Oct_14_1430,searchDisc2,2020.2.2,59.90614432902178,
images/exp2b_trial_7_colour2_distractors9_r.png,r,2,0,224,224,295,,,,,,,,,,,,,,,,,,,,,None,None,None,0,,None,None,None,None,None,None,None,,,,,,,,,,,,,,,,,,,,,2,001,2020_Oct_14_1430,searchDisc2,2020.2.2,59.90614432902178,
images/exp1a_trial_30_colour0_distractors0_r.png,r,2,0,225,225,30,,,,,,,,,,,,,,,,,,,,,None,None,None,0,,None,None,None,None,None,None,None,,,,,,,,,,,,,,,,,,,,,2,001,2020_Oct_14_1430,searchDisc2,2020.2.2,59.90614432902178,
images/exp1b_trial_43_colour3_distractors4_r.png,r,2,0,226,226,139,,,,,,,,,,,,,,,,,,,,,None,None,None,0,,None,None,None,None,None,None,None,,,,,,,,,,,,,,,,,,,,,2,001,2020_Oct_14_1430,searchDisc2,2020.2.2,59.90614432902178,
images/exp2a_trial_14_colour3_distractors31_r.png,r,2,0,227,227,206,,,,,,,,,,,,,,,,,,,,,None,None,None,0,,None,None,None,None,None,None,None,,,,,,,,,,,,,,,,,,,,,2,001,2020_Oct_14_1430,searchDisc2,2020.2.2,59.90614432902178,
images/exp1b_trial_1_colour1_distractors4_r.png,r,2,0,228,228,97,,,,,,,,,,,,,,,,,,,,,None,None,None,0,,None,None,None,None,None,None,None,,,,,,,,,,,,,,,,,,,,,2,001,2020_Oct_14_1430,searchDisc2,2020.2.2,59.90614432902178,
images/exp1b_trial_72_colour2_distractors19_r.png,r,2,0,229,229,168,,,,,,,,,,,,,,,,,,,,,None,None,None,0,,None,None,None,None,None,None,None,,,,,,,,,,,,,,,,,,,,,2,001,2020_Oct_14_1430,searchDisc2,2020.2.2,59.90614432902178,
images/exp1a_trial_83_colour1_distractors31_l.png,l,1,0,230,230,83,,,,,,,,,,,,,,,,,,,,,None,None,None,0,,None,None,None,None,None,None,None,,,,,,,,,,,,,,,,,,,,,2,001,2020_Oct_14_1430,searchDisc2,2020.2.2,59.90614432902178,
images/exp2a_trial_83_colour1_distractors31_l.png,l,1,0,231,231,275,,,,,,,,,,,,,,,,,,,,,None,None,None,0,,None,None,None,None,None,None,None,,,,,,,,,,,,,,,,,,,,,2,001,2020_Oct_14_1430,searchDisc2,2020.2.2,59.90614432902178,
images/exp2c_trial_30_colour0_distractors0_r.png,l,1,0,232,232,414,,,,,,,,,,,,,,,,,,,,,None,None,None,0,,None,None,None,None,None,None,None,,,,,,,,,,,,,,,,,,,,,2,001,2020_Oct_14_1430,searchDisc2,2020.2.2,59.90614432902178,
images/exp2c_trial_32_colour1_distractors1_r.png,r,2,0,233,233,416,,,,,,,,,,,,,,,,,,,,,None,None,None,0,,None,None,None,None,None,None,None,,,,,,,,,,,,,,,,,,,,,2,001,2020_Oct_14_1430,searchDisc2,2020.2.2,59.90614432902178,
images/exp1b_trial_49_colour1_distractors9_l.png,l,1,0,234,234,145,,,,,,,,,,,,,,,,,,,,,None,None,None,0,,None,None,None,None,None,None,None,,,,,,,,,,,,,,,,,,,,,2,001,2020_Oct_14_1430,searchDisc2,2020.2.2,59.90614432902178,
images/exp1b_trial_50_colour1_distractors19_l.png,l,1,0,235,235,146,,,,,,,,,,,,,,,,,,,,,None,None,None,0,,None,None,None,None,None,None,None,,,,,,,,,,,,,,,,,,,,,2,001,2020_Oct_14_1430,searchDisc2,2020.2.2,59.90614432902178,
images/exp2c_trial_47_colour1_distractors1_l.png,l,1,0,236,236,431,,,,,,,,,,,,,,,,,,,,,None,None,None,0,,None,None,None,None,None,None,None,,,,,,,,,,,,,,,,,,,,,2,001,2020_Oct_14_1430,searchDisc2,2020.2.2,59.90614432902178,
images/exp2c_trial_13_colour3_distractors19_r.png,r,2,0,237,237,397,,,,,,,,,,,,,,,,,,,,,None,None,None,0,,None,None,None,None,None,None,None,,,,,,,,,,,,,,,,,,,,,2,001,2020_Oct_14_1430,searchDisc2,2020.2.2,59.90614432902178,
images/exp2a_trial_32_colour1_distractors1_r.png,r,2,0,238,238,224,,,,,,,,,,,,,,,,,,,,,None,None,None,0,,None,None,None,None,None,None,None,,,,,,,,,,,,,,,,,,,,,2,001,2020_Oct_14_1430,searchDisc2,2020.2.2,59.90614432902178,
images/exp2a_trial_88_colour2_distractors31_l.png,l,1,0,239,239,280,,,,,,,,,,,,,,,,,,,,,None,None,None,0,,None,None,None,None,None,None,None,,,,,,,,,,,,,,,,,,,,,2,001,2020_Oct_14_1430,searchDisc2,2020.2.2,59.90614432902178,
images/exp2b_trial_24_colour2_distractors31_l.png,l,1,0,240,240,312,,,,,,,,,,,,,,,,,,,,,None,None,None,0,,None,None,None,None,None,None,None,,,,,,,,,,,,,,,,,,,,,2,001,2020_Oct_14_1430,searchDisc2,2020.2.2,59.90614432902178,
images/exp1a_trial_70_colour2_distractors4_r.png,r,2,0,241,241,70,,,,,,,,,,,,,,,,,,,,,None,None,None,0,,None,None,None,None,None,None,None,,,,,,,,,,,,,,,,,,,,,2,001,2020_Oct_14_1430,searchDisc2,2020.2.2,59.90614432902178,
images/exp2b_trial_49_colour1_distractors9_l.png,l,1,0,242,242,337,,,,,,,,,,,,,,,,,,,,,None,None,None,0,,None,None,None,None,None,None,None,,,,,,,,,,,,,,,,,,,,,2,001,2020_Oct_14_1430,searchDisc2,2020.2.2,59.90614432902178,
images/exp2c_trial_9_colour2_distractors31_r.png,r,2,0,243,243,393,,,,,,,,,,,,,,,,,,,,,None,None,None,0,,None,None,None,None,None,None,None,,,,,,,,,,,,,,,,,,,,,2,001,2020_Oct_14_1430,searchDisc2,2020.2.2,59.90614432902178,
images/exp2c_trial_40_colour2_distractors19_r.png,r,2,0,244,244,424,,,,,,,,,,,,,,,,,,,,,None,None,None,0,,None,None,None,None,None,None,None,,,,,,,,,,,,,,,,,,,,,2,001,2020_Oct_14_1430,searchDisc2,2020.2.2,59.90614432902178,
images/exp2b_trial_76_colour3_distractors9_r.png,r,2,0,245,245,364,,,,,,,,,,,,,,,,,,,,,None,None,None,0,,None,None,None,None,None,None,None,,,,,,,,,,,,,,,,,,,,,2,001,2020_Oct_14_1430,searchDisc2,2020.2.2,59.90614432902178,
images/exp2b_trial_67_colour1_distractors19_r.png,r,2,0,246,246,355,,,,,,,,,,,,,,,,,,,,,None,None,None,0,,None,None,None,None,None,None,None,,,,,,,,,,,,,,,,,,,,,2,001,2020_Oct_14_1430,searchDisc2,2020.2.2,59.90614432902178,
images/exp2c_trial_4_colour1_distractors31_r.png,r,2,0,247,247,388,,,,,,,,,,,,,,,,,,,,,None,None,None,0,,None,None,None,None,None,None,None,,,,,,,,,,,,,,,,,,,,,2,001,2020_Oct_14_1430,searchDisc2,2020.2.2,59.90614432902178,
images/exp2b_trial_70_colour2_distractors4_r.png,r,2,0,248,248,358,,,,,,,,,,,,,,,,,,,,,None,None,None,0,,None,None,None,None,None,None,None,,,,,,,,,,,,,,,,,,,,,2,001,2020_Oct_14_1430,searchDisc2,2020.2.2,59.90614432902178,
images/exp2a_trial_21_colour2_distractors4_l.png,l,1,0,249,249,213,,,,,,,,,,,,,,,,,,,,,None,None,None,0,,None,None,None,None,None,None,None,,,,,,,,,,,,,,,,,,,,,2,001,2020_Oct_14_1430,searchDisc2,2020.2.2,59.90614432902178,
images/exp1a_trial_73_colour2_distractors31_r.png,r,2,0,250,250,73,,,,,,,,,,,,,,,,,,,,,None,None,None,0,,None,None,None,None,None,None,None,,,,,,,,,,,,,,,,,,,,,2,001,2020_Oct_14_1430,searchDisc2,2020.2.2,59.90614432902178,
images/exp2a_trial_26_colour3_distractors4_l.png,l,1,0,251,251,218,,,,,,,,,,,,,,,,,,,,,None,None,None,0,,None,None,None,None,None,None,None,,,,,,,,,,,,,,,,,,,,,2,001,2020_Oct_14_1430,searchDisc2,2020.2.2,59.90614432902178,
images/exp2c_trial_49_colour1_distractors9_l.png,l,1,0,252,252,433,,,,,,,,,,,,,,,,,,,,,None,None,None,0,,None,None,None,None,None,None,None,,,,,,,,,,,,,,,,,,,,,2,001,2020_Oct_14_1430,searchDisc2,2020.2.2,59.90614432902178,
images/exp2c_trial_66_colour1_distractors9_r.png,r,2,0,253,253,450,,,,,,,,,,,,,,,,,,,,,None,None,None,0,,None,None,None,None,None,None,None,,,,,,,,,,,,,,,,,,,,,2,001,2020_Oct_14_1430,searchDisc2,2020.2.2,59.90614432902178,
images/exp1b_trial_27_colour3_distractors9_l.png,l,1,0,254,254,123,,,,,,,,,,,,,,,,,,,,,None,None,None,0,,None,None,None,None,None,None,None,,,,,,,,,,,,,,,,,,,,,2,001,2020_Oct_14_1430,searchDisc2,2020.2.2,59.90614432902178,
images/exp1a_trial_27_colour3_distractors9_l.png,l,1,0,255,255,27,,,,,,,,,,,,,,,,,,,,,None,None,None,0,,None,None,None,None,None,None,None,,,,,,,,,,,,,,,,,,,,,2,001,2020_Oct_14_1430,searchDisc2,2020.2.2,59.90614432902178,
images/exp2b_trial_23_colour2_distractors19_l.png,l,1,0,256,256,311,,,,,,,,,,,,,,,,,,,,,None,None,None,0,,None,None,None,None,None,None,None,,,,,,,,,,,,,,,,,,,,,2,001,2020_Oct_14_1430,searchDisc2,2020.2.2,59.90614432902178,
images/exp2c_trial_29_colour3_distractors31_l.png,l,1,0,257,257,413,,,,,,,,,,,,,,,,,,,,,None,None,None,0,,None,None,None,None,None,None,None,,,,,,,,,,,,,,,,,,,,,2,001,2020_Oct_14_1430,searchDisc2,2020.2.2,59.90614432902178,
images/exp1a_trial_61_colour3_distractors31_l.png,l,1,0,258,258,61,,,,,,,,,,,,,,,,,,,,,None,None,None,0,,None,None,None,None,None,None,None,,,,,,,,,,,,,,,,,,,,,2,001,2020_Oct_14_1430,searchDisc2,2020.2.2,59.90614432902178,
images/exp1b_trial_71_colour2_distractors9_r.png,r,2,0,259,259,167,,,,,,,,,,,,,,,,,,,,,None,None,None,0,,None,None,None,None,None,None,None,,,,,,,,,,,,,,,,,,,,,2,001,2020_Oct_14_1430,searchDisc2,2020.2.2,59.90614432902178,
images/exp2b_trial_54_colour2_distractors9_l.png,l,1,0,260,260,342,,,,,,,,,,,,,,,,,,,,,None,None,None,0,,None,None,None,None,None,None,None,,,,,,,,,,,,,,,,,,,,,2,001,2020_Oct_14_1430,searchDisc2,2020.2.2,59.90614432902178,
images/exp2c_trial_35_colour1_distractors19_r.png,r,2,0,261,261,419,,,,,,,,,,,,,,,,,,,,,None,None,None,0,,None,None,None,None,None,None,None,,,,,,,,,,,,,,,,,,,,,2,001,2020_Oct_14_1430,searchDisc2,2020.2.2,59.90614432902178,
images/exp1a_trial_77_colour3_distractors19_r.png,r,2,0,262,262,77,,,,,,,,,,,,,,,,,,,,,None,None,None,0,,None,None,None,None,None,None,None,,,,,,,,,,,,,,,,,,,,,2,001,2020_Oct_14_1430,searchDisc2,2020.2.2,59.90614432902178,
images/exp1b_trial_18_colour1_distractors19_l.png,l,1,0,263,263,114,,,,,,,,,,,,,,,,,,,,,None,None,None,0,,None,None,None,None,None,None,None,,,,,,,,,,,,,,,,,,,,,2,001,2020_Oct_14_1430,searchDisc2,2020.2.2,59.90614432902178,
images/exp2b_trial_92_colour3_distractors19_l.png,l,1,0,264,264,380,,,,,,,,,,,,,,,,,,,,,None,None,None,0,,None,None,None,None,None,None,None,,,,,,,,,,,,,,,,,,,,,2,001,2020_Oct_14_1430,searchDisc2,2020.2.2,59.90614432902178,
images/exp2b_trial_29_colour3_distractors31_l.png,l,1,0,265,265,317,,,,,,,,,,,,,,,,,,,,,None,None,None,0,,None,None,None,None,None,None,None,,,,,,,,,,,,,,,,,,,,,2,001,2020_Oct_14_1430,searchDisc2,2020.2.2,59.90614432902178,
images/exp2c_trial_24_colour2_distractors31_l.png,l,1,0,266,266,408,,,,,,,,,,,,,,,,,,,,,None,None,None,0,,None,None,None,None,None,None,None,,,,,,,,,,,,,,,,,,,,,2,001,2020_Oct_14_1430,searchDisc2,2020.2.2,59.90614432902178,
images/exp1b_trial_88_colour2_distractors31_l.png,l,1,0,267,267,184,,,,,,,,,,,,,,,,,,,,,None,None,None,0,,None,None,None,None,None,None,None,,,,,,,,,,,,,,,,,,,,,2,001,2020_Oct_14_1430,searchDisc2,2020.2.2,59.90614432902178,
images/exp2b_trial_10_colour3_distractors1_r.png,r,2,0,268,268,298,,,,,,,,,,,,,,,,,,,,,None,None,None,0,,None,None,None,None,None,None,None,,,,,,,,,,,,,,,,,,,,,2,001,2020_Oct_14_1430,searchDisc2,2020.2.2,59.90614432902178,
images/exp1b_trial_30_colour0_distractors0_r.png,r,2,0,269,269,126,,,,,,,,,,,,,,,,,,,,,None,None,None,0,,None,None,None,None,None,None,None,,,,,,,,,,,,,,,,,,,,,2,001,2020_Oct_14_1430,searchDisc2,2020.2.2,59.90614432902178,
images/exp2b_trial_5_colour2_distractors1_r.png,r,2,0,270,270,293,,,,,,,,,,,,,,,,,,,,,None,None,None,0,,None,None,None,None,None,None,None,,,,,,,,,,,,,,,,,,,,,2,001,2020_Oct_14_1430,searchDisc2,2020.2.2,59.90614432902178,
images/exp1a_trial_60_colour3_distractors19_l.png,l,1,0,271,271,60,,,,,,,,,,,,,,,,,,,,,None,None,None,0,,None,None,None,None,None,None,None,,,,,,,,,,,,,,,,,,,,,2,001,2020_Oct_14_1430,searchDisc2,2020.2.2,59.90614432902178,
images/exp2a_trial_69_colour2_distractors1_r.png,r,2,0,272,272,261,,,,,,,,,,,,,,,,,,,,,None,None,None,0,,None,None,None,None,None,None,None,,,,,,,,,,,,,,,,,,,,,2,001,2020_Oct_14_1430,searchDisc2,2020.2.2,59.90614432902178,
images/exp2c_trial_18_colour1_distractors19_l.png,l,1,0,273,273,402,,,,,,,,,,,,,,,,,,,,,None,None,None,0,,None,None,None,None,None,None,None,,,,,,,,,,,,,,,,,,,,,2,001,2020_Oct_14_1430,searchDisc2,2020.2.2,59.90614432902178,
images/exp2c_trial_55_colour2_distractors19_l.png,l,1,0,274,274,439,,,,,,,,,,,,,,,,,,,,,None,None,None,0,,None,None,None,None,None,None,None,,,,,,,,,,,,,,,,,,,,,2,001,2020_Oct_14_1430,searchDisc2,2020.2.2,59.90614432902178,
images/exp2c_trial_52_colour2_distractors1_l.png,l,1,0,275,275,436,,,,,,,,,,,,,,,,,,,,,None,None,None,0,,None,None,None,None,None,None,None,,,,,,,,,,,,,,,,,,,,,2,001,2020_Oct_14_1430,searchDisc2,2020.2.2,59.90614432902178,
images/exp2c_trial_45_colour3_distractors19_r.png,r,2,0,276,276,429,,,,,,,,,,,,,,,,,,,,,None,None,None,0,,None,None,None,None,None,None,None,,,,,,,,,,,,,,,,,,,,,2,001,2020_Oct_14_1430,searchDisc2,2020.2.2,59.90614432902178,
images/exp2a_trial_75_colour3_distractors4_r.png,r,2,0,277,277,267,,,,,,,,,,,,,,,,,,,,,None,None,None,0,,None,None,None,None,None,None,None,,,,,,,,,,,,,,,,,,,,,2,001,2020_Oct_14_1430,searchDisc2,2020.2.2,59.90614432902178,
images/exp1a_trial_31_colour0_distractors0_l.png,l,1,0,278,278,31,,,,,,,,,,,,,,,,,,,,,None,None,None,0,,None,None,None,None,None,None,None,,,,,,,,,,,,,,,,,,,,,2,001,2020_Oct_14_1430,searchDisc2,2020.2.2,59.90614432902178,
images/exp2a_trial_58_colour3_distractors4_l.png,l,1,0,279,279,250,,,,,,,,,,,,,,,,,,,,,None,None,None,0,,None,None,None,None,None,None,None,,,,,,,,,,,,,,,,,,,,,2,001,2020_Oct_14_1430,searchDisc2,2020.2.2,59.90614432902178,
images/exp2c_trial_27_colour3_distractors9_l.png,l,1,0,280,280,411,,,,,,,,,,,,,,,,,,,,,None,None,None,0,,None,None,None,None,None,None,None,,,,,,,,,,,,,,,,,,,,,2,001,2020_Oct_14_1430,searchDisc2,2020.2.2,59.90614432902178,
images/exp2b_trial_17_colour1_distractors9_l.png,l,1,0,281,281,305,,,,,,,,,,,,,,,,,,,,,None,None,None,0,,None,None,None,None,None,None,None,,,,,,,,,,,,,,,,,,,,,2,001,2020_Oct_14_1430,searchDisc2,2020.2.2,59.90614432902178,
images/exp1b_trial_91_colour3_distractors9_l.png,l,1,0,282,282,187,,,,,,,,,,,,,,,,,,,,,None,None,None,0,,None,None,None,None,None,None,None,,,,,,,,,,,,,,,,,,,,,2,001,2020_Oct_14_1430,searchDisc2,2020.2.2,59.90614432902178,
images/exp2c_trial_83_colour1_distractors31_l.png,l,1,0,283,283,467,,,,,,,,,,,,,,,,,,,,,None,None,None,0,,None,None,None,None,None,None,None,,,,,,,,,,,,,,,,,,,,,2,001,2020_Oct_14_1430,searchDisc2,2020.2.2,59.90614432902178,
images/exp1a_trial_29_colour3_distractors31_l.png,l,1,0,284,284,29,,,,,,,,,,,,,,,,,,,,,None,None,None,0,,None,None,None,None,None,None,None,,,,,,,,,,,,,,,,,,,,,2,001,2020_Oct_14_1430,searchDisc2,2020.2.2,59.90614432902178,
images/exp2a_trial_82_colour1_distractors19_l.png,l,1,0,285,285,274,,,,,,,,,,,,,,,,,,,,,None,None,None,0,,None,None,None,None,None,None,None,,,,,,,,,,,,,,,,,,,,,2,001,2020_Oct_14_1430,searchDisc2,2020.2.2,59.90614432902178,
images/exp2b_trial_75_colour3_distractors4_r.png,r,2,0,286,286,363,,,,,,,,,,,,,,,,,,,,,None,None,None,0,,None,None,None,None,None,None,None,,,,,,,,,,,,,,,,,,,,,2,001,2020_Oct_14_1430,searchDisc2,2020.2.2,59.90614432902178,
images/exp1b_trial_32_colour1_distractors1_r.png,r,2,0,287,287,128,,,,,,,,,,,,,,,,,,,,,None,None,None,0,,None,None,None,None,None,None,None,,,,,,,,,,,,,,,,,,,,,2,001,2020_Oct_14_1430,searchDisc2,2020.2.2,59.90614432902178,
images/exp2a_trial_90_colour3_distractors4_l.png,l,1,0,288,288,282,,,,,,,,,,,,,,,,,,,,,None,None,None,0,,None,None,None,None,None,None,None,,,,,,,,,,,,,,,,,,,,,2,001,2020_Oct_14_1430,searchDisc2,2020.2.2,59.90614432902178,
images/exp2a_trial_23_colour2_distractors19_l.png,l,1,0,289,289,215,,,,,,,,,,,,,,,,,,,,,None,None,None,0,,None,None,None,None,None,None,None,,,,,,,,,,,,,,,,,,,,,2,001,2020_Oct_14_1430,searchDisc2,2020.2.2,59.90614432902178,
images/exp2b_trial_56_colour2_distractors31_l.png,l,1,0,290,290,344,,,,,,,,,,,,,,,,,,,,,None,None,None,0,,None,None,None,None,None,None,None,,,,,,,,,,,,,,,,,,,,,2,001,2020_Oct_14_1430,searchDisc2,2020.2.2,59.90614432902178,
images/exp2c_trial_84_colour2_distractors1_l.png,l,1,0,291,291,468,,,,,,,,,,,,,,,,,,,,,None,None,None,0,,None,None,None,None,None,None,None,,,,,,,,,,,,,,,,,,,,,2,001,2020_Oct_14_1430,searchDisc2,2020.2.2,59.90614432902178,
images/exp2a_trial_89_colour3_distractors1_l.png,l,1,0,292,292,281,,,,,,,,,,,,,,,,,,,,,None,None,None,0,,None,None,None,None,None,None,None,,,,,,,,,,,,,,,,,,,,,2,001,2020_Oct_14_1430,searchDisc2,2020.2.2,59.90614432902178,
images/exp2b_trial_80_colour1_distractors4_l.png,l,1,0,293,293,368,,,,,,,,,,,,,,,,,,,,,None,None,None,0,,None,None,None,None,None,None,None,,,,,,,,,,,,,,,,,,,,,2,001,2020_Oct_14_1430,searchDisc2,2020.2.2,59.90614432902178,
images/exp1b_trial_53_colour2_distractors4_l.png,l,1,0,294,294,149,,,,,,,,,,,,,,,,,,,,,None,None,None,0,,None,None,None,None,None,None,None,,,,,,,,,,,,,,,,,,,,,2,001,2020_Oct_14_1430,searchDisc2,2020.2.2,59.90614432902178,
images/exp1a_trial_72_colour2_distractors19_r.png,r,2,0,295,295,72,,,,,,,,,,,,,,,,,,,,,None,None,None,0,,None,None,None,None,None,None,None,,,,,,,,,,,,,,,,,,,,,2,001,2020_Oct_14_1430,searchDisc2,2020.2.2,59.90614432902178,
images/exp1b_trial_14_colour3_distractors31_r.png,r,2,0,296,296,110,,,,,,,,,,,,,,,,,,,,,None,None,None,0,,None,None,None,None,None,None,None,,,,,,,,,,,,,,,,,,,,,2,001,2020_Oct_14_1430,searchDisc2,2020.2.2,59.90614432902178,
images/exp2c_trial_21_colour2_distractors4_l.png,l,1,0,297,297,405,,,,,,,,,,,,,,,,,,,,,None,None,None,0,,None,None,None,None,None,None,None,,,,,,,,,,,,,,,,,,,,,2,001,2020_Oct_14_1430,searchDisc2,2020.2.2,59.90614432902178,
images/exp1a_trial_52_colour2_distractors1_l.png,l,1,0,298,298,52,,,,,,,,,,,,,,,,,,,,,None,None,None,0,,None,None,None,None,None,None,None,,,,,,,,,,,,,,,,,,,,,2,001,2020_Oct_14_1430,searchDisc2,2020.2.2,59.90614432902178,
images/exp1a_trial_56_colour2_distractors31_l.png,l,1,0,299,299,56,,,,,,,,,,,,,,,,,,,,,None,None,None,0,,None,None,None,None,None,None,None,,,,,,,,,,,,,,,,,,,,,2,001,2020_Oct_14_1430,searchDisc2,2020.2.2,59.90614432902178,
images/exp2a_trial_67_colour1_distractors19_r.png,r,2,0,300,300,259,,,,,,,,,,,,,,,,,,,,,None,None,None,0,,None,None,None,None,None,None,None,,,,,,,,,,,,,,,,,,,,,2,001,2020_Oct_14_1430,searchDisc2,2020.2.2,59.90614432902178,
images/exp2b_trial_62_colour0_distractors0_r.png,r,2,0,301,301,350,,,,,,,,,,,,,,,,,,,,,None,None,None,0,,None,None,None,None,None,None,None,,,,,,,,,,,,,,,,,,,,,2,001,2020_Oct_14_1430,searchDisc2,2020.2.2,59.90614432902178,
images/exp2b_trial_64_colour1_distractors1_r.png,r,2,0,302,302,352,,,,,,,,,,,,,,,,,,,,,None,None,None,0,,None,None,None,None,None,None,None,,,,,,,,,,,,,,,,,,,,,2,001,2020_Oct_14_1430,searchDisc2,2020.2.2,59.90614432902178,
images/exp2a_trial_17_colour1_distractors9_l.png,l,1,0,303,303,209,,,,,,,,,,,,,,,,,,,,,None,None,None,0,,None,None,None,None,None,None,None,,,,,,,,,,,,,,,,,,,,,2,001,2020_Oct_14_1430,searchDisc2,2020.2.2,59.90614432902178,
images/exp1a_trial_9_colour2_distractors31_r.png,r,2,0,304,304,9,,,,,,,,,,,,,,,,,,,,,None,None,None,0,,None,None,None,None,None,None,None,,,,,,,,,,,,,,,,,,,,,2,001,2020_Oct_14_1430,searchDisc2,2020.2.2,59.90614432902178,
images/exp2a_trial_2_colour1_distractors9_r.png,r,2,0,305,305,194,,,,,,,,,,,,,,,,,,,,,None,None,None,0,,None,None,None,None,None,None,None,,,,,,,,,,,,,,,,,,,,,2,001,2020_Oct_14_1430,searchDisc2,2020.2.2,59.90614432902178,
images/exp1b_trial_7_colour2_distractors9_r.png,r,2,0,306,306,103,,,,,,,,,,,,,,,,,,,,,None,None,None,0,,None,None,None,None,None,None,None,,,,,,,,,,,,,,,,,,,,,2,001,2020_Oct_14_1430,searchDisc2,2020.2.2,59.90614432902178,
images/exp2b_trial_27_colour3_distractors9_l.png,l,1,0,307,307,315,,,,,,,,,,,,,,,,,,,,,None,None,None,0,,None,None,None,None,None,None,None,,,,,,,,,,,,,,,,,,,,,2,001,2020_Oct_14_1430,searchDisc2,2020.2.2,59.90614432902178,
images/exp2b_trial_32_colour1_distractors1_r.png,r,2,0,308,308,320,,,,,,,,,,,,,,,,,,,,,None,None,None,0,,None,None,None,None,None,None,None,,,,,,,,,,,,,,,,,,,,,2,001,2020_Oct_14_1430,searchDisc2,2020.2.2,59.90614432902178,
images/exp1b_trial_19_colour1_distractors31_l.png,l,1,0,309,309,115,,,,,,,,,,,,,,,,,,,,,None,None,None,0,,None,None,None,None,None,None,None,,,,,,,,,,,,,,,,,,,,,2,001,2020_Oct_14_1430,searchDisc2,2020.2.2,59.90614432902178,
images/exp1b_trial_63_colour0_distractors0_l.png,l,1,0,310,310,159,,,,,,,,,,,,,,,,,,,,,None,None,None,0,,None,None,None,None,None,None,None,,,,,,,,,,,,,,,,,,,,,2,001,2020_Oct_14_1430,searchDisc2,2020.2.2,59.90614432902178,
images/exp2c_trial_8_colour2_distractors19_r.png,r,2,0,311,311,392,,,,,,,,,,,,,,,,,,,,,None,None,None,0,,None,None,None,None,None,None,None,,,,,,,,,,,,,,,,,,,,,2,001,2020_Oct_14_1430,searchDisc2,2020.2.2,59.90614432902178,
images/exp2c_trial_73_colour2_distractors31_r.png,r,2,0,312,312,457,,,,,,,,,,,,,,,,,,,,,None,None,None,0,,None,None,None,None,None,None,None,,,,,,,,,,,,,,,,,,,,,2,001,2020_Oct_14_1430,searchDisc2,2020.2.2,59.90614432902178,
images/exp2a_trial_74_colour3_distractors1_r.png,r,2,0,313,313,266,,,,,,,,,,,,,,,,,,,,,None,None,None,0,,None,None,None,None,None,None,None,,,,,,,,,,,,,,,,,,,,,2,001,2020_Oct_14_1430,searchDisc2,2020.2.2,59.90614432902178,
images/exp2a_trial_49_colour1_distractors9_l.png,l,1,0,314,314,241,,,,,,,,,,,,,,,,,,,,,None,None,None,0,,None,None,None,None,None,None,None,,,,,,,,,,,,,,,,,,,,,2,001,2020_Oct_14_1430,searchDisc2,2020.2.2,59.90614432902178,
images/exp2b_trial_77_colour3_distractors19_r.png,r,2,0,315,315,365,,,,,,,,,,,,,,,,,,,,,None,None,None,0,,None,None,None,None,None,None,None,,,,,,,,,,,,,,,,,,,,,2,001,2020_Oct_14_1430,searchDisc2,2020.2.2,59.90614432902178,
images/exp2c_trial_12_colour3_distractors9_r.png,r,2,0,316,316,396,,,,,,,,,,,,,,,,,,,,,None,None,None,0,,None,None,None,None,None,None,None,,,,,,,,,,,,,,,,,,,,,2,001,2020_Oct_14_1430,searchDisc2,2020.2.2,59.90614432902178,
images/exp1b_trial_60_colour3_distractors19_l.png,l,1,0,317,317,156,,,,,,,,,,,,,,,,,,,,,None,None,None,0,,None,None,None,None,None,None,None,,,,,,,,,,,,,,,,,,,,,2,001,2020_Oct_14_1430,searchDisc2,2020.2.2,59.90614432902178,
images/exp1b_trial_24_colour2_distractors31_l.png,l,1,0,318,318,120,,,,,,,,,,,,,,,,,,,,,None,None,None,0,,None,None,None,None,None,None,None,,,,,,,,,,,,,,,,,,,,,2,001,2020_Oct_14_1430,searchDisc2,2020.2.2,59.90614432902178,
images/exp1b_trial_36_colour1_distractors31_r.png,r,2,0,319,319,132,,,,,,,,,,,,,,,,,,,,,None,None,None,0,,None,None,None,None,None,None,None,,,,,,,,,,,,,,,,,,,,,2,001,2020_Oct_14_1430,searchDisc2,2020.2.2,59.90614432902178,
images/exp2b_trial_89_colour3_distractors1_l.png,l,1,0,320,320,377,,,,,,,,,,,,,,,,,,,,,None,None,None,0,,None,None,None,None,None,None,None,,,,,,,,,,,,,,,,,,,,,2,001,2020_Oct_14_1430,searchDisc2,2020.2.2,59.90614432902178,
images/exp1b_trial_25_colour3_distractors1_l.png,l,1,0,321,321,121,,,,,,,,,,,,,,,,,,,,,None,None,None,0,,None,None,None,None,None,None,None,,,,,,,,,,,,,,,,,,,,,2,001,2020_Oct_14_1430,searchDisc2,2020.2.2,59.90614432902178,
images/exp2b_trial_46_colour3_distractors31_r.png,r,2,0,322,322,334,,,,,,,,,,,,,,,,,,,,,None,None,None,0,,None,None,None,None,None,None,None,,,,,,,,,,,,,,,,,,,,,2,001,2020_Oct_14_1430,searchDisc2,2020.2.2,59.90614432902178,
images/exp2c_trial_79_colour1_distractors1_l.png,l,1,0,323,323,463,,,,,,,,,,,,,,,,,,,,,None,None,None,0,,None,None,None,None,None,None,None,,,,,,,,,,,,,,,,,,,,,2,001,2020_Oct_14_1430,searchDisc2,2020.2.2,59.90614432902178,
images/exp1a_trial_62_colour0_distractors0_r.png,r,2,0,324,324,62,,,,,,,,,,,,,,,,,,,,,None,None,None,0,,None,None,None,None,None,None,None,,,,,,,,,,,,,,,,,,,,,2,001,2020_Oct_14_1430,searchDisc2,2020.2.2,59.90614432902178,
images/exp2a_trial_63_colour0_distractors0_l.png,l,1,0,325,325,255,,,,,,,,,,,,,,,,,,,,,None,None,None,0,,None,None,None,None,None,None,None,,,,,,,,,,,,,,,,,,,,,2,001,2020_Oct_14_1430,searchDisc2,2020.2.2,59.90614432902178,
images/exp1a_trial_63_colour0_distractors0_l.png,l,1,0,326,326,63,,,,,,,,,,,,,,,,,,,,,None,None,None,0,,None,None,None,None,None,None,None,,,,,,,,,,,,,,,,,,,,,2,001,2020_Oct_14_1430,searchDisc2,2020.2.2,59.90614432902178,
images/exp2b_trial_52_colour2_distractors1_l.png,l,1,0,327,327,340,,,,,,,,,,,,,,,,,,,,,None,None,None,0,,None,None,None,None,None,None,None,,,,,,,,,,,,,,,,,,,,,2,001,2020_Oct_14_1430,searchDisc2,2020.2.2,59.90614432902178,
images/exp1a_trial_21_colour2_distractors4_l.png,l,1,0,328,328,21,,,,,,,,,,,,,,,,,,,,,None,None,None,0,,None,None,None,None,None,None,None,,,,,,,,,,,,,,,,,,,,,2,001,2020_Oct_14_1430,searchDisc2,2020.2.2,59.90614432902178,
images/exp2c_trial_86_colour2_distractors9_l.png,l,1,0,329,329,470,,,,,,,,,,,,,,,,,,,,,None,None,None,0,,None,None,None,None,None,None,None,,,,,,,,,,,,,,,,,,,,,2,001,2020_Oct_14_1430,searchDisc2,2020.2.2,59.90614432902178,
images/exp1b_trial_57_colour3_distractors1_l.png,l,1,0,330,330,153,,,,,,,,,,,,,,,,,,,,,None,None,None,0,,None,None,None,None,None,None,None,,,,,,,,,,,,,,,,,,,,,2,001,2020_Oct_14_1430,searchDisc2,2020.2.2,59.90614432902178,
images/exp2b_trial_11_colour3_distractors4_r.png,r,2,0,331,331,299,,,,,,,,,,,,,,,,,,,,,None,None,None,0,,None,None,None,None,None,None,None,,,,,,,,,,,,,,,,,,,,,2,001,2020_Oct_14_1430,searchDisc2,2020.2.2,59.90614432902178,
images/exp2c_trial_57_colour3_distractors1_l.png,l,1,0,332,332,441,,,,,,,,,,,,,,,,,,,,,None,None,None,0,,None,None,None,None,None,None,None,,,,,,,,,,,,,,,,,,,,,2,001,2020_Oct_14_1430,searchDisc2,2020.2.2,59.90614432902178,
images/exp1a_trial_35_colour1_distractors19_r.png,r,2,0,333,333,35,,,,,,,,,,,,,,,,,,,,,None,None,None,0,,None,None,None,None,None,None,None,,,,,,,,,,,,,,,,,,,,,2,001,2020_Oct_14_1430,searchDisc2,2020.2.2,59.90614432902178,
images/exp2a_trial_13_colour3_distractors19_r.png,r,2,0,334,334,205,,,,,,,,,,,,,,,,,,,,,None,None,None,0,,None,None,None,None,None,None,None,,,,,,,,,,,,,,,,,,,,,2,001,2020_Oct_14_1430,searchDisc2,2020.2.2,59.90614432902178,
images/exp1a_trial_92_colour3_distractors19_l.png,l,1,0,335,335,92,,,,,,,,,,,,,,,,,,,,,None,None,None,0,,None,None,None,None,None,None,None,,,,,,,,,,,,,,,,,,,,,2,001,2020_Oct_14_1430,searchDisc2,2020.2.2,59.90614432902178,
images/exp2b_trial_95_colour0_distractors0_l.png,l,1,0,336,336,383,,,,,,,,,,,,,,,,,,,,,None,None,None,0,,None,None,None,None,None,None,None,,,,,,,,,,,,,,,,,,,,,2,001,2020_Oct_14_1430,searchDisc2,2020.2.2,59.90614432902178,
images/exp1a_trial_14_colour3_distractors31_r.png,r,2,0,337,337,14,,,,,,,,,,,,,,,,,,,,,None,None,None,0,,None,None,None,None,None,None,None,,,,,,,,,,,,,,,,,,,,,2,001,2020_Oct_14_1430,searchDisc2,2020.2.2,59.90614432902178,
images/exp2c_trial_69_colour2_distractors1_r.png,r,2,0,338,338,453,,,,,,,,,,,,,,,,,,,,,None,None,None,0,,None,None,None,None,None,None,None,,,,,,,,,,,,,,,,,,,,,2,001,2020_Oct_14_1430,searchDisc2,2020.2.2,59.90614432902178,
images/exp2c_trial_63_colour0_distractors0_l.png,l,1,0,339,339,447,,,,,,,,,,,,,,,,,,,,,None,None,None,0,,None,None,None,None,None,None,None,,,,,,,,,,,,,,,,,,,,,2,001,2020_Oct_14_1430,searchDisc2,2020.2.2,59.90614432902178,
images/exp2c_trial_65_colour1_distractors4_r.png,r,2,0,340,340,449,,,,,,,,,,,,,,,,,,,,,None,None,None,0,,None,None,None,None,None,None,None,,,,,,,,,,,,,,,,,,,,,2,001,2020_Oct_14_1430,searchDisc2,2020.2.2,59.90614432902178,
images/exp2b_trial_69_colour2_distractors1_r.png,r,2,0,341,341,357,,,,,,,,,,,,,,,,,,,,,None,None,None,0,,None,None,None,None,None,None,None,,,,,,,,,,,,,,,,,,,,,2,001,2020_Oct_14_1430,searchDisc2,2020.2.2,59.90614432902178,
images/exp2a_trial_4_colour1_distractors31_r.png,r,2,0,342,342,196,,,,,,,,,,,,,,,,,,,,,None,None,None,0,,None,None,None,None,None,None,None,,,,,,,,,,,,,,,,,,,,,2,001,2020_Oct_14_1430,searchDisc2,2020.2.2,59.90614432902178,
images/exp1b_trial_68_colour1_distractors31_r.png,r,2,0,343,343,164,,,,,,,,,,,,,,,,,,,,,None,None,None,0,,None,None,None,None,None,None,None,,,,,,,,,,,,,,,,,,,,,2,001,2020_Oct_14_1430,searchDisc2,2020.2.2,59.90614432902178,
images/exp2b_trial_18_colour1_distractors19_l.png,l,1,0,344,344,306,,,,,,,,,,,,,,,,,,,,,None,None,None,0,,None,None,None,None,None,None,None,,,,,,,,,,,,,,,,,,,,,2,001,2020_Oct_14_1430,searchDisc2,2020.2.2,59.90614432902178,
images/exp2a_trial_43_colour3_distractors4_r.png,r,2,0,345,345,235,,,,,,,,,,,,,,,,,,,,,None,None,None,0,,None,None,None,None,None,None,None,,,,,,,,,,,,,,,,,,,,,2,001,2020_Oct_14_1430,searchDisc2,2020.2.2,59.90614432902178,
images/exp1b_trial_77_colour3_distractors19_r.png,r,2,0,346,346,173,,,,,,,,,,,,,,,,,,,,,None,None,None,0,,None,None,None,None,None,None,None,,,,,,,,,,,,,,,,,,,,,2,001,2020_Oct_14_1430,searchDisc2,2020.2.2,59.90614432902178,
images/exp2c_trial_76_colour3_distractors9_r.png,r,2,0,347,347,460,,,,,,,,,,,,,,,,,,,,,None,None,None,0,,None,None,None,None,None,None,None,,,,,,,,,,,,,,,,,,,,,2,001,2020_Oct_14_1430,searchDisc2,2020.2.2,59.90614432902178,
images/exp2b_trial_13_colour3_distractors19_r.png,r,2,0,348,348,301,,,,,,,,,,,,,,,,,,,,,None,None,None,0,,None,None,None,None,None,None,None,,,,,,,,,,,,,,,,,,,,,2,001,2020_Oct_14_1430,searchDisc2,2020.2.2,59.90614432902178,
images/exp2b_trial_38_colour2_distractors4_r.png,r,2,0,349,349,326,,,,,,,,,,,,,,,,,,,,,None,None,None,0,,None,None,None,None,None,None,None,,,,,,,,,,,,,,,,,,,,,2,001,2020_Oct_14_1430,searchDisc2,2020.2.2,59.90614432902178,
images/exp1b_trial_8_colour2_distractors19_r.png,r,2,0,350,350,104,,,,,,,,,,,,,,,,,,,,,None,None,None,0,,None,None,None,None,None,None,None,,,,,,,,,,,,,,,,,,,,,2,001,2020_Oct_14_1430,searchDisc2,2020.2.2,59.90614432902178,
images/exp1b_trial_83_colour1_distractors31_l.png,l,1,0,351,351,179,,,,,,,,,,,,,,,,,,,,,None,None,None,0,,None,None,None,None,None,None,None,,,,,,,,,,,,,,,,,,,,,2,001,2020_Oct_14_1430,searchDisc2,2020.2.2,59.90614432902178,
images/exp2c_trial_53_colour2_distractors4_l.png,l,1,0,352,352,437,,,,,,,,,,,,,,,,,,,,,None,None,None,0,,None,None,None,None,None,None,None,,,,,,,,,,,,,,,,,,,,,2,001,2020_Oct_14_1430,searchDisc2,2020.2.2,59.90614432902178,
images/exp1a_trial_12_colour3_distractors9_r.png,r,2,0,353,353,12,,,,,,,,,,,,,,,,,,,,,None,None,None,0,,None,None,None,None,None,None,None,,,,,,,,,,,,,,,,,,,,,2,001,2020_Oct_14_1430,searchDisc2,2020.2.2,59.90614432902178,
images/exp2a_trial_5_colour2_distractors1_r.png,r,2,0,354,354,197,,,,,,,,,,,,,,,,,,,,,None,None,None,0,,None,None,None,None,None,None,None,,,,,,,,,,,,,,,,,,,,,2,001,2020_Oct_14_1430,searchDisc2,2020.2.2,59.90614432902178,
images/exp2c_trial_39_colour2_distractors9_r.png,r,2,0,355,355,423,,,,,,,,,,,,,,,,,,,,,None,None,None,0,,None,None,None,None,None,None,None,,,,,,,,,,,,,,,,,,,,,2,001,2020_Oct_14_1430,searchDisc2,2020.2.2,59.90614432902178,
images/exp1a_trial_50_colour1_distractors19_l.png,l,1,0,356,356,50,,,,,,,,,,,,,,,,,,,,,None,None,None,0,,None,None,None,None,None,None,None,,,,,,,,,,,,,,,,,,,,,2,001,2020_Oct_14_1430,searchDisc2,2020.2.2,59.90614432902178,
images/exp2a_trial_95_colour0_distractors0_l.png,l,1,0,357,357,287,,,,,,,,,,,,,,,,,,,,,None,None,None,0,,None,None,None,None,None,None,None,,,,,,,,,,,,,,,,,,,,,2,001,2020_Oct_14_1430,searchDisc2,2020.2.2,59.90614432902178,
images/exp1b_trial_65_colour1_distractors4_r.png,r,2,0,358,358,161,,,,,,,,,,,,,,,,,,,,,None,None,None,0,,None,None,None,None,None,None,None,,,,,,,,,,,,,,,,,,,,,2,001,2020_Oct_14_1430,searchDisc2,2020.2.2,59.90614432902178,
images/exp1b_trial_45_colour3_distractors19_r.png,r,2,0,359,359,141,,,,,,,,,,,,,,,,,,,,,None,None,None,0,,None,None,None,None,None,None,None,,,,,,,,,,,,,,,,,,,,,2,001,2020_Oct_14_1430,searchDisc2,2020.2.2,59.90614432902178,
images/exp1a_trial_40_colour2_distractors19_r.png,r,2,0,360,360,40,,,,,,,,,,,,,,,,,,,,,None,None,None,0,,None,None,None,None,None,None,None,,,,,,,,,,,,,,,,,,,,,2,001,2020_Oct_14_1430,searchDisc2,2020.2.2,59.90614432902178,
images/exp2b_trial_60_colour3_distractors19_l.png,l,1,0,361,361,348,,,,,,,,,,,,,,,,,,,,,None,None,None,0,,None,None,None,None,None,None,None,,,,,,,,,,,,,,,,,,,,,2,001,2020_Oct_14_1430,searchDisc2,2020.2.2,59.90614432902178,
images/exp2c_trial_77_colour3_distractors19_r.png,r,2,0,362,362,461,,,,,,,,,,,,,,,,,,,,,None,None,None,0,,None,None,None,None,None,None,None,,,,,,,,,,,,,,,,,,,,,2,001,2020_Oct_14_1430,searchDisc2,2020.2.2,59.90614432902178,
images/exp2c_trial_91_colour3_distractors9_l.png,l,1,0,363,363,475,,,,,,,,,,,,,,,,,,,,,None,None,None,0,,None,None,None,None,None,None,None,,,,,,,,,,,,,,,,,,,,,2,001,2020_Oct_14_1430,searchDisc2,2020.2.2,59.90614432902178,
images/exp2b_trial_19_colour1_distractors31_l.png,l,1,0,364,364,307,,,,,,,,,,,,,,,,,,,,,None,None,None,0,,None,None,None,None,None,None,None,,,,,,,,,,,,,,,,,,,,,2,001,2020_Oct_14_1430,searchDisc2,2020.2.2,59.90614432902178,
images/exp2c_trial_28_colour3_distractors19_l.png,l,1,0,365,365,412,,,,,,,,,,,,,,,,,,,,,None,None,None,0,,None,None,None,None,None,None,None,,,,,,,,,,,,,,,,,,,,,2,001,2020_Oct_14_1430,searchDisc2,2020.2.2,59.90614432902178,
images/exp1a_trial_24_colour2_distractors31_l.png,l,1,0,366,366,24,,,,,,,,,,,,,,,,,,,,,None,None,None,0,,None,None,None,None,None,None,None,,,,,,,,,,,,,,,,,,,,,2,001,2020_Oct_14_1430,searchDisc2,2020.2.2,59.90614432902178,
images/exp2c_trial_51_colour1_distractors31_l.png,l,1,0,367,367,435,,,,,,,,,,,,,,,,,,,,,None,None,None,0,,None,None,None,None,None,None,None,,,,,,,,,,,,,,,,,,,,,2,001,2020_Oct_14_1430,searchDisc2,2020.2.2,59.90614432902178,
images/exp2a_trial_60_colour3_distractors19_l.png,l,1,0,368,368,252,,,,,,,,,,,,,,,,,,,,,None,None,None,0,,None,None,None,None,None,None,None,,,,,,,,,,,,,,,,,,,,,2,001,2020_Oct_14_1430,searchDisc2,2020.2.2,59.90614432902178,
images/exp1a_trial_59_colour3_distractors9_l.png,l,1,0,369,369,59,,,,,,,,,,,,,,,,,,,,,None,None,None,0,,None,None,None,None,None,None,None,,,,,,,,,,,,,,,,,,,,,2,001,2020_Oct_14_1430,searchDisc2,2020.2.2,59.90614432902178,
images/exp2a_trial_57_colour3_distractors1_l.png,l,1,0,370,370,249,,,,,,,,,,,,,,,,,,,,,None,None,None,0,,None,None,None,None,None,None,None,,,,,,,,,,,,,,,,,,,,,2,001,2020_Oct_14_1430,searchDisc2,2020.2.2,59.90614432902178,
images/exp2c_trial_44_colour3_distractors9_r.png,r,2,0,371,371,428,,,,,,,,,,,,,,,,,,,,,None,None,None,0,,None,None,None,None,None,None,None,,,,,,,,,,,,,,,,,,,,,2,001,2020_Oct_14_1430,searchDisc2,2020.2.2,59.90614432902178,
images/exp1b_trial_42_colour3_distractors1_r.png,r,2,0,372,372,138,,,,,,,,,,,,,,,,,,,,,None,None,None,0,,None,None,None,None,None,None,None,,,,,,,,,,,,,,,,,,,,,2,001,2020_Oct_14_1430,searchDisc2,2020.2.2,59.90614432902178,
images/exp2b_trial_41_colour2_distractors31_r.png,r,2,0,373,373,329,,,,,,,,,,,,,,,,,,,,,None,None,None,0,,None,None,None,None,None,None,None,,,,,,,,,,,,,,,,,,,,,2,001,2020_Oct_14_1430,searchDisc2,2020.2.2,59.90614432902178,
images/exp1a_trial_20_colour2_distractors1_l.png,l,1,0,374,374,20,,,,,,,,,,,,,,,,,,,,,None,None,None,0,,None,None,None,None,None,None,None,,,,,,,,,,,,,,,,,,,,,2,001,2020_Oct_14_1430,searchDisc2,2020.2.2,59.90614432902178,
images/exp1b_trial_52_colour2_distractors1_l.png,l,1,0,375,375,148,,,,,,,,,,,,,,,,,,,,,None,None,None,0,,None,None,None,None,None,None,None,,,,,,,,,,,,,,,,,,,,,2,001,2020_Oct_14_1430,searchDisc2,2020.2.2,59.90614432902178,
images/exp1a_trial_1_colour1_distractors4_r.png,r,2,0,376,376,1,,,,,,,,,,,,,,,,,,,,,None,None,None,0,,None,None,None,None,None,None,None,,,,,,,,,,,,,,,,,,,,,2,001,2020_Oct_14_1430,searchDisc2,2020.2.2,59.90614432902178,
images/exp2a_trial_45_colour3_distractors19_r.png,r,2,0,377,377,237,,,,,,,,,,,,,,,,,,,,,None,None,None,0,,None,None,None,None,None,None,None,,,,,,,,,,,,,,,,,,,,,2,001,2020_Oct_14_1430,searchDisc2,2020.2.2,59.90614432902178,
images/exp2a_trial_12_colour3_distractors9_r.png,r,2,0,378,378,204,,,,,,,,,,,,,,,,,,,,,None,None,None,0,,None,None,None,None,None,None,None,,,,,,,,,,,,,,,,,,,,,2,001,2020_Oct_14_1430,searchDisc2,2020.2.2,59.90614432902178,
images/exp2a_trial_3_colour1_distractors19_r.png,r,2,0,379,379,195,,,,,,,,,,,,,,,,,,,,,None,None,None,0,,None,None,None,None,None,None,None,,,,,,,,,,,,,,,,,,,,,2,001,2020_Oct_14_1430,searchDisc2,2020.2.2,59.90614432902178,
images/exp2b_trial_55_colour2_distractors19_l.png,l,1,0,380,380,343,,,,,,,,,,,,,,,,,,,,,None,None,None,0,,None,None,None,None,None,None,None,,,,,,,,,,,,,,,,,,,,,2,001,2020_Oct_14_1430,searchDisc2,2020.2.2,59.90614432902178,
images/exp2a_trial_9_colour2_distractors31_r.png,r,2,0,381,381,201,,,,,,,,,,,,,,,,,,,,,None,None,None,0,,None,None,None,None,None,None,None,,,,,,,,,,,,,,,,,,,,,2,001,2020_Oct_14_1430,searchDisc2,2020.2.2,59.90614432902178,
images/exp1b_trial_70_colour2_distractors4_r.png,r,2,0,382,382,166,,,,,,,,,,,,,,,,,,,,,None,None,None,0,,None,None,None,None,None,None,None,,,,,,,,,,,,,,,,,,,,,2,001,2020_Oct_14_1430,searchDisc2,2020.2.2,59.90614432902178,
images/exp1b_trial_9_colour2_distractors31_r.png,r,2,0,383,383,105,,,,,,,,,,,,,,,,,,,,,None,None,None,0,,None,None,None,None,None,None,None,,,,,,,,,,,,,,,,,,,,,2,001,2020_Oct_14_1430,searchDisc2,2020.2.2,59.90614432902178,
images/exp2c_trial_94_colour0_distractors0_r.png,r,2,0,384,384,478,,,,,,,,,,,,,,,,,,,,,None,None,None,0,,None,None,None,None,None,None,None,,,,,,,,,,,,,,,,,,,,,2,001,2020_Oct_14_1430,searchDisc2,2020.2.2,59.90614432902178,
images/exp2a_trial_47_colour1_distractors1_l.png,l,1,0,385,385,239,,,,,,,,,,,,,,,,,,,,,None,None,None,0,,None,None,None,None,None,None,None,,,,,,,,,,,,,,,,,,,,,2,001,2020_Oct_14_1430,searchDisc2,2020.2.2,59.90614432902178,
images/exp2a_trial_41_colour2_distractors31_r.png,r,2,0,386,386,233,,,,,,,,,,,,,,,,,,,,,None,None,None,0,,None,None,None,None,None,None,None,,,,,,,,,,,,,,,,,,,,,2,001,2020_Oct_14_1430,searchDisc2,2020.2.2,59.90614432902178,
images/exp2b_trial_39_colour2_distractors9_r.png,r,2,0,387,387,327,,,,,,,,,,,,,,,,,,,,,None,None,None,0,,None,None,None,None,None,None,None,,,,,,,,,,,,,,,,,,,,,2,001,2020_Oct_14_1430,searchDisc2,2020.2.2,59.90614432902178,
images/exp2b_trial_34_colour1_distractors9_r.png,r,2,0,388,388,322,,,,,,,,,,,,,,,,,,,,,None,None,None,0,,None,None,None,None,None,None,None,,,,,,,,,,,,,,,,,,,,,2,001,2020_Oct_14_1430,searchDisc2,2020.2.2,59.90614432902178,
images/exp1b_trial_16_colour1_distractors4_l.png,l,1,0,389,389,112,,,,,,,,,,,,,,,,,,,,,None,None,None,0,,None,None,None,None,None,None,None,,,,,,,,,,,,,,,,,,,,,2,001,2020_Oct_14_1430,searchDisc2,2020.2.2,59.90614432902178,
images/exp2a_trial_72_colour2_distractors19_r.png,r,2,0,390,390,264,,,,,,,,,,,,,,,,,,,,,None,None,None,0,,None,None,None,None,None,None,None,,,,,,,,,,,,,,,,,,,,,2,001,2020_Oct_14_1430,searchDisc2,2020.2.2,59.90614432902178,
images/exp2b_trial_31_colour0_distractors0_l.png,l,1,0,391,391,319,,,,,,,,,,,,,,,,,,,,,None,None,None,0,,None,None,None,None,None,None,None,,,,,,,,,,,,,,,,,,,,,2,001,2020_Oct_14_1430,searchDisc2,2020.2.2,59.90614432902178,
images/exp2b_trial_8_colour2_distractors19_r.png,r,2,0,392,392,296,,,,,,,,,,,,,,,,,,,,,None,None,None,0,,None,None,None,None,None,None,None,,,,,,,,,,,,,,,,,,,,,2,001,2020_Oct_14_1430,searchDisc2,2020.2.2,59.90614432902178,
images/exp2a_trial_48_colour1_distractors4_l.png,l,1,0,393,393,240,,,,,,,,,,,,,,,,,,,,,None,None,None,0,,None,None,None,None,None,None,None,,,,,,,,,,,,,,,,,,,,,2,001,2020_Oct_14_1430,searchDisc2,2020.2.2,59.90614432902178,
images/exp2a_trial_39_colour2_distractors9_r.png,r,2,0,394,394,231,,,,,,,,,,,,,,,,,,,,,None,None,None,0,,None,None,None,None,None,None,None,,,,,,,,,,,,,,,,,,,,,2,001,2020_Oct_14_1430,searchDisc2,2020.2.2,59.90614432902178,
images/exp1a_trial_6_colour2_distractors4_r.png,r,2,0,395,395,6,,,,,,,,,,,,,,,,,,,,,None,None,None,0,,None,None,None,None,None,None,None,,,,,,,,,,,,,,,,,,,,,2,001,2020_Oct_14_1430,searchDisc2,2020.2.2,59.90614432902178,
images/exp1b_trial_73_colour2_distractors31_r.png,r,2,0,396,396,169,,,,,,,,,,,,,,,,,,,,,None,None,None,0,,None,None,None,None,None,None,None,,,,,,,,,,,,,,,,,,,,,2,001,2020_Oct_14_1430,searchDisc2,2020.2.2,59.90614432902178,
images/exp2b_trial_44_colour3_distractors9_r.png,r,2,0,397,397,332,,,,,,,,,,,,,,,,,,,,,None,None,None,0,,None,None,None,None,None,None,None,,,,,,,,,,,,,,,,,,,,,2,001,2020_Oct_14_1430,searchDisc2,2020.2.2,59.90614432902178,
images/exp2b_trial_9_colour2_distractors31_r.png,r,2,0,398,398,297,,,,,,,,,,,,,,,,,,,,,None,None,None,0,,None,None,None,None,None,None,None,,,,,,,,,,,,,,,,,,,,,2,001,2020_Oct_14_1430,searchDisc2,2020.2.2,59.90614432902178,
images/exp2c_trial_26_colour3_distractors4_l.png,l,1,0,399,399,410,,,,,,,,,,,,,,,,,,,,,None,None,None,0,,None,None,None,None,None,None,None,,,,,,,,,,,,,,,,,,,,,2,001,2020_Oct_14_1430,searchDisc2,2020.2.2,59.90614432902178,
images/exp2b_trial_86_colour2_distractors9_l.png,l,1,0,400,400,374,,,,,,,,,,,,,,,,,,,,,None,None,None,0,,None,None,None,None,None,None,None,,,,,,,,,,,,,,,,,,,,,2,001,2020_Oct_14_1430,searchDisc2,2020.2.2,59.90614432902178,
images/exp1b_trial_78_colour3_distractors31_r.png,r,2,0,401,401,174,,,,,,,,,,,,,,,,,,,,,None,None,None,0,,None,None,None,None,None,None,None,,,,,,,,,,,,,,,,,,,,,2,001,2020_Oct_14_1430,searchDisc2,2020.2.2,59.90614432902178,
images/exp2a_trial_86_colour2_distractors9_l.png,l,1,0,402,402,278,,,,,,,,,,,,,,,,,,,,,None,None,None,0,,None,None,None,None,None,None,None,,,,,,,,,,,,,,,,,,,,,2,001,2020_Oct_14_1430,searchDisc2,2020.2.2,59.90614432902178,
images/exp2b_trial_20_colour2_distractors1_l.png,l,1,0,403,403,308,,,,,,,,,,,,,,,,,,,,,None,None,None,0,,None,None,None,None,None,None,None,,,,,,,,,,,,,,,,,,,,,2,001,2020_Oct_14_1430,searchDisc2,2020.2.2,59.90614432902178,
images/exp2c_trial_11_colour3_distractors4_r.png,r,2,0,404,404,395,,,,,,,,,,,,,,,,,,,,,None,None,None,0,,None,None,None,None,None,None,None,,,,,,,,,,,,,,,,,,,,,2,001,2020_Oct_14_1430,searchDisc2,2020.2.2,59.90614432902178,
images/exp1a_trial_19_colour1_distractors31_l.png,l,1,0,405,405,19,,,,,,,,,,,,,,,,,,,,,None,None,None,0,,None,None,None,None,None,None,None,,,,,,,,,,,,,,,,,,,,,2,001,2020_Oct_14_1430,searchDisc2,2020.2.2,59.90614432902178,
images/exp2c_trial_95_colour0_distractors0_l.png,l,1,0,406,406,479,,,,,,,,,,,,,,,,,,,,,None,None,None,0,,None,None,None,None,None,None,None,,,,,,,,,,,,,,,,,,,,,2,001,2020_Oct_14_1430,searchDisc2,2020.2.2,59.90614432902178,
images/exp2c_trial_50_colour1_distractors19_l.png,l,1,0,407,407,434,,,,,,,,,,,,,,,,,,,,,None,None,None,0,,None,None,None,None,None,None,None,,,,,,,,,,,,,,,,,,,,,2,001,2020_Oct_14_1430,searchDisc2,2020.2.2,59.90614432902178,
images/exp2b_trial_21_colour2_distractors4_l.png,l,1,0,408,408,309,,,,,,,,,,,,,,,,,,,,,None,None,None,0,,None,None,None,None,None,None,None,,,,,,,,,,,,,,,,,,,,,2,001,2020_Oct_14_1430,searchDisc2,2020.2.2,59.90614432902178,
images/exp1a_trial_84_colour2_distractors1_l.png,l,1,0,409,409,84,,,,,,,,,,,,,,,,,,,,,None,None,None,0,,None,None,None,None,None,None,None,,,,,,,,,,,,,,,,,,,,,2,001,2020_Oct_14_1430,searchDisc2,2020.2.2,59.90614432902178,
images/exp1a_trial_34_colour1_distractors9_r.png,r,2,0,410,410,34,,,,,,,,,,,,,,,,,,,,,None,None,None,0,,None,None,None,None,None,None,None,,,,,,,,,,,,,,,,,,,,,2,001,2020_Oct_14_1430,searchDisc2,2020.2.2,59.90614432902178,
images/exp2a_trial_55_colour2_distractors19_l.png,l,1,0,411,411,247,,,,,,,,,,,,,,,,,,,,,None,None,None,0,,None,None,None,None,None,None,None,,,,,,,,,,,,,,,,,,,,,2,001,2020_Oct_14_1430,searchDisc2,2020.2.2,59.90614432902178,
images/exp1b_trial_41_colour2_distractors31_r.png,r,2,0,412,412,137,,,,,,,,,,,,,,,,,,,,,None,None,None,0,,None,None,None,None,None,None,None,,,,,,,,,,,,,,,,,,,,,2,001,2020_Oct_14_1430,searchDisc2,2020.2.2,59.90614432902178,
images/exp2c_trial_2_colour1_distractors9_r.png,r,2,0,413,413,386,,,,,,,,,,,,,,,,,,,,,None,None,None,0,,None,None,None,None,None,None,None,,,,,,,,,,,,,,,,,,,,,2,001,2020_Oct_14_1430,searchDisc2,2020.2.2,59.90614432902178,
images/exp2b_trial_57_colour3_distractors1_l.png,l,1,0,414,414,345,,,,,,,,,,,,,,,,,,,,,None,None,None,0,,None,None,None,None,None,None,None,,,,,,,,,,,,,,,,,,,,,2,001,2020_Oct_14_1430,searchDisc2,2020.2.2,59.90614432902178,
images/exp2c_trial_62_colour0_distractors0_r.png,r,2,0,415,415,446,,,,,,,,,,,,,,,,,,,,,None,None,None,0,,None,None,None,None,None,None,None,,,,,,,,,,,,,,,,,,,,,2,001,2020_Oct_14_1430,searchDisc2,2020.2.2,59.90614432902178,
images/exp2b_trial_59_colour3_distractors9_l.png,l,1,0,416,416,347,,,,,,,,,,,,,,,,,,,,,None,None,None,0,,None,None,None,None,None,None,None,,,,,,,,,,,,,,,,,,,,,2,001,2020_Oct_14_1430,searchDisc2,2020.2.2,59.90614432902178,
images/exp1b_trial_51_colour1_distractors31_l.png,l,1,0,417,417,147,,,,,,,,,,,,,,,,,,,,,None,None,None,0,,None,None,None,None,None,None,None,,,,,,,,,,,,,,,,,,,,,2,001,2020_Oct_14_1430,searchDisc2,2020.2.2,59.90614432902178,
images/exp1a_trial_38_colour2_distractors4_r.png,r,2,0,418,418,38,,,,,,,,,,,,,,,,,,,,,None,None,None,0,,None,None,None,None,None,None,None,,,,,,,,,,,,,,,,,,,,,2,001,2020_Oct_14_1430,searchDisc2,2020.2.2,59.90614432902178,
images/exp1b_trial_21_colour2_distractors4_l.png,l,1,0,419,419,117,,,,,,,,,,,,,,,,,,,,,None,None,None,0,,None,None,None,None,None,None,None,,,,,,,,,,,,,,,,,,,,,2,001,2020_Oct_14_1430,searchDisc2,2020.2.2,59.90614432902178,
images/exp1a_trial_51_colour1_distractors31_l.png,l,1,0,420,420,51,,,,,,,,,,,,,,,,,,,,,None,None,None,0,,None,None,None,None,None,None,None,,,,,,,,,,,,,,,,,,,,,2,001,2020_Oct_14_1430,searchDisc2,2020.2.2,59.90614432902178,
images/exp2b_trial_79_colour1_distractors1_l.png,l,1,0,421,421,367,,,,,,,,,,,,,,,,,,,,,None,None,None,0,,None,None,None,None,None,None,None,,,,,,,,,,,,,,,,,,,,,2,001,2020_Oct_14_1430,searchDisc2,2020.2.2,59.90614432902178,
images/exp2c_trial_90_colour3_distractors4_l.png,l,1,0,422,422,474,,,,,,,,,,,,,,,,,,,,,None,None,None,0,,None,None,None,None,None,None,None,,,,,,,,,,,,,,,,,,,,,2,001,2020_Oct_14_1430,searchDisc2,2020.2.2,59.90614432902178,
images/exp1a_trial_82_colour1_distractors19_l.png,l,1,0,423,423,82,,,,,,,,,,,,,,,,,,,,,None,None,None,0,,None,None,None,None,None,None,None,,,,,,,,,,,,,,,,,,,,,2,001,2020_Oct_14_1430,searchDisc2,2020.2.2,59.90614432902178,
images/exp1b_trial_2_colour1_distractors9_r.png,r,2,0,424,424,98,,,,,,,,,,,,,,,,,,,,,None,None,None,0,,None,None,None,None,None,None,None,,,,,,,,,,,,,,,,,,,,,2,001,2020_Oct_14_1430,searchDisc2,2020.2.2,59.90614432902178,
images/exp2a_trial_51_colour1_distractors31_l.png,l,1,0,425,425,243,,,,,,,,,,,,,,,,,,,,,None,None,None,0,,None,None,None,None,None,None,None,,,,,,,,,,,,,,,,,,,,,2,001,2020_Oct_14_1430,searchDisc2,2020.2.2,59.90614432902178,
images/exp1b_trial_62_colour0_distractors0_r.png,r,1,0,426,426,158,,,,,,,,,,,,,,,,,,,,,None,None,None,0,,None,None,None,None,None,None,None,,,,,,,,,,,,,,,,,,,,,2,001,2020_Oct_14_1430,searchDisc2,2020.2.2,59.90614432902178,
images/exp2a_trial_56_colour2_distractors31_l.png,l,1,0,427,427,248,,,,,,,,,,,,,,,,,,,,,None,None,None,0,,None,None,None,None,None,None,None,,,,,,,,,,,,,,,,,,,,,2,001,2020_Oct_14_1430,searchDisc2,2020.2.2,59.90614432902178,
images/exp2c_trial_23_colour2_distractors19_l.png,l,1,0,428,428,407,,,,,,,,,,,,,,,,,,,,,None,None,None,0,,None,None,None,None,None,None,None,,,,,,,,,,,,,,,,,,,,,2,001,2020_Oct_14_1430,searchDisc2,2020.2.2,59.90614432902178,
images/exp2c_trial_41_colour2_distractors31_r.png,r,2,0,429,429,425,,,,,,,,,,,,,,,,,,,,,None,None,None,0,,None,None,None,None,None,None,None,,,,,,,,,,,,,,,,,,,,,2,001,2020_Oct_14_1430,searchDisc2,2020.2.2,59.90614432902178,
images/exp2c_trial_81_colour1_distractors9_l.png,l,1,0,430,430,465,,,,,,,,,,,,,,,,,,,,,None,None,None,0,,None,None,None,None,None,None,None,,,,,,,,,,,,,,,,,,,,,2,001,2020_Oct_14_1430,searchDisc2,2020.2.2,59.90614432902178,
images/exp1a_trial_80_colour1_distractors4_l.png,l,1,0,431,431,80,,,,,,,,,,,,,,,,,,,,,None,None,None,0,,None,None,None,None,None,None,None,,,,,,,,,,,,,,,,,,,,,2,001,2020_Oct_14_1430,searchDisc2,2020.2.2,59.90614432902178,
images/exp1a_trial_87_colour2_distractors19_l.png,l,1,0,432,432,87,,,,,,,,,,,,,,,,,,,,,None,None,None,0,,None,None,None,None,None,None,None,,,,,,,,,,,,,,,,,,,,,2,001,2020_Oct_14_1430,searchDisc2,2020.2.2,59.90614432902178,
images/exp2b_trial_33_colour1_distractors4_r.png,r,2,0,433,433,321,,,,,,,,,,,,,,,,,,,,,None,None,None,0,,None,None,None,None,None,None,None,,,,,,,,,,,,,,,,,,,,,2,001,2020_Oct_14_1430,searchDisc2,2020.2.2,59.90614432902178,
images/exp2b_trial_15_colour1_distractors1_l.png,l,1,0,434,434,303,,,,,,,,,,,,,,,,,,,,,None,None,None,0,,None,None,None,None,None,None,None,,,,,,,,,,,,,,,,,,,,,2,001,2020_Oct_14_1430,searchDisc2,2020.2.2,59.90614432902178,
images/exp2c_trial_88_colour2_distractors31_l.png,l,1,0,435,435,472,,,,,,,,,,,,,,,,,,,,,None,None,None,0,,None,None,None,None,None,None,None,,,,,,,,,,,,,,,,,,,,,2,001,2020_Oct_14_1430,searchDisc2,2020.2.2,59.90614432902178,
images/exp2b_trial_58_colour3_distractors4_l.png,l,1,0,436,436,346,,,,,,,,,,,,,,,,,,,,,None,None,None,0,,None,None,None,None,None,None,None,,,,,,,,,,,,,,,,,,,,,2,001,2020_Oct_14_1430,searchDisc2,2020.2.2,59.90614432902178,
images/exp2b_trial_2_colour1_distractors9_r.png,r,2,0,437,437,290,,,,,,,,,,,,,,,,,,,,,None,None,None,0,,None,None,None,None,None,None,None,,,,,,,,,,,,,,,,,,,,,2,001,2020_Oct_14_1430,searchDisc2,2020.2.2,59.90614432902178,
