ImageFile,targ_side,correctAnswer,trials_2.thisRepN,trials_2.thisTrialN,trials_2.thisN,trials_2.thisIndex,text_2.started,text_2.stopped,key_resp_5.keys,key_resp_5.rt,key_resp_5.started,key_resp_5.stopped,image_2.started,image_2.stopped,key_resp_6.keys,key_resp_6.rt,key_resp_6.started,key_resp_6.stopped,text_3.started,text_3.stopped,image_3.started,image_3.stopped,image.started,image.stopped,key_resp_4.keys,key_resp_4.corr,key_resp_4.rt,key_resp_4.started,key_resp_4.stopped,text_4.started,text_4.stopped,key_resp_7.keys,key_resp_7.started,key_resp_7.stopped,key_resp_7.rt,participant,session,date,expName,psychopyVersion,frameRate,
,,,,,,,7.848367496335413,None,space,0.251033594715409,8.799592066090554,None,,,,,,,,,,,,,,,,,,,,,,,,2,001,2020_Oct_14_1427,searchDisc2,2020.2.2,59.91981332105782,
,,,,,,,,,,,,,9.082920215441845,None,space,1.0718501921510324,10.050734140211716,None,,,,,,,,,,,,,,,,,,2,001,2020_Oct_14_1427,searchDisc2,2020.2.2,59.91981332105782,
images/exp2b_trial_37_colour2_distractors1_r.png,r,2,0,0,0,325,,,,,,,,,,,,,9.082920215441845,None,9.082920215441845,None,11.301653175498359,None,2,1,1.0609350480372086,11.301653175498359,None,None,None,None,None,None,,2,001,2020_Oct_14_1427,searchDisc2,2020.2.2,59.91981332105782,
images/exp1b_trial_57_colour3_distractors1_l.png,l,1,0,1,1,153,,,,,,,,,,,,,,,,,12.469470876269042,None,1,1,0.8130159973516129,12.469470876269042,None,None,None,None,None,None,,2,001,2020_Oct_14_1427,searchDisc2,2020.2.2,59.91981332105782,
images/exp1b_trial_4_colour1_distractors31_r.png,r,2,0,2,2,100,,,,,,,,,,,,,,,,,13.437091202067677,None,2,1,1.0694038046058267,13.437091202067677,None,None,None,None,None,None,,2,001,2020_Oct_14_1427,searchDisc2,2020.2.2,59.91981332105782,
images/exp1b_trial_68_colour1_distractors31_r.png,r,2,0,3,3,164,,,,,,,,,,,,,,,,,14.621633937233128,None,2,1,0.956917020608671,14.621633937233128,None,None,None,None,None,None,,2,001,2020_Oct_14_1427,searchDisc2,2020.2.2,59.91981332105782,
images/exp2c_trial_0_colour1_distractors1_r.png,r,2,0,4,4,384,,,,,,,,,,,,,,,,,15.722675019875169,None,2,1,0.8718438561190851,15.722675019875169,None,None,None,None,None,None,,2,001,2020_Oct_14_1427,searchDisc2,2020.2.2,59.91981332105782,
images/exp1a_trial_25_colour3_distractors1_l.png,l,1,0,5,5,25,,,,,,,,,,,,,,,,,16.72377325425623,None,1,1,0.742498598410748,16.72377325425623,None,None,None,None,None,None,,2,001,2020_Oct_14_1427,searchDisc2,2020.2.2,59.91981332105782,
images/exp2a_trial_9_colour2_distractors31_r.png,r,2,0,6,6,201,,,,,,,,,,,,,,,,,17.574624897912145,None,2,1,0.7399318914976902,17.574624897912145,None,None,None,None,None,None,,2,001,2020_Oct_14_1427,searchDisc2,2020.2.2,59.91981332105782,
images/exp2b_trial_10_colour3_distractors1_r.png,r,2,0,7,7,298,,,,,,,,,,,,,,,,,18.458897170436103,None,2,1,0.9115809327340685,18.458897170436103,None,None,None,None,None,None,,2,001,2020_Oct_14_1427,searchDisc2,2020.2.2,59.91981332105782,
images/exp1a_trial_58_colour3_distractors4_l.png,l,1,0,8,8,58,,,,,,,,,,,,,,,,,19.509944909077603,None,1,1,0.7725858043413609,19.509944909077603,None,None,None,None,None,None,,2,001,2020_Oct_14_1427,searchDisc2,2020.2.2,59.91981332105782,
images/exp1b_trial_55_colour2_distractors19_l.png,l,1,0,9,9,151,,,,,,,,,,,,,,,,,20.410804936662316,None,1,1,1.0236507588997483,20.410804936662316,None,None,None,None,None,None,,2,001,2020_Oct_14_1427,searchDisc2,2020.2.2,59.91981332105782,
images/exp2b_trial_20_colour2_distractors1_l.png,l,1,0,10,10,308,,,,,,,,,,,,,,,,,21.56176832370693,None,1,1,0.8327467763447203,21.56176832370693,None,None,None,None,None,None,,2,001,2020_Oct_14_1427,searchDisc2,2020.2.2,59.91981332105782,
images/exp2c_trial_44_colour3_distractors9_r.png,r,2,0,11,11,428,,,,,,,,,,,,,,,,,22.51289337396156,None,2,1,0.8016259756986983,22.51289337396156,None,None,None,None,None,None,,2,001,2020_Oct_14_1427,searchDisc2,2020.2.2,59.91981332105782,
images/exp1b_trial_44_colour3_distractors9_r.png,r,2,0,12,12,140,,,,,,,,,,,,,,,,,23.43031427677488,None,2,1,1.1081108064972796,23.43031427677488,None,None,None,None,None,None,,2,001,2020_Oct_14_1427,searchDisc2,2020.2.2,59.91981332105782,
images/exp2b_trial_83_colour1_distractors31_l.png,l,1,0,13,13,371,,,,,,,,,,,,,,,,,24.664804916188587,None,1,1,0.8337045314256102,24.664804916188587,None,None,None,None,None,None,,2,001,2020_Oct_14_1427,searchDisc2,2020.2.2,59.91981332105782,
images/exp1b_trial_2_colour1_distractors9_r.png,r,2,0,14,14,98,,,,,,,,,,,,,,,,,25.615757167281117,None,2,1,0.9708113494561985,25.615757167281117,None,None,None,None,None,None,,2,001,2020_Oct_14_1427,searchDisc2,2020.2.2,59.91981332105782,
images/exp2b_trial_41_colour2_distractors31_r.png,r,2,0,15,15,329,,,,,,,,,,,,,,,,,26.716992808971554,None,2,1,0.653479534201324,26.716992808971554,None,None,None,None,None,None,,2,001,2020_Oct_14_1427,searchDisc2,2020.2.2,59.91981332105782,
images/exp1b_trial_49_colour1_distractors9_l.png,l,1,0,16,16,145,,,,,,,,,,,,,,,,,27.50096895499155,None,1,1,0.8057542745373212,27.50096895499155,None,None,None,None,None,None,,2,001,2020_Oct_14_1427,searchDisc2,2020.2.2,59.91981332105782,
images/exp2a_trial_7_colour2_distractors9_r.png,r,2,0,17,17,199,,,,,,,,,,,,,,,,,28.45201016566716,None,2,1,0.6863996856263839,28.45201016566716,None,None,None,None,None,None,,2,001,2020_Oct_14_1427,searchDisc2,2020.2.2,59.91981332105782,
images/exp2c_trial_34_colour1_distractors9_r.png,r,2,0,18,18,418,,,,,,,,,,,,,,,,,29.269366940832697,None,2,1,0.7331389663158916,29.269366940832697,None,None,None,None,None,None,,2,001,2020_Oct_14_1427,searchDisc2,2020.2.2,59.91981332105782,
images/exp1b_trial_21_colour2_distractors4_l.png,l,1,0,19,19,117,,,,,,,,,,,,,,,,,30.120208024512976,None,1,1,0.7463062588940375,30.120208024512976,None,30.92098152457038,None,space,30.92098152457038,None,5.361747907882091,2,001,2020_Oct_14_1427,searchDisc2,2020.2.2,59.91981332105782,
images/exp1b_trial_88_colour2_distractors31_l.png,l,1,0,20,20,184,,,,,,,,,,,,,,,,,36.39305814751424,None,1,1,1.1134621390374377,36.39305814751424,None,None,None,None,None,None,,2,001,2020_Oct_14_1427,searchDisc2,2020.2.2,59.91981332105782,
images/exp2c_trial_35_colour1_distractors19_r.png,r,2,0,21,21,419,,,,,,,,,,,,,,,,,37.627627506502904,None,2,1,0.6469246877823025,37.627627506502904,None,None,None,None,None,None,,2,001,2020_Oct_14_1427,searchDisc2,2020.2.2,59.91981332105782,
images/exp1b_trial_81_colour1_distractors9_l.png,l,1,0,22,22,177,,,,,,,,,,,,,,,,,38.39505045732949,None,1,1,0.8076499448507093,38.39505045732949,None,None,None,None,None,None,,2,001,2020_Oct_14_1427,searchDisc2,2020.2.2,59.91981332105782,
images/exp1a_trial_45_colour3_distractors19_r.png,r,2,0,23,23,45,,,,,,,,,,,,,,,,,39.32932279387023,None,2,1,0.6731431134976447,39.32932279387023,None,None,None,None,None,None,,2,001,2020_Oct_14_1427,searchDisc2,2020.2.2,59.91981332105782,
images/exp2a_trial_8_colour2_distractors19_r.png,r,2,0,24,24,200,,,,,,,,,,,,,,,,,40.14687764795963,None,2,1,0.6476587639772333,40.14687764795963,None,None,None,None,None,None,,2,001,2020_Oct_14_1427,searchDisc2,2020.2.2,59.91981332105782,
images/exp2c_trial_10_colour3_distractors1_r.png,r,2,0,25,25,394,,,,,,,,,,,,,,,,,40.914221239159815,None,2,1,0.6163328443653882,40.914221239159815,None,None,None,None,None,None,,2,001,2020_Oct_14_1427,searchDisc2,2020.2.2,59.91981332105782,
images/exp2a_trial_47_colour1_distractors1_l.png,l,1,0,26,26,239,,,,,,,,,,,,,,,,,41.64838772022631,None,1,1,0.62625343358377,41.64838772022631,None,None,None,None,None,None,,2,001,2020_Oct_14_1427,searchDisc2,2020.2.2,59.91981332105782,
images/exp2b_trial_75_colour3_distractors4_r.png,r,2,0,27,27,363,,,,,,,,,,,,,,,,,42.399172036210075,None,2,1,1.0194725402980112,42.399172036210075,None,None,None,None,None,None,,2,001,2020_Oct_14_1427,searchDisc2,2020.2.2,59.91981332105782,
images/exp2b_trial_14_colour3_distractors31_r.png,r,2,0,28,28,302,,,,,,,,,,,,,,,,,43.53344974870561,None,2,1,0.8290376753429882,43.53344974870561,None,None,None,None,None,None,,2,001,2020_Oct_14_1427,searchDisc2,2020.2.2,59.91981332105782,
images/exp2a_trial_49_colour1_distractors9_l.png,l,1,0,29,29,241,,,,,,,,,,,,,,,,,44.48436648002826,None,1,1,0.8862460224190727,44.48436648002826,None,None,None,None,None,None,,2,001,2020_Oct_14_1427,searchDisc2,2020.2.2,59.91981332105782,
images/exp2a_trial_70_colour2_distractors4_r.png,r,2,0,30,30,262,,,,,,,,,,,,,,,,,45.50206430943217,None,2,1,0.7644533659913577,45.50206430943217,None,None,None,None,None,None,,2,001,2020_Oct_14_1427,searchDisc2,2020.2.2,59.91981332105782,
images/exp2b_trial_57_colour3_distractors1_l.png,l,1,0,31,31,345,,,,,,,,,,,,,,,,,46.3862405824475,None,1,1,0.9042689701309428,46.3862405824475,None,None,None,None,None,None,,2,001,2020_Oct_14_1427,searchDisc2,2020.2.2,59.91981332105782,
images/exp2c_trial_37_colour2_distractors1_r.png,r,2,0,32,32,421,,,,,,,,,,,,,,,,,47.43732000089949,None,2,1,0.8772767883492634,47.43732000089949,None,None,None,None,None,None,,2,001,2020_Oct_14_1427,searchDisc2,2020.2.2,59.91981332105782,
images/exp2b_trial_63_colour0_distractors0_l.png,l,1,0,33,33,351,,,,,,,,,,,,,,,,,48.45495639060391,None,1,1,0.8115344049292617,48.45495639060391,None,None,None,None,None,None,,2,001,2020_Oct_14_1427,searchDisc2,2020.2.2,59.91981332105782,
images/exp2a_trial_15_colour1_distractors1_l.png,l,1,0,34,34,207,,,,,,,,,,,,,,,,,49.422604236227926,None,1,1,0.9479065067134798,49.422604236227926,None,None,None,None,None,None,,2,001,2020_Oct_14_1427,searchDisc2,2020.2.2,59.91981332105782,
images/exp2c_trial_33_colour1_distractors4_r.png,r,2,0,35,35,417,,,,,,,,,,,,,,,,,50.490293489652686,None,2,1,0.616395884018857,50.490293489652686,None,None,None,None,None,None,,2,001,2020_Oct_14_1427,searchDisc2,2020.2.2,59.91981332105782,
images/exp2a_trial_44_colour3_distractors9_r.png,r,2,0,36,36,236,,,,,,,,,,,,,,,,,51.224558210233226,None,2,1,0.9060456010047346,51.224558210233226,None,None,None,None,None,None,,2,001,2020_Oct_14_1427,searchDisc2,2020.2.2,59.91981332105782,
images/exp2c_trial_28_colour3_distractors19_l.png,l,1,0,37,37,412,,,,,,,,,,,,,,,,,52.25873915525153,None,1,1,1.407880151644349,52.25873915525153,None,None,None,None,None,None,,2,001,2020_Oct_14_1427,searchDisc2,2020.2.2,59.91981332105782,
images/exp2b_trial_38_colour2_distractors4_r.png,r,2,0,38,38,326,,,,,,,,,,,,,,,,,53.79355529695749,None,2,1,0.6570206360775046,53.79355529695749,None,None,None,None,None,None,,2,001,2020_Oct_14_1427,searchDisc2,2020.2.2,59.91981332105782,
images/exp1b_trial_65_colour1_distractors4_r.png,r,2,0,39,39,161,,,,,,,,,,,,,,,,,54.57770392211387,None,2,1,0.9208452052553184,54.57770392211387,None,None,None,None,None,None,,2,001,2020_Oct_14_1427,searchDisc2,2020.2.2,59.91981332105782,
images/exp2a_trial_78_colour3_distractors31_r.png,r,2,0,40,40,270,,,,,,,,,,,,,,,,,55.62875550077297,None,2,1,0.6781686877948232,55.62875550077297,None,None,None,None,None,None,,2,001,2020_Oct_14_1427,searchDisc2,2020.2.2,59.91981332105782,
images/exp2a_trial_69_colour2_distractors1_r.png,r,2,0,41,41,261,,,,,,,,,,,,,,,,,56.42948324105237,None,2,1,0.7171502481796779,56.42948324105237,None,None,None,None,None,None,,2,001,2020_Oct_14_1427,searchDisc2,2020.2.2,59.91981332105782,
images/exp1a_trial_23_colour2_distractors19_l.png,l,1,0,42,42,23,,,,,,,,,,,,,,,,,57.26382264919812,None,1,1,1.0027139061130583,57.26382264919812,None,None,None,None,None,None,,2,001,2020_Oct_14_1427,searchDisc2,2020.2.2,59.91981332105782,
images/exp1a_trial_2_colour1_distractors9_r.png,r,2,0,43,43,2,,,,,,,,,,,,,,,,,58.38168700574897,None,2,1,0.6847699339850806,58.38168700574897,None,None,None,None,None,None,,2,001,2020_Oct_14_1427,searchDisc2,2020.2.2,59.91981332105782,
images/exp2b_trial_74_colour3_distractors1_r.png,r,2,0,44,44,362,,,,,,,,,,,,,,,,,59.182196827139705,None,2,1,0.8043478817562573,59.182196827139705,None,None,None,None,None,None,,2,001,2020_Oct_14_1427,searchDisc2,2020.2.2,59.91981332105782,
images/exp2c_trial_41_colour2_distractors31_r.png,r,2,0,45,45,425,,,,,,,,,,,,,,,,,60.116699242498726,None,2,1,0.7497856011032127,60.116699242498726,None,None,None,None,None,None,,2,001,2020_Oct_14_1427,searchDisc2,2020.2.2,59.91981332105782,
images/exp2a_trial_10_colour3_distractors1_r.png,r,2,0,46,46,202,,,,,,,,,,,,,,,,,60.98399976192741,None,2,1,0.69858554325765,60.98399976192741,None,None,None,None,None,None,,2,001,2020_Oct_14_1427,searchDisc2,2020.2.2,59.91981332105782,
images/exp2c_trial_74_colour3_distractors1_r.png,r,2,0,47,47,458,,,,,,,,,,,,,,,,,61.80148677638499,None,2,1,0.7611074630985968,61.80148677638499,None,None,None,None,None,None,,2,001,2020_Oct_14_1427,searchDisc2,2020.2.2,59.91981332105782,
images/exp2a_trial_0_colour1_distractors1_r.png,r,2,0,48,48,192,,,,,,,,,,,,,,,,,62.68576672882773,None,2,1,0.852691954234615,62.68576672882773,None,None,None,None,None,None,,2,001,2020_Oct_14_1427,searchDisc2,2020.2.2,59.91981332105782,
images/exp2a_trial_81_colour1_distractors9_l.png,l,1,0,49,49,273,,,,,,,,,,,,,,,,,63.653267055226024,None,1,1,0.757274842762854,63.653267055226024,None,None,None,None,None,None,,2,001,2020_Oct_14_1427,searchDisc2,2020.2.2,59.91981332105782,
images/exp2c_trial_70_colour2_distractors4_r.png,r,2,0,50,50,454,,,,,,,,,,,,,,,,,64.53751596790971,None,2,1,0.6251612791675143,64.53751596790971,None,None,None,None,None,None,,2,001,2020_Oct_14_1427,searchDisc2,2020.2.2,59.91981332105782,
images/exp1b_trial_42_colour3_distractors1_r.png,r,2,0,51,51,138,,,,,,,,,,,,,,,,,65.30493891867809,None,2,1,0.9616494763758965,65.30493891867809,None,None,None,None,None,None,,2,001,2020_Oct_14_1427,searchDisc2,2020.2.2,59.91981332105782,
images/exp1b_trial_15_colour1_distractors1_l.png,l,1,0,52,52,111,,,,,,,,,,,,,,,,,66.38932632660726,None,1,1,0.8132809560047463,66.38932632660726,None,None,None,None,None,None,,2,001,2020_Oct_14_1427,searchDisc2,2020.2.2,59.91981332105782,
images/exp2a_trial_65_colour1_distractors4_r.png,r,2,0,53,53,257,,,,,,,,,,,,,,,,,67.32359322317643,None,2,1,0.5829643752076663,67.32359322317643,None,None,None,None,None,None,,2,001,2020_Oct_14_1427,searchDisc2,2020.2.2,59.91981332105782,
images/exp2c_trial_31_colour0_distractors0_l.png,l,1,0,54,54,415,,,,,,,,,,,,,,,,,68.02438387513394,None,1,1,0.43441121582873166,68.02438387513394,None,None,None,None,None,None,,2,001,2020_Oct_14_1427,searchDisc2,2020.2.2,59.91981332105782,
images/exp2a_trial_12_colour3_distractors9_r.png,r,2,0,55,55,204,,,,,,,,,,,,,,,,,68.5748306568712,None,2,1,0.33969266078202054,68.5748306568712,None,None,None,None,None,None,,2,001,2020_Oct_14_1427,searchDisc2,2020.2.2,59.91981332105782,
images/exp1b_trial_8_colour2_distractors19_r.png,r,2,0,56,56,104,,,,,,,,,,,,,,,,,69.04210954438895,None,1,0,0.26490552368341014,69.04210954438895,None,None,None,None,None,None,,2,001,2020_Oct_14_1427,searchDisc2,2020.2.2,59.91981332105782,
images/exp2a_trial_21_colour2_distractors4_l.png,l,1,0,57,57,213,,,,,,,,,,,,,,,,,69.42564006068278,None,2,0,0.26483768405159935,69.42564006068278,None,None,None,None,None,None,,2,001,2020_Oct_14_1427,searchDisc2,2020.2.2,59.91981332105782,
images/exp2c_trial_83_colour1_distractors31_l.png,l,1,0,58,58,467,,,,,,,,,,,,,,,,,69.80936609604396,None,1,1,0.27321044116979465,69.80936609604396,None,None,None,None,None,None,,2,001,2020_Oct_14_1427,searchDisc2,2020.2.2,59.91981332105782,
images/exp2b_trial_8_colour2_distractors19_r.png,r,2,0,59,59,296,,,,,,,,,,,,,,,,,70.20992500515422,None,2,1,0.24050052859820426,70.20992500515422,None,None,None,None,None,None,,2,001,2020_Oct_14_1427,searchDisc2,2020.2.2,59.91981332105782,
images/exp1b_trial_62_colour0_distractors0_r.png,r,1,0,60,60,158,,,,,,,,,,,,,,,,,70.59360112075228,None,1,1,0.18489377334481105,70.59360112075228,None,None,None,None,None,None,,2,001,2020_Oct_14_1427,searchDisc2,2020.2.2,59.91981332105782,
images/exp2c_trial_76_colour3_distractors9_r.png,r,2,0,61,61,460,,,,,,,,,,,,,,,,,70.87711006915197,None,2,1,0.2452685041935183,70.87711006915197,None,None,None,None,None,None,,2,001,2020_Oct_14_1427,searchDisc2,2020.2.2,59.91981332105782,
images/exp1b_trial_17_colour1_distractors9_l.png,l,1,0,62,62,113,,,,,,,,,,,,,,,,,71.22763787448639,None,1,1,0.18292258348083124,71.22763787448639,None,None,None,None,None,None,,2,001,2020_Oct_14_1427,searchDisc2,2020.2.2,59.91981332105782,
images/exp1a_trial_53_colour2_distractors4_l.png,l,1,0,63,63,53,,,,,,,,,,,,,,,,,71.52772625803482,None,2,0,0.18697056273231283,71.52772625803482,None,None,None,None,None,None,,2,001,2020_Oct_14_1427,searchDisc2,2020.2.2,59.91981332105782,
images/exp1b_trial_87_colour2_distractors19_l.png,l,1,0,64,64,183,,,,,,,,,,,,,,,,,71.84468047518749,None,1,1,0.18984062800882384,71.84468047518749,None,None,None,None,None,None,,2,001,2020_Oct_14_1427,searchDisc2,2020.2.2,59.91981332105782,
images/exp2a_trial_3_colour1_distractors19_r.png,r,2,0,65,65,195,,,,,,,,,,,,,,,,,72.1449752576882,None,2,1,0.21776976506225765,72.1449752576882,None,None,None,None,None,None,,2,001,2020_Oct_14_1427,searchDisc2,2020.2.2,59.91981332105782,
images/exp2b_trial_19_colour1_distractors31_l.png,l,1,0,66,66,307,,,,,,,,,,,,,,,,,72.47866218921263,None,1,1,0.16386156104272231,72.47866218921263,None,None,None,None,None,None,,2,001,2020_Oct_14_1427,searchDisc2,2020.2.2,59.91981332105782,
images/exp1a_trial_37_colour2_distractors1_r.png,r,2,0,67,67,37,,,,,,,,,,,,,,,,,72.76245401619235,None,2,1,0.23206601181300357,72.76245401619235,None,None,None,None,None,None,,2,001,2020_Oct_14_1427,searchDisc2,2020.2.2,59.91981332105782,
images/exp2c_trial_6_colour2_distractors4_r.png,r,2,0,68,68,390,,,,,,,,,,,,,,,,,73.11259558348684,None,1,0,0.16186925122747198,73.11259558348684,None,None,None,None,None,None,,2,001,2020_Oct_14_1427,searchDisc2,2020.2.2,59.91981332105782,
images/exp2c_trial_87_colour2_distractors19_l.png,l,1,0,69,69,471,,,,,,,,,,,,,,,,,73.39629365096334,None,2,0,0.1825379453948699,73.39629365096334,None,None,None,None,None,None,,2,001,2020_Oct_14_1427,searchDisc2,2020.2.2,59.91981332105782,
