X Scale,Y Scale,key_resp_10.keys,key_resp_10.rt,key_resp_11.keys,key_resp_11.rt,key_resp_12.keys,key_resp_12.rt,key_resp_13.keys,key_resp_13.rt,key_resp_5.keys,key_resp_5.rt,key_resp_8.keys,key_resp_8.rt,key_resp_6.keys,key_resp_6.rt,key_resp_7.keys,key_resp_7.rt,key_resp_4.keys,key_resp_4.corr,key_resp_4.rt,trials_2.thisRepN,trials_2.thisTrialN,trials_2.thisN,trials_2.thisIndex,trials_2.ran,ImageFile,targ_side,correctAnswer,participant,session,date,expName,psychopyVersion,OS,frameRate,key_resp_3.keys,key_resp_3.rt,key_resp_9.keys,key_resp_9.rt,key_resp_2.keys,key_resp_2.corr,key_resp_2.rt,key_resp.keys,trials.thisRepN,trials.thisTrialN,trials.thisN,trials.thisIndex,trials.ran,exp,trial,colour,distNo,key_resp.rt
19.6,19.7,space,5.370205,space,1.18972,space,1.57609,space,0.981415,space,3.68821,space,8.424485,space,4.875545,space,4.833375,1,1,0.940695,0,0,0,11,1,Practice arrays/exp1a_trial_21_colour1_distractors19_l.png,l,1,001,001,2021-04-11_13h46.10.134,searchDisc4,2020.2.10,Win32,60,,,,,,,,,,,,,,,,,,
,,,,,,,,,,,,,,,,space,1.02932,2,1,0.680195,0,1,1,18,1,Practice arrays/exp1a_trial_36_colour0_distractors0_r.png,r,2,001,001,2021-04-11_13h46.10.134,searchDisc4,2020.2.10,Win32,60,,,,,,,,,,,,,,,,,,
,,,,,,,,,,,,,,,,space,0.02823,2,1,1.42667,0,2,2,4,1,Practice arrays/exp1a_trial_8_colour2_distractors9_r.png,r,2,001,001,2021-04-11_13h46.10.134,searchDisc4,2020.2.10,Win32,60,,,,,,,,,,,,,,,,,,
,,,,,,,,,,,,,,,,space,0.737245,2,1,0.681265,0,3,3,0,1,Practice arrays/exp1a_trial_0_colour1_distractors1_r.png,r,2,001,001,2021-04-11_13h46.10.134,searchDisc4,2020.2.10,Win32,60,,,,,,,,,,,,,,,,,,
,,,,,,,,,,,,,,,,space,0.64839,1,1,1.066645,0,4,4,19,1,Practice arrays/exp1a_trial_37_colour0_distractors0_l.png,l,1,001,001,2021-04-11_13h46.10.134,searchDisc4,2020.2.10,Win32,60,,,,,,,,,,,,,,,,,,
,,,,,,,,,,,,,,,,space,0.091125,1,1,0.836965,0,5,5,15,1,Practice arrays/exp1a_trial_32_colour3_distractors9_l.png,l,1,001,001,2021-04-11_13h46.10.134,searchDisc4,2020.2.10,Win32,60,,,,,,,,,,,,,,,,,,
,,,,,,,,,,,,,,,,space,0.03401,1,1,0.873,0,6,6,14,1,Practice arrays/exp1a_trial_29_colour2_distractors43_l.png,l,1,001,001,2021-04-11_13h46.10.134,searchDisc4,2020.2.10,Win32,60,,,,,,,,,,,,,,,,,,
,,,,,,,,,,,,,,,,space,0.076625,2,1,0.90599,0,7,7,7,1,Practice arrays/exp1a_trial_13_colour3_distractors4_r.png,r,2,001,001,2021-04-11_13h46.10.134,searchDisc4,2020.2.10,Win32,60,,,,,,,,,,,,,,,,,,
,,,,,,,,,,,,,,,,space,0.76019,1,1,0.877475,0,8,8,17,1,Practice arrays/exp1a_trial_35_colour3_distractors43_l.png,l,1,001,001,2021-04-11_13h46.10.134,searchDisc4,2020.2.10,Win32,60,,,,,,,,,,,,,,,,,,
,,,,,,,,,,,,,,,,space,0.50729,2,1,1.17734,0,9,9,5,1,Practice arrays/exp1a_trial_10_colour2_distractors31_r.png,r,2,001,001,2021-04-11_13h46.10.134,searchDisc4,2020.2.10,Win32,60,,,,,,,,,,,,,,,,,,
,,,,,,,,,,,,,,,,space,0.18239,1,1,0.676235,0,10,10,12,1,Practice arrays/exp1a_trial_25_colour2_distractors4_l.png,l,1,001,001,2021-04-11_13h46.10.134,searchDisc4,2020.2.10,Win32,60,,,,,,,,,,,,,,,,,,
,,,,,,,,,,,,,,,,space,0.49393,2,1,0.79708,0,11,11,8,1,Practice arrays/exp1a_trial_16_colour3_distractors31_r.png,r,2,001,001,2021-04-11_13h46.10.134,searchDisc4,2020.2.10,Win32,60,,,,,,,,,,,,,,,,,,
,,,,,,,,,,,,,,,,space,0.58055,1,1,0.685455,0,12,12,13,1,Practice arrays/exp1a_trial_28_colour2_distractors31_l.png,l,1,001,001,2021-04-11_13h46.10.134,searchDisc4,2020.2.10,Win32,60,,,,,,,,,,,,,,,,,,
,,,,,,,,,,,,,,,,space,0.44796,1,1,0.79393,0,13,13,10,1,Practice arrays/exp1a_trial_20_colour1_distractors9_l.png,l,1,001,001,2021-04-11_13h46.10.134,searchDisc4,2020.2.10,Win32,60,,,,,,,,,,,,,,,,,,
,,,,,,,,,,,,,,,,space,0.46285,2,1,0.81609,0,14,14,1,1,Practice arrays/exp1a_trial_3_colour1_distractors19_r.png,r,2,001,001,2021-04-11_13h46.10.134,searchDisc4,2020.2.10,Win32,60,,,,,,,,,,,,,,,,,,
,,,,,,,,,,,,,,,,space,0.371625,2,1,0.80156,0,15,15,2,1,Practice arrays/exp1a_trial_5_colour1_distractors43_r.png,r,2,001,001,2021-04-11_13h46.10.134,searchDisc4,2020.2.10,Win32,60,,,,,,,,,,,,,,,,,,
,,,,,,,,,,,,,,,,space,0.435015,1,1,0.800815,0,16,16,9,1,Practice arrays/exp1a_trial_19_colour1_distractors4_l.png,l,1,001,001,2021-04-11_13h46.10.134,searchDisc4,2020.2.10,Win32,60,,,,,,,,,,,,,,,,,,
,,,,,,,,,,,,,,,,space,0.42642,2,1,1.313695,0,17,17,3,1,Practice arrays/exp1a_trial_7_colour2_distractors4_r.png,r,2,001,001,2021-04-11_13h46.10.134,searchDisc4,2020.2.10,Win32,60,,,,,,,,,,,,,,,,,,
,,,,,,,,,,,,,,,,space,0.425925,1,1,0.604875,0,18,18,16,1,Practice arrays/exp1a_trial_33_colour3_distractors19_l.png,l,1,001,001,2021-04-11_13h46.10.134,searchDisc4,2020.2.10,Win32,60,,,,,,,,,,,,,,,,,,
,,,,,,,,,,,,,,,,space,0.362905,2,1,1.00096,0,19,19,6,1,Practice arrays/exp1a_trial_12_colour3_distractors1_r.png,r,2,001,001,2021-04-11_13h46.10.134,searchDisc4,2020.2.10,Win32,60,,,,,,,,,,,,,,,,,,
,,,,,,,,,,,,,,,,,,,,,,,,,,images/exp2c_trial_9_colour2_distractors19_r.png,r,2,001,001,2021-04-11_13h46.10.134,searchDisc4,2020.2.10,Win32,60,space,0.339695,space,0.80127,2,1,1.01752,,0,0,0,465,1,2c,9,2,19,
,,,,,,,,,,,,,,,,,,,,,,,,,,images/exp1b_trial_66_colour2_distractors31_l.png,l,1,001,001,2021-04-11_13h46.10.134,searchDisc4,2020.2.10,Win32,60,,,space,0.80292,1,1,1.04235,,0,1,1,180,1,1b,66,2,31,
,,,,,,,,,,,,,,,,,,,,,,,,,,images/exp1a_trial_20_colour1_distractors9_l.png,l,1,001,001,2021-04-11_13h46.10.134,searchDisc4,2020.2.10,Win32,60,,,space,0.56805,1,1,0.74615,,0,2,2,20,1,1a,20,1,9,
,,,,,,,,,,,,,,,,,,,,,,,,,,images/exp2b_trial_58_colour1_distractors9_l.png,l,1,001,001,2021-04-11_13h46.10.134,searchDisc4,2020.2.10,Win32,60,,,space,0.6547,1,1,0.61331,,0,3,3,400,1,2b,58,1,9,
,,,,,,,,,,,,,,,,,,,,,,,,,,images/exp2c_trial_52_colour3_distractors9_r.png,r,2,001,001,2021-04-11_13h46.10.134,searchDisc4,2020.2.10,Win32,60,,,space,0.673605,2,1,0.66236,,0,4,4,508,1,2c,52,3,9,
,,,,,,,,,,,,,,,,,,,,,,,,,,images/exp1a_trial_27_colour2_distractors19_l.png,l,1,001,001,2021-04-11_13h46.10.134,searchDisc4,2020.2.10,Win32,60,,,space,0.595825,1,1,0.698965,,0,5,5,27,1,1a,27,2,19,
,,,,,,,,,,,,,,,,,,,,,,,,,,images/exp1b_trial_80_colour1_distractors31_r.png,r,2,001,001,2021-04-11_13h46.10.134,searchDisc4,2020.2.10,Win32,60,,,space,0.86963,2,1,0.898035,,0,6,6,194,1,1b,80,1,31,
,,,,,,,,,,,,,,,,,,,,,,,,,,images/exp1b_trial_22_colour1_distractors31_l.png,l,1,001,001,2021-04-11_13h46.10.134,searchDisc4,2020.2.10,Win32,60,,,space,0.5084,1,1,0.75751,,0,7,7,136,1,1b,22,1,31,
,,,,,,,,,,,,,,,,,,,,,,,,,,images/exp2b_trial_30_colour3_distractors1_l.png,l,1,001,001,2021-04-11_13h46.10.134,searchDisc4,2020.2.10,Win32,60,,,space,0.477235,1,1,0.74327,,0,8,8,372,1,2b,30,3,1,
,,,,,,,,,,,,,,,,,,,,,,,,,,images/exp2c_trial_100_colour2_distractors1_l.png,l,1,001,001,2021-04-11_13h46.10.134,searchDisc4,2020.2.10,Win32,60,,,space,0.394195,1,1,0.586725,,0,9,9,556,1,2c,100,2,1,
,,,,,,,,,,,,,,,,,,,,,,,,,,images/exp1a_trial_95_colour1_distractors4_l.png,l,1,001,001,2021-04-11_13h46.10.134,searchDisc4,2020.2.10,Win32,60,,,space,0.51132,1,1,0.50025,,0,10,10,95,1,1a,95,1,4,
,,,,,,,,,,,,,,,,,,,,,,,,,,images/exp2a_trial_66_colour2_distractors31_l.png,l,1,001,001,2021-04-11_13h46.10.134,searchDisc4,2020.2.10,Win32,60,,,space,0.428515,1,1,0.5945,,0,11,11,294,1,2a,66,2,31,
,,,,,,,,,,,,,,,,,,,,,,,,,,images/exp2c_trial_83_colour2_distractors4_r.png,r,2,001,001,2021-04-11_13h46.10.134,searchDisc4,2020.2.10,Win32,60,,,space,0.35468,2,1,0.70841,,0,12,12,539,1,2c,83,2,4,
,,,,,,,,,,,,,,,,,,,,,,,,,,images/exp2c_trial_108_colour3_distractors9_l.png,l,1,001,001,2021-04-11_13h46.10.134,searchDisc4,2020.2.10,Win32,60,,,space,0.388185,1,1,0.816675,,0,13,13,564,1,2c,108,3,9,
,,,,,,,,,,,,,,,,,,,,,,,,,,images/exp2c_trial_64_colour2_distractors9_l.png,l,1,001,001,2021-04-11_13h46.10.134,searchDisc4,2020.2.10,Win32,60,,,space,0.38217,1,1,0.96196,,0,14,14,520,1,2c,64,2,9,
,,,,,,,,,,,,,,,,,,,,,,,,,,images/exp1b_trial_95_colour1_distractors4_l.png,l,1,001,001,2021-04-11_13h46.10.134,searchDisc4,2020.2.10,Win32,60,,,space,0.348405,1,1,0.653535,,0,15,15,209,1,1b,95,1,4,
,,,,,,,,,,,,,,,,,,,,,,,,,,images/exp2c_trial_3_colour1_distractors19_r.png,r,2,001,001,2021-04-11_13h46.10.134,searchDisc4,2020.2.10,Win32,60,,,space,0.31246,2,1,0.683,,0,16,16,459,1,2c,3,1,19,
,,,,,,,,,,,,,,,,,,,,,,,,,,images/exp1b_trial_2_colour1_distractors9_r.png,r,2,001,001,2021-04-11_13h46.10.134,searchDisc4,2020.2.10,Win32,60,,,space,0.32404,2,1,0.7171,,0,17,17,116,1,1b,2,1,9,
,,,,,,,,,,,,,,,,,,,,,,,,,,images/exp1b_trial_26_colour2_distractors9_l.png,l,1,001,001,2021-04-11_13h46.10.134,searchDisc4,2020.2.10,Win32,60,,,space,0.3594,1,1,0.554055,,0,18,18,140,1,1b,26,2,9,
,,,,,,,,,,,,,,,,,,,,,,,,,,images/exp2a_trial_113_colour0_distractors0_l.png,l,1,001,001,2021-04-11_13h46.10.134,searchDisc4,2020.2.10,Win32,60,,,space,0.3453,1,1,0.60159,,0,19,19,341,1,2a,113,0,0,
,,,,,,,,,,,,,,,,,,,,,,,,,,images/exp2a_trial_28_colour2_distractors31_l.png,l,1,001,001,2021-04-11_13h46.10.134,searchDisc4,2020.2.10,Win32,60,,,space,0.291765,1,1,0.558175,,0,20,20,256,1,2a,28,2,31,
,,,,,,,,,,,,,,,,,,,,,,,,,,images/exp1a_trial_81_colour1_distractors43_r.png,r,2,001,001,2021-04-11_13h46.10.134,searchDisc4,2020.2.10,Win32,60,,,space,0.314135,2,1,0.67702,,0,21,21,81,1,1a,81,1,43,
,,,,,,,,,,,,,,,,,,,,,,,,,,images/exp2c_trial_48_colour2_distractors31_r.png,r,2,001,001,2021-04-11_13h46.10.134,searchDisc4,2020.2.10,Win32,60,,,space,0.313735,2,1,1.08556,,0,22,22,504,1,2c,48,2,31,
,,,,,,,,,,,,,,,,,,,,,,,,,,images/exp2c_trial_27_colour2_distractors19_l.png,l,1,001,001,2021-04-11_13h46.10.134,searchDisc4,2020.2.10,Win32,60,,,space,0.32441,1,1,0.74537,,0,23,23,483,1,2c,27,2,19,
,,,,,,,,,,,,,,,,,,,,,,,,,,images/exp2b_trial_68_colour3_distractors1_l.png,l,1,001,001,2021-04-11_13h46.10.134,searchDisc4,2020.2.10,Win32,60,,,space,0.26724,1,1,1.313495,,0,24,24,410,1,2b,68,3,1,
,,,,,,,,,,,,,,,,,,,,,,,,,,images/exp1a_trial_84_colour2_distractors9_r.png,r,2,001,001,2021-04-11_13h46.10.134,searchDisc4,2020.2.10,Win32,60,,,space,0.29187,2,1,0.853255,,0,25,25,84,1,1a,84,2,9,
,,,,,,,,,,,,,,,,,,,,,,,,,,images/exp2a_trial_16_colour3_distractors31_r.png,r,2,001,001,2021-04-11_13h46.10.134,searchDisc4,2020.2.10,Win32,60,,,space,0.245085,2,1,1.34555,,0,26,26,244,1,2a,16,3,31,
,,,,,,,,,,,,,,,,,,,,,,,,,,images/exp2a_trial_38_colour1_distractors1_r.png,r,2,001,001,2021-04-11_13h46.10.134,searchDisc4,2020.2.10,Win32,60,,,space,0.23804,2,1,0.716535,,0,27,27,266,1,2a,38,1,1,
,,,,,,,,,,,,,,,,,,,,,,,,,,images/exp1a_trial_44_colour2_distractors1_r.png,r,2,001,001,2021-04-11_13h46.10.134,searchDisc4,2020.2.10,Win32,60,,,space,0.33001,2,1,0.76721,,0,28,28,44,1,1a,44,2,1,
,,,,,,,,,,,,,,,,,,,,,,,,,,images/exp1a_trial_111_colour3_distractors43_l.png,l,1,001,001,2021-04-11_13h46.10.134,searchDisc4,2020.2.10,Win32,60,,,space,0.45004,1,1,1.0426,,0,29,29,111,1,1a,111,3,43,
,,,,,,,,,,,,,,,,,,,,,,,,,,images/exp2c_trial_37_colour0_distractors0_l.png,l,1,001,001,2021-04-11_13h46.10.134,searchDisc4,2020.2.10,Win32,60,,,space,0.267715,1,1,0.572465,,0,30,30,493,1,2c,37,0,0,
,,,,,,,,,,,,,,,,,,,,,,,,,,images/exp2b_trial_60_colour1_distractors31_l.png,l,1,001,001,2021-04-11_13h46.10.134,searchDisc4,2020.2.10,Win32,60,,,space,0.32114,1,1,0.709545,,0,31,31,402,1,2b,60,1,31,
,,,,,,,,,,,,,,,,,,,,,,,,,,images/exp2a_trial_85_colour2_distractors19_r.png,r,2,001,001,2021-04-11_13h46.10.134,searchDisc4,2020.2.10,Win32,60,,,space,0.29119,2,1,0.60315,,0,32,32,313,1,2a,85,2,19,
,,,,,,,,,,,,,,,,,,,,,,,,,,images/exp1b_trial_99_colour1_distractors43_l.png,l,1,001,001,2021-04-11_13h46.10.134,searchDisc4,2020.2.10,Win32,60,,,space,0.247735,1,1,1.0545,,0,33,33,213,1,1b,99,1,43,
,,,,,,,,,,,,,,,,,,,,,,,,,,images/exp2b_trial_72_colour3_distractors31_l.png,l,1,001,001,2021-04-11_13h46.10.134,searchDisc4,2020.2.10,Win32,60,,,space,0.318485,1,1,0.97228,,0,34,34,414,1,2b,72,3,31,
,,,,,,,,,,,,,,,,,,,,,,,,,,images/exp2a_trial_67_colour2_distractors43_l.png,l,1,001,001,2021-04-11_13h46.10.134,searchDisc4,2020.2.10,Win32,60,,,space,0.23659,1,1,0.696595,,0,35,35,295,1,2a,67,2,43,
,,,,,,,,,,,,,,,,,,,,,,,,,,images/exp2c_trial_96_colour1_distractors9_l.png,l,1,001,001,2021-04-11_13h46.10.134,searchDisc4,2020.2.10,Win32,60,,,space,0.250435,1,1,0.639925,,0,36,36,552,1,2c,96,1,9,
,,,,,,,,,,,,,,,,,,,,,,,,,,images/exp1b_trial_21_colour1_distractors19_l.png,l,1,001,001,2021-04-11_13h46.10.134,searchDisc4,2020.2.10,Win32,60,,,space,0.27529,1,1,0.651665,,0,37,37,135,1,1b,21,1,19,
,,,,,,,,,,,,,,,,,,,,,,,,,,images/exp1b_trial_82_colour2_distractors1_r.png,r,2,001,001,2021-04-11_13h46.10.134,searchDisc4,2020.2.10,Win32,60,,,space,0.24425,2,1,0.779275,,0,38,38,196,1,1b,82,2,1,
,,,,,,,,,,,,,,,,,,,,,,,,,,images/exp2a_trial_89_colour3_distractors4_r.png,r,2,001,001,2021-04-11_13h46.10.134,searchDisc4,2020.2.10,Win32,60,,,space,0.290915,2,1,0.73176,,0,39,39,317,1,2a,89,3,4,
,,,,,,,,,,,,,,,,,,,,,,,,,,images/exp2b_trial_89_colour3_distractors4_r.png,r,2,001,001,2021-04-11_13h46.10.134,searchDisc4,2020.2.10,Win32,60,,,space,0.25686,2,1,0.708955,,0,40,40,431,1,2b,89,3,4,
,,,,,,,,,,,,,,,,,,,,,,,,,,images/exp2c_trial_81_colour1_distractors43_r.png,r,2,001,001,2021-04-11_13h46.10.134,searchDisc4,2020.2.10,Win32,60,,,space,0.26916,2,1,0.55233,,0,41,41,537,1,2c,81,1,43,
,,,,,,,,,,,,,,,,,,,,,,,,,,images/exp1a_trial_11_colour2_distractors43_r.png,r,2,001,001,2021-04-11_13h46.10.134,searchDisc4,2020.2.10,Win32,60,,,space,0.21842,2,1,0.84102,,0,42,42,11,1,1a,11,2,43,
,,,,,,,,,,,,,,,,,,,,,,,,,,images/exp2c_trial_20_colour1_distractors9_l.png,l,1,001,001,2021-04-11_13h46.10.134,searchDisc4,2020.2.10,Win32,60,,,space,0.24257,1,1,0.59523,,0,43,43,476,1,2c,20,1,9,
,,,,,,,,,,,,,,,,,,,,,,,,,,images/exp2b_trial_63_colour2_distractors4_l.png,l,1,001,001,2021-04-11_13h46.10.134,searchDisc4,2020.2.10,Win32,60,,,space,0.24324,1,1,0.68024,,0,44,44,405,1,2b,63,2,4,
,,,,,,,,,,,,,,,,,,,,,,,,,,images/exp2a_trial_87_colour2_distractors43_r.png,r,2,001,001,2021-04-11_13h46.10.134,searchDisc4,2020.2.10,Win32,60,,,space,0.27097,2,1,0.55994,,0,45,45,315,1,2a,87,2,43,
,,,,,,,,,,,,,,,,,,,,,,,,,,images/exp2b_trial_33_colour3_distractors19_l.png,l,1,001,001,2021-04-11_13h46.10.134,searchDisc4,2020.2.10,Win32,60,,,space,0.26421,1,1,0.6673,,0,46,46,375,1,2b,33,3,19,
,,,,,,,,,,,,,,,,,,,,,,,,,,images/exp2c_trial_109_colour3_distractors19_l.png,l,1,001,001,2021-04-11_13h46.10.134,searchDisc4,2020.2.10,Win32,60,,,space,0.23348,2,0,0.54673,,0,47,47,565,1,2c,109,3,19,
,,,,,,,,,,,,,,,,,,,,,,,,,,images/exp1a_trial_102_colour2_distractors9_l.png,l,1,001,001,2021-04-11_13h46.10.134,searchDisc4,2020.2.10,Win32,60,,,space,0.22087,1,1,0.89407,,0,48,48,102,1,1a,102,2,9,
,,,,,,,,,,,,,,,,,,,,,,,,,,images/exp2b_trial_46_colour2_distractors9_r.png,r,2,001,001,2021-04-11_13h46.10.134,searchDisc4,2020.2.10,Win32,60,,,space,0.180705,2,1,0.82357,,0,49,49,388,1,2b,46,2,9,
,,,,,,,,,,,,,,,,,,,,,,,,,,images/exp1a_trial_101_colour2_distractors4_l.png,l,1,001,001,2021-04-11_13h46.10.134,searchDisc4,2020.2.10,Win32,60,,,space,0.157015,1,1,0.684785,,0,50,50,101,1,1a,101,2,4,
,,,,,,,,,,,,,,,,,,,,,,,,,,images/exp1b_trial_98_colour1_distractors31_l.png,l,1,001,001,2021-04-11_13h46.10.134,searchDisc4,2020.2.10,Win32,60,,,space,0.21597,1,1,1.037945,,0,51,51,212,1,1b,98,1,31,
,,,,,,,,,,,,,,,,,,,,,,,,,,images/exp1a_trial_83_colour2_distractors4_r.png,r,2,001,001,2021-04-11_13h46.10.134,searchDisc4,2020.2.10,Win32,60,,,space,0.20857,2,1,0.74388,,0,52,52,83,1,1a,83,2,4,
,,,,,,,,,,,,,,,,,,,,,,,,,,images/exp2a_trial_99_colour1_distractors43_l.png,l,1,001,001,2021-04-11_13h46.10.134,searchDisc4,2020.2.10,Win32,60,,,space,0.26286,1,1,0.610305,,0,53,53,327,1,2a,99,1,43,
,,,,,,,,,,,,,,,,,,,,,,,,,,images/exp2a_trial_27_colour2_distractors19_l.png,l,1,001,001,2021-04-11_13h46.10.134,searchDisc4,2020.2.10,Win32,60,,,space,0.22185,1,1,0.818,,0,54,54,255,1,2a,27,2,19,
,,,,,,,,,,,,,,,,,,,,,,,,,,images/exp2b_trial_97_colour1_distractors19_l.png,l,1,001,001,2021-04-11_13h46.10.134,searchDisc4,2020.2.10,Win32,60,,,space,0.17548,1,1,0.717865,,0,55,55,439,1,2b,97,1,19,
,,,,,,,,,,,,,,,,,,,,,,,,,,images/exp1b_trial_57_colour1_distractors4_l.png,l,1,001,001,2021-04-11_13h46.10.134,searchDisc4,2020.2.10,Win32,60,,,space,0.201545,1,1,1.188695,,0,56,56,171,1,1b,57,1,4,
,,,,,,,,,,,,,,,,,,,,,,,,,,images/exp2b_trial_109_colour3_distractors19_l.png,l,1,001,001,2021-04-11_13h46.10.134,searchDisc4,2020.2.10,Win32,60,,,space,0.257875,1,1,0.661855,,0,57,57,451,1,2b,109,3,19,
,,,,,,,,,,,,,,,,,,,,,,,,,,images/exp2b_trial_5_colour1_distractors43_r.png,r,2,001,001,2021-04-11_13h46.10.134,searchDisc4,2020.2.10,Win32,60,,,space,0.21896,2,1,0.752635,,0,58,58,347,1,2b,5,1,43,
,,,,,,,,,,,,,,,,,,,,,,,,,,images/exp2c_trial_86_colour2_distractors31_r.png,r,2,001,001,2021-04-11_13h46.10.134,searchDisc4,2020.2.10,Win32,60,,,space,0.267185,2,1,0.96449,space,0,59,59,542,1,2c,86,2,31,0.149835
,,,,,,,,,,,,,,,,,,,,,,,,,,images/exp1a_trial_87_colour2_distractors43_r.png,r,2,001,001,2021-04-11_13h46.10.134,searchDisc4,2020.2.10,Win32,60,,,space,1.02369,2,1,0.792595,,0,60,60,87,1,1a,87,2,43,
,,,,,,,,,,,,,,,,,,,,,,,,,,images/exp1b_trial_86_colour2_distractors31_r.png,r,2,001,001,2021-04-11_13h46.10.134,searchDisc4,2020.2.10,Win32,60,,,space,0.194885,2,1,1.359405,,0,61,61,200,1,1b,86,2,31,
,,,,,,,,,,,,,,,,,,,,,,,,,,images/exp1b_trial_46_colour2_distractors9_r.png,r,2,001,001,2021-04-11_13h46.10.134,searchDisc4,2020.2.10,Win32,60,,,space,0.21508,2,1,0.649045,,0,62,62,160,1,1b,46,2,9,
,,,,,,,,,,,,,,,,,,,,,,,,,,images/exp2a_trial_35_colour3_distractors43_l.png,l,1,001,001,2021-04-11_13h46.10.134,searchDisc4,2020.2.10,Win32,60,,,space,0.247745,1,1,0.59898,,0,63,63,263,1,2a,35,3,43,
,,,,,,,,,,,,,,,,,,,,,,,,,,images/exp2c_trial_0_colour1_distractors1_r.png,r,2,001,001,2021-04-11_13h46.10.134,searchDisc4,2020.2.10,Win32,60,,,space,0.232345,2,1,0.619205,,0,64,64,456,1,2c,0,1,1,
,,,,,,,,,,,,,,,,,,,,,,,,,,images/exp2c_trial_112_colour0_distractors0_r.png,r,2,001,001,2021-04-11_13h46.10.134,searchDisc4,2020.2.10,Win32,60,,,space,0.25764,2,1,1.06376,,0,65,65,568,1,2c,112,0,0,
,,,,,,,,,,,,,,,,,,,,,,,,,,images/exp1a_trial_22_colour1_distractors31_l.png,l,1,001,001,2021-04-11_13h46.10.134,searchDisc4,2020.2.10,Win32,60,,,space,0.151385,1,1,0.84829,,0,66,66,22,1,1a,22,1,31,
,,,,,,,,,,,,,,,,,,,,,,,,,,images/exp2c_trial_36_colour0_distractors0_r.png,r,2,001,001,2021-04-11_13h46.10.134,searchDisc4,2020.2.10,Win32,60,,,space,0.230045,2,1,0.55297,,0,67,67,492,1,2c,36,0,0,
,,,,,,,,,,,,,,,,,,,,,,,,,,images/exp2b_trial_56_colour1_distractors1_l.png,l,1,001,001,2021-04-11_13h46.10.134,searchDisc4,2020.2.10,Win32,60,,,space,0.22984,1,1,0.63536,,0,68,68,398,1,2b,56,1,1,
,,,,,,,,,,,,,,,,,,,,,,,,,,images/exp2a_trial_63_colour2_distractors4_l.png,l,1,001,001,2021-04-11_13h46.10.134,searchDisc4,2020.2.10,Win32,60,,,space,0.265605,1,1,0.707815,,0,69,69,291,1,2a,63,2,4,
,,,,,,,,,,,,,,,,,,,,,,,,,,images/exp1b_trial_29_colour2_distractors43_l.png,l,1,001,001,2021-04-11_13h46.10.134,searchDisc4,2020.2.10,Win32,60,,,space,0.18918,1,1,2.382475,,0,70,70,143,1,1b,29,2,43,
,,,,,,,,,,,,,,,,,,,,,,,,,,images/exp2c_trial_67_colour2_distractors43_l.png,l,1,001,001,2021-04-11_13h46.10.134,searchDisc4,2020.2.10,Win32,60,,,space,0.269185,1,1,0.780225,,0,71,71,523,1,2c,67,2,43,
,,,,,,,,,,,,,,,,,,,,,,,,,,images/exp1a_trial_3_colour1_distractors19_r.png,r,2,001,001,2021-04-11_13h46.10.134,searchDisc4,2020.2.10,Win32,60,,,space,0.215075,2,1,1.065895,,0,72,72,3,1,1a,3,1,19,
,,,,,,,,,,,,,,,,,,,,,,,,,,images/exp2c_trial_30_colour3_distractors1_l.png,l,1,001,001,2021-04-11_13h46.10.134,searchDisc4,2020.2.10,Win32,60,,,space,0.223615,2,0,0.978185,,0,73,73,486,1,2c,30,3,1,
,,,,,,,,,,,,,,,,,,,,,,,,,,images/exp1b_trial_20_colour1_distractors9_l.png,l,1,001,001,2021-04-11_13h46.10.134,searchDisc4,2020.2.10,Win32,60,,,space,0.22048,1,1,0.70454,,0,74,74,134,1,1b,20,1,9,
,,,,,,,,,,,,,,,,,,,,,,,,,,images/exp2b_trial_90_colour3_distractors9_r.png,r,2,001,001,2021-04-11_13h46.10.134,searchDisc4,2020.2.10,Win32,60,,,space,0.23129,2,1,0.77655,,0,75,75,432,1,2b,90,3,9,
,,,,,,,,,,,,,,,,,,,,,,,,,,images/exp2b_trial_81_colour1_distractors43_r.png,r,2,001,001,2021-04-11_13h46.10.134,searchDisc4,2020.2.10,Win32,60,,,space,0.249615,2,1,0.85715,,0,76,76,423,1,2b,81,1,43,
,,,,,,,,,,,,,,,,,,,,,,,,,,images/exp2c_trial_23_colour1_distractors43_l.png,l,1,001,001,2021-04-11_13h46.10.134,searchDisc4,2020.2.10,Win32,60,,,space,0.187885,1,1,0.661995,,0,77,77,479,1,2c,23,1,43,
,,,,,,,,,,,,,,,,,,,,,,,,,,images/exp1a_trial_107_colour3_distractors4_l.png,l,1,001,001,2021-04-11_13h46.10.134,searchDisc4,2020.2.10,Win32,60,,,space,0.25736,2,0,0.657215,,0,78,78,107,1,1a,107,3,4,
,,,,,,,,,,,,,,,,,,,,,,,,,,images/exp2a_trial_58_colour1_distractors9_l.png,l,1,001,001,2021-04-11_13h46.10.134,searchDisc4,2020.2.10,Win32,60,,,space,0.1669,1,1,0.61917,,0,79,79,286,1,2a,58,1,9,
,,,,,,,,,,,,,,,,,,,,,,,,,,images/exp1a_trial_73_colour3_distractors43_l.png,l,1,001,001,2021-04-11_13h46.10.134,searchDisc4,2020.2.10,Win32,60,,,space,0.19506,1,1,0.90477,,0,80,80,73,1,1a,73,3,43,
,,,,,,,,,,,,,,,,,,,,,,,,,,images/exp2c_trial_91_colour3_distractors19_r.png,r,2,001,001,2021-04-11_13h46.10.134,searchDisc4,2020.2.10,Win32,60,,,space,0.18575,2,1,0.623715,,0,81,81,547,1,2c,91,3,19,
,,,,,,,,,,,,,,,,,,,,,,,,,,images/exp2b_trial_49_colour2_distractors43_r.png,r,2,001,001,2021-04-11_13h46.10.134,searchDisc4,2020.2.10,Win32,60,,,space,0.18768,2,1,0.71034,,0,82,82,391,1,2b,49,2,43,
,,,,,,,,,,,,,,,,,,,,,,,,,,images/exp2a_trial_60_colour1_distractors31_l.png,l,1,001,001,2021-04-11_13h46.10.134,searchDisc4,2020.2.10,Win32,60,,,space,0.201535,1,1,1.043805,,0,83,83,288,1,2a,60,1,31,
,,,,,,,,,,,,,,,,,,,,,,,,,,images/exp1a_trial_75_colour0_distractors0_l.png,l,1,001,001,2021-04-11_13h46.10.134,searchDisc4,2020.2.10,Win32,60,,,space,0.195605,1,1,0.63837,,0,84,84,75,1,1a,75,0,0,
,,,,,,,,,,,,,,,,,,,,,,,,,,images/exp1a_trial_23_colour1_distractors43_l.png,l,1,001,001,2021-04-11_13h46.10.134,searchDisc4,2020.2.10,Win32,60,,,space,0.21372,1,1,0.816755,,0,85,85,23,1,1a,23,1,43,
,,,,,,,,,,,,,,,,,,,,,,,,,,images/exp2b_trial_25_colour2_distractors4_l.png,l,1,001,001,2021-04-11_13h46.10.134,searchDisc4,2020.2.10,Win32,60,,,space,0.188615,1,1,0.6072,,0,86,86,367,1,2b,25,2,4,
,,,,,,,,,,,,,,,,,,,,,,,,,,images/exp1b_trial_110_colour3_distractors31_l.png,l,1,001,001,2021-04-11_13h46.10.134,searchDisc4,2020.2.10,Win32,60,,,space,0.19354,2,0,1.32996,,0,87,87,224,1,1b,110,3,31,
,,,,,,,,,,,,,,,,,,,,,,,,,,images/exp2b_trial_16_colour3_distractors31_r.png,r,2,001,001,2021-04-11_13h46.10.134,searchDisc4,2020.2.10,Win32,60,,,space,0.070255,2,1,1.48091,,0,88,88,358,1,2b,16,3,31,
,,,,,,,,,,,,,,,,,,,,,,,,,,images/exp2b_trial_77_colour1_distractors4_r.png,r,2,001,001,2021-04-11_13h46.10.134,searchDisc4,2020.2.10,Win32,60,,,space,0.213915,2,1,1.14801,,0,89,89,419,1,2b,77,1,4,
,,,,,,,,,,,,,,,,,,,,,,,,,,images/exp1a_trial_51_colour3_distractors4_r.png,r,2,001,001,2021-04-11_13h46.10.134,searchDisc4,2020.2.10,Win32,60,,,space,0.15369,2,1,0.649365,,0,90,90,51,1,1a,51,3,4,
,,,,,,,,,,,,,,,,,,,,,,,,,,images/exp2b_trial_108_colour3_distractors9_l.png,l,1,001,001,2021-04-11_13h46.10.134,searchDisc4,2020.2.10,Win32,60,,,space,0.1691,1,1,0.709465,,0,91,91,450,1,2b,108,3,9,
,,,,,,,,,,,,,,,,,,,,,,,,,,images/exp1b_trial_104_colour2_distractors31_l.png,l,1,001,001,2021-04-11_13h46.10.134,searchDisc4,2020.2.10,Win32,60,,,space,0.20658,1,1,0.94569,,0,92,92,218,1,1b,104,2,31,
,,,,,,,,,,,,,,,,,,,,,,,,,,images/exp1b_trial_73_colour3_distractors43_l.png,l,1,001,001,2021-04-11_13h46.10.134,searchDisc4,2020.2.10,Win32,60,,,space,0.23119,1,1,0.78987,,0,93,93,187,1,1b,73,3,43,
,,,,,,,,,,,,,,,,,,,,,,,,,,images/exp1a_trial_47_colour2_distractors19_r.png,r,2,001,001,2021-04-11_13h46.10.134,searchDisc4,2020.2.10,Win32,60,,,space,0.153055,2,1,0.992015,,0,94,94,47,1,1a,47,2,19,
,,,,,,,,,,,,,,,,,,,,,,,,,,images/exp2a_trial_59_colour1_distractors19_l.png,l,1,001,001,2021-04-11_13h46.10.134,searchDisc4,2020.2.10,Win32,60,,,space,0.097145,1,1,0.900125,,0,95,95,287,1,2a,59,1,19,
,,,,,,,,,,,,,,,,,,,,,,,,,,images/exp2c_trial_75_colour0_distractors0_l.png,l,1,001,001,2021-04-11_13h46.10.134,searchDisc4,2020.2.10,Win32,60,,,space,0.19699,1,1,0.613365,,0,96,96,531,1,2c,75,0,0,
,,,,,,,,,,,,,,,,,,,,,,,,,,images/exp2c_trial_17_colour3_distractors43_r.png,r,2,001,001,2021-04-11_13h46.10.134,searchDisc4,2020.2.10,Win32,60,,,space,0.857665,2,1,0.8321,,0,97,97,473,1,2c,17,3,43,
,,,,,,,,,,,,,,,,,,,,,,,,,,images/exp1a_trial_97_colour1_distractors19_l.png,l,1,001,001,2021-04-11_13h46.10.134,searchDisc4,2020.2.10,Win32,60,,,space,0.220275,1,1,0.638595,,0,98,98,97,1,1a,97,1,19,
,,,,,,,,,,,,,,,,,,,,,,,,,,images/exp2b_trial_13_colour3_distractors4_r.png,r,2,001,001,2021-04-11_13h46.10.134,searchDisc4,2020.2.10,Win32,60,,,space,0.21571,2,1,0.69587,,0,99,99,355,1,2b,13,3,4,
,,,,,,,,,,,,,,,,,,,,,,,,,,images/exp2a_trial_25_colour2_distractors4_l.png,l,1,001,001,2021-04-11_13h46.10.134,searchDisc4,2020.2.10,Win32,60,,,space,0.23104,1,1,0.624515,,0,100,100,253,1,2a,25,2,4,
,,,,,,,,,,,,,,,,,,,,,,,,,,images/exp1a_trial_103_colour2_distractors19_l.png,l,1,001,001,2021-04-11_13h46.10.134,searchDisc4,2020.2.10,Win32,60,,,space,0.21458,1,1,0.70284,,0,101,101,103,1,1a,103,2,19,
,,,,,,,,,,,,,,,,,,,,,,,,,,images/exp2b_trial_55_colour3_distractors43_r.png,r,2,001,001,2021-04-11_13h46.10.134,searchDisc4,2020.2.10,Win32,60,,,space,0.201655,2,1,0.732705,,0,102,102,397,1,2b,55,3,43,
,,,,,,,,,,,,,,,,,,,,,,,,,,images/exp2c_trial_31_colour3_distractors4_l.png,l,1,001,001,2021-04-11_13h46.10.134,searchDisc4,2020.2.10,Win32,60,,,space,0.23922,1,1,0.534465,,0,103,103,487,1,2c,31,3,4,
,,,,,,,,,,,,,,,,,,,,,,,,,,images/exp2b_trial_11_colour2_distractors43_r.png,r,2,001,001,2021-04-11_13h46.10.134,searchDisc4,2020.2.10,Win32,60,,,space,0.26409,2,1,0.620585,,0,104,104,353,1,2b,11,2,43,
,,,,,,,,,,,,,,,,,,,,,,,,,,images/exp1a_trial_69_colour3_distractors4_l.png,l,1,001,001,2021-04-11_13h46.10.134,searchDisc4,2020.2.10,Win32,60,,,space,0.236575,1,1,0.835115,,0,105,105,69,1,1a,69,3,4,
,,,,,,,,,,,,,,,,,,,,,,,,,,images/exp2b_trial_3_colour1_distractors19_r.png,r,2,001,001,2021-04-11_13h46.10.134,searchDisc4,2020.2.10,Win32,60,,,space,0.18451,2,1,0.492215,,0,106,106,345,1,2b,3,1,19,
,,,,,,,,,,,,,,,,,,,,,,,,,,images/exp2b_trial_67_colour2_distractors43_l.png,l,1,001,001,2021-04-11_13h46.10.134,searchDisc4,2020.2.10,Win32,60,,,space,0.15808,1,1,0.5632,,0,107,107,409,1,2b,67,2,43,
,,,,,,,,,,,,,,,,,,,,,,,,,,images/exp2b_trial_105_colour2_distractors43_l.png,l,1,001,001,2021-04-11_13h46.10.134,searchDisc4,2020.2.10,Win32,60,,,space,0.261705,1,1,0.94052,,0,108,108,447,1,2b,105,2,43,
,,,,,,,,,,,,,,,,,,,,,,,,,,images/exp1b_trial_93_colour3_distractors43_r.png,r,2,001,001,2021-04-11_13h46.10.134,searchDisc4,2020.2.10,Win32,60,,,space,0.16128,2,1,1.136155,,0,109,109,207,1,1b,93,3,43,
,,,,,,,,,,,,,,,,,,,,,,,,,,images/exp2b_trial_38_colour1_distractors1_r.png,r,2,001,001,2021-04-11_13h46.10.134,searchDisc4,2020.2.10,Win32,60,,,space,0.15715,2,1,0.958115,,0,110,110,380,1,2b,38,1,1,
,,,,,,,,,,,,,,,,,,,,,,,,,,images/exp2a_trial_3_colour1_distractors19_r.png,r,2,001,001,2021-04-11_13h46.10.134,searchDisc4,2020.2.10,Win32,60,,,space,0.25523,2,1,1.10136,,0,111,111,231,1,2a,3,1,19,
,,,,,,,,,,,,,,,,,,,,,,,,,,images/exp2a_trial_103_colour2_distractors19_l.png,l,1,001,001,2021-04-11_13h46.10.134,searchDisc4,2020.2.10,Win32,60,,,space,0.209405,1,1,0.65333,,0,112,112,331,1,2a,103,2,19,
,,,,,,,,,,,,,,,,,,,,,,,,,,images/exp2a_trial_29_colour2_distractors43_l.png,l,1,001,001,2021-04-11_13h46.10.134,searchDisc4,2020.2.10,Win32,60,,,space,0.284795,1,1,0.63655,,0,113,113,257,1,2a,29,2,43,
,,,,,,,,,,,,,,,,,,,,,,,,,,images/exp2b_trial_54_colour3_distractors31_r.png,r,2,001,001,2021-04-11_13h46.10.134,searchDisc4,2020.2.10,Win32,60,,,space,0.24768,2,1,0.89499,,0,114,114,396,1,2b,54,3,31,
,,,,,,,,,,,,,,,,,,,,,,,,,,images/exp2b_trial_36_colour0_distractors0_r.png,r,2,001,001,2021-04-11_13h46.10.134,searchDisc4,2020.2.10,Win32,60,,,space,0.225805,2,1,0.759185,,0,115,115,378,1,2b,36,0,0,
,,,,,,,,,,,,,,,,,,,,,,,,,,images/exp2c_trial_19_colour1_distractors4_l.png,l,1,001,001,2021-04-11_13h46.10.134,searchDisc4,2020.2.10,Win32,60,,,space,0.25991,1,1,0.572765,,0,116,116,475,1,2c,19,1,4,
,,,,,,,,,,,,,,,,,,,,,,,,,,images/exp1a_trial_110_colour3_distractors31_l.png,l,1,001,001,2021-04-11_13h46.10.134,searchDisc4,2020.2.10,Win32,60,,,space,0.24149,1,1,0.745135,,0,117,117,110,1,1a,110,3,31,
,,,,,,,,,,,,,,,,,,,,,,,,,,images/exp2a_trial_10_colour2_distractors31_r.png,r,2,001,001,2021-04-11_13h46.10.134,searchDisc4,2020.2.10,Win32,60,,,space,0.24175,2,1,0.638205,,0,118,118,238,1,2a,10,2,31,
,,,,,,,,,,,,,,,,,,,,,,,,,,images/exp1b_trial_42_colour1_distractors31_r.png,r,2,001,001,2021-04-11_13h46.10.134,searchDisc4,2020.2.10,Win32,60,,,space,0.248415,2,1,1.875935,space,0,119,119,156,1,1b,42,1,31,0.161805
,,,,,,,,,,,,,,,,,,,,,,,,,,images/exp1b_trial_83_colour2_distractors4_r.png,r,2,001,001,2021-04-11_13h46.10.134,searchDisc4,2020.2.10,Win32,60,,,space,0.84998,2,1,0.695195,,0,120,120,197,1,1b,83,2,4,
,,,,,,,,,,,,,,,,,,,,,,,,,,images/exp1b_trial_88_colour3_distractors1_r.png,r,2,001,001,2021-04-11_13h46.10.134,searchDisc4,2020.2.10,Win32,60,,,space,0.196055,2,1,0.543775,,0,121,121,202,1,1b,88,3,1,
,,,,,,,,,,,,,,,,,,,,,,,,,,images/exp2c_trial_104_colour2_distractors31_l.png,l,1,001,001,2021-04-11_13h46.10.134,searchDisc4,2020.2.10,Win32,60,,,space,0.26376,1,1,0.636805,,0,122,122,560,1,2c,104,2,31,
,,,,,,,,,,,,,,,,,,,,,,,,,,images/exp1b_trial_18_colour1_distractors1_l.png,l,1,001,001,2021-04-11_13h46.10.134,searchDisc4,2020.2.10,Win32,60,,,space,0.25184,1,1,1.04732,,0,123,123,132,1,1b,18,1,1,
,,,,,,,,,,,,,,,,,,,,,,,,,,images/exp2b_trial_51_colour3_distractors4_r.png,r,2,001,001,2021-04-11_13h46.10.134,searchDisc4,2020.2.10,Win32,60,,,space,0.19966,2,1,0.948,,0,124,124,393,1,2b,51,3,4,
,,,,,,,,,,,,,,,,,,,,,,,,,,images/exp2a_trial_23_colour1_distractors43_l.png,l,1,001,001,2021-04-11_13h46.10.134,searchDisc4,2020.2.10,Win32,60,,,space,0.15536,1,1,1.042955,,0,125,125,251,1,2a,23,1,43,
,,,,,,,,,,,,,,,,,,,,,,,,,,images/exp1b_trial_90_colour3_distractors9_r.png,r,2,001,001,2021-04-11_13h46.10.134,searchDisc4,2020.2.10,Win32,60,,,space,0.2294,2,1,0.79812,,0,126,126,204,1,1b,90,3,9,
,,,,,,,,,,,,,,,,,,,,,,,,,,images/exp2c_trial_53_colour3_distractors19_r.png,r,2,001,001,2021-04-11_13h46.10.134,searchDisc4,2020.2.10,Win32,60,,,space,0.21539,2,1,1.06054,,0,127,127,509,1,2c,53,3,19,
,,,,,,,,,,,,,,,,,,,,,,,,,,images/exp2a_trial_1_colour1_distractors4_r.png,r,2,001,001,2021-04-11_13h46.10.134,searchDisc4,2020.2.10,Win32,60,,,space,0.314795,2,1,0.750085,,0,128,128,229,1,2a,1,1,4,
,,,,,,,,,,,,,,,,,,,,,,,,,,images/exp2a_trial_39_colour1_distractors4_r.png,r,2,001,001,2021-04-11_13h46.10.134,searchDisc4,2020.2.10,Win32,60,,,space,0.193505,2,1,0.825215,,0,129,129,267,1,2a,39,1,4,
,,,,,,,,,,,,,,,,,,,,,,,,,,images/exp2a_trial_88_colour3_distractors1_r.png,r,2,001,001,2021-04-11_13h46.10.134,searchDisc4,2020.2.10,Win32,60,,,space,0.18229,2,1,0.60488,,0,130,130,316,1,2a,88,3,1,
,,,,,,,,,,,,,,,,,,,,,,,,,,images/exp1a_trial_79_colour1_distractors19_r.png,r,2,001,001,2021-04-11_13h46.10.134,searchDisc4,2020.2.10,Win32,60,,,space,0.216215,2,1,0.551295,,0,131,131,79,1,1a,79,1,19,
,,,,,,,,,,,,,,,,,,,,,,,,,,images/exp2c_trial_66_colour2_distractors31_l.png,l,1,001,001,2021-04-11_13h46.10.134,searchDisc4,2020.2.10,Win32,60,,,space,0.21454,1,1,0.635915,,0,132,132,522,1,2c,66,2,31,
,,,,,,,,,,,,,,,,,,,,,,,,,,images/exp2a_trial_5_colour1_distractors43_r.png,r,2,001,001,2021-04-11_13h46.10.134,searchDisc4,2020.2.10,Win32,60,,,space,0.222965,2,1,1.40348,,0,133,133,233,1,2a,5,1,43,
,,,,,,,,,,,,,,,,,,,,,,,,,,images/exp1b_trial_4_colour1_distractors31_r.png,r,2,001,001,2021-04-11_13h46.10.134,searchDisc4,2020.2.10,Win32,60,,,space,0.02103,2,1,1.070525,,0,134,134,118,1,1b,4,1,31,
,,,,,,,,,,,,,,,,,,,,,,,,,,images/exp1b_trial_81_colour1_distractors43_r.png,r,2,001,001,2021-04-11_13h46.10.134,searchDisc4,2020.2.10,Win32,60,,,space,0.117625,2,1,0.88797,,0,135,135,195,1,1b,81,1,43,
,,,,,,,,,,,,,,,,,,,,,,,,,,images/exp2b_trial_61_colour1_distractors43_l.png,l,1,001,001,2021-04-11_13h46.10.134,searchDisc4,2020.2.10,Win32,60,,,space,0.095375,1,1,0.957195,,0,136,136,403,1,2b,61,1,43,
,,,,,,,,,,,,,,,,,,,,,,,,,,images/exp1a_trial_34_colour3_distractors31_l.png,l,1,001,001,2021-04-11_13h46.10.134,searchDisc4,2020.2.10,Win32,60,,,space,0.24172,1,1,0.64652,,0,137,137,34,1,1a,34,3,31,
,,,,,,,,,,,,,,,,,,,,,,,,,,images/exp1a_trial_15_colour3_distractors19_r.png,r,2,001,001,2021-04-11_13h46.10.134,searchDisc4,2020.2.10,Win32,60,,,space,0.166915,2,1,0.77756,,0,138,138,15,1,1a,15,3,19,
,,,,,,,,,,,,,,,,,,,,,,,,,,images/exp1a_trial_40_colour1_distractors9_r.png,r,2,001,001,2021-04-11_13h46.10.134,searchDisc4,2020.2.10,Win32,60,,,space,0.060415,2,1,0.668335,,0,139,139,40,1,1a,40,1,9,
,,,,,,,,,,,,,,,,,,,,,,,,,,images/exp2b_trial_10_colour2_distractors31_r.png,r,2,001,001,2021-04-11_13h46.10.134,searchDisc4,2020.2.10,Win32,60,,,space,0.15294,2,1,0.788345,,0,140,140,352,1,2b,10,2,31,
,,,,,,,,,,,,,,,,,,,,,,,,,,images/exp2a_trial_8_colour2_distractors9_r.png,r,2,001,001,2021-04-11_13h46.10.134,searchDisc4,2020.2.10,Win32,60,,,space,0.133655,2,1,0.671775,,0,141,141,236,1,2a,8,2,9,
,,,,,,,,,,,,,,,,,,,,,,,,,,images/exp2b_trial_88_colour3_distractors1_r.png,r,2,001,001,2021-04-11_13h46.10.134,searchDisc4,2020.2.10,Win32,60,,,space,0.13733,2,1,0.678775,,0,142,142,430,1,2b,88,3,1,
,,,,,,,,,,,,,,,,,,,,,,,,,,images/exp1b_trial_11_colour2_distractors43_r.png,r,2,001,001,2021-04-11_13h46.10.134,searchDisc4,2020.2.10,Win32,60,,,space,0.06985,1,0,1.07535,,0,143,143,125,1,1b,11,2,43,
,,,,,,,,,,,,,,,,,,,,,,,,,,images/exp1a_trial_13_colour3_distractors4_r.png,r,2,001,001,2021-04-11_13h46.10.134,searchDisc4,2020.2.10,Win32,60,,,space,0.190005,2,1,0.62623,,0,144,144,13,1,1a,13,3,4,
,,,,,,,,,,,,,,,,,,,,,,,,,,images/exp2b_trial_43_colour1_distractors43_r.png,r,2,001,001,2021-04-11_13h46.10.134,searchDisc4,2020.2.10,Win32,60,,,space,0.04278,2,1,0.709405,,0,145,145,385,1,2b,43,1,43,
,,,,,,,,,,,,,,,,,,,,,,,,,,images/exp2a_trial_65_colour2_distractors19_l.png,l,1,001,001,2021-04-11_13h46.10.134,searchDisc4,2020.2.10,Win32,60,,,space,0.25352,1,1,0.649385,,0,146,146,293,1,2a,65,2,19,
,,,,,,,,,,,,,,,,,,,,,,,,,,images/exp1b_trial_100_colour2_distractors1_l.png,l,1,001,001,2021-04-11_13h46.10.134,searchDisc4,2020.2.10,Win32,60,,,space,0.218115,2,0,0.613935,,0,147,147,214,1,1b,100,2,1,
,,,,,,,,,,,,,,,,,,,,,,,,,,images/exp1b_trial_77_colour1_distractors4_r.png,r,2,001,001,2021-04-11_13h46.10.134,searchDisc4,2020.2.10,Win32,60,,,space,0.187875,2,1,0.73563,,0,148,148,191,1,1b,77,1,4,
,,,,,,,,,,,,,,,,,,,,,,,,,,images/exp1a_trial_105_colour2_distractors43_l.png,l,1,001,001,2021-04-11_13h46.10.134,searchDisc4,2020.2.10,Win32,60,,,space,0.20156,1,1,0.59375,,0,149,149,105,1,1a,105,2,43,
,,,,,,,,,,,,,,,,,,,,,,,,,,images/exp2a_trial_20_colour1_distractors9_l.png,l,1,001,001,2021-04-11_13h46.10.134,searchDisc4,2020.2.10,Win32,60,,,space,0.17877,1,1,1.02122,,0,150,150,248,1,2a,20,1,9,
,,,,,,,,,,,,,,,,,,,,,,,,,,images/exp1a_trial_66_colour2_distractors31_l.png,l,1,001,001,2021-04-11_13h46.10.134,searchDisc4,2020.2.10,Win32,60,,,space,0.21816,1,1,0.634235,,0,151,151,66,1,1a,66,2,31,
,,,,,,,,,,,,,,,,,,,,,,,,,,images/exp1a_trial_94_colour1_distractors1_l.png,l,1,001,001,2021-04-11_13h46.10.134,searchDisc4,2020.2.10,Win32,60,,,space,0.369635,1,1,0.808065,,0,152,152,94,1,1a,94,1,1,
,,,,,,,,,,,,,,,,,,,,,,,,,,images/exp1a_trial_76_colour1_distractors1_r.png,r,2,001,001,2021-04-11_13h46.10.134,searchDisc4,2020.2.10,Win32,60,,,space,0.22233,2,1,0.761245,,0,153,153,76,1,1a,76,1,1,
,,,,,,,,,,,,,,,,,,,,,,,,,,images/exp1b_trial_69_colour3_distractors4_l.png,l,1,001,001,2021-04-11_13h46.10.134,searchDisc4,2020.2.10,Win32,60,,,space,0.224535,1,1,1.001225,,0,154,154,183,1,1b,69,3,4,
,,,,,,,,,,,,,,,,,,,,,,,,,,images/exp2b_trial_45_colour2_distractors4_r.png,r,2,001,001,2021-04-11_13h46.10.134,searchDisc4,2020.2.10,Win32,60,,,space,0.230855,2,1,0.51664,,0,155,155,387,1,2b,45,2,4,
,,,,,,,,,,,,,,,,,,,,,,,,,,images/exp1a_trial_78_colour1_distractors9_r.png,r,2,001,001,2021-04-11_13h46.10.134,searchDisc4,2020.2.10,Win32,60,,,space,0.230775,2,1,0.96275,,0,156,156,78,1,1a,78,1,9,
,,,,,,,,,,,,,,,,,,,,,,,,,,images/exp1a_trial_55_colour3_distractors43_r.png,r,2,001,001,2021-04-11_13h46.10.134,searchDisc4,2020.2.10,Win32,60,,,space,0.192075,2,1,0.58227,,0,157,157,55,1,1a,55,3,43,
,,,,,,,,,,,,,,,,,,,,,,,,,,images/exp1a_trial_74_colour0_distractors0_r.png,r,2,001,001,2021-04-11_13h46.10.134,searchDisc4,2020.2.10,Win32,60,,,space,0.24357,2,1,0.55116,,0,158,158,74,1,1a,74,0,0,
,,,,,,,,,,,,,,,,,,,,,,,,,,images/exp1b_trial_79_colour1_distractors19_r.png,r,2,001,001,2021-04-11_13h46.10.134,searchDisc4,2020.2.10,Win32,60,,,space,0.28007,2,1,0.682895,,0,159,159,193,1,1b,79,1,19,
,,,,,,,,,,,,,,,,,,,,,,,,,,images/exp2c_trial_47_colour2_distractors19_r.png,r,2,001,001,2021-04-11_13h46.10.134,searchDisc4,2020.2.10,Win32,60,,,space,0.147175,2,1,0.648795,,0,160,160,503,1,2c,47,2,19,
,,,,,,,,,,,,,,,,,,,,,,,,,,images/exp1a_trial_89_colour3_distractors4_r.png,r,2,001,001,2021-04-11_13h46.10.134,searchDisc4,2020.2.10,Win32,60,,,space,0.18078,2,1,0.55507,,0,161,161,89,1,1a,89,3,4,
,,,,,,,,,,,,,,,,,,,,,,,,,,images/exp2c_trial_24_colour2_distractors1_l.png,l,1,001,001,2021-04-11_13h46.10.134,searchDisc4,2020.2.10,Win32,60,,,space,0.213435,1,1,0.71518,,0,162,162,480,1,2c,24,2,1,
,,,,,,,,,,,,,,,,,,,,,,,,,,images/exp2a_trial_108_colour3_distractors9_l.png,l,1,001,001,2021-04-11_13h46.10.134,searchDisc4,2020.2.10,Win32,60,,,space,0.238865,1,1,0.499035,,0,163,163,336,1,2a,108,3,9,
,,,,,,,,,,,,,,,,,,,,,,,,,,images/exp1b_trial_3_colour1_distractors19_r.png,r,2,001,001,2021-04-11_13h46.10.134,searchDisc4,2020.2.10,Win32,60,,,space,0.240495,2,1,0.870315,,0,164,164,117,1,1b,3,1,19,
,,,,,,,,,,,,,,,,,,,,,,,,,,images/exp1b_trial_36_colour0_distractors0_r.png,r,2,001,001,2021-04-11_13h46.10.134,searchDisc4,2020.2.10,Win32,60,,,space,0.23149,2,1,0.71477,,0,165,165,150,1,1b,36,0,0,
,,,,,,,,,,,,,,,,,,,,,,,,,,images/exp2c_trial_21_colour1_distractors19_l.png,l,1,001,001,2021-04-11_13h46.10.134,searchDisc4,2020.2.10,Win32,60,,,space,0.240955,1,1,0.59156,,0,166,166,477,1,2c,21,1,19,
,,,,,,,,,,,,,,,,,,,,,,,,,,images/exp1b_trial_60_colour1_distractors31_l.png,l,1,001,001,2021-04-11_13h46.10.134,searchDisc4,2020.2.10,Win32,60,,,space,0.297055,1,1,1.57311,,0,167,167,174,1,1b,60,1,31,
,,,,,,,,,,,,,,,,,,,,,,,,,,images/exp2a_trial_94_colour1_distractors1_l.png,l,1,001,001,2021-04-11_13h46.10.134,searchDisc4,2020.2.10,Win32,60,,,space,0.22242,1,1,0.722715,,0,168,168,322,1,2a,94,1,1,
,,,,,,,,,,,,,,,,,,,,,,,,,,images/exp2c_trial_80_colour1_distractors31_r.png,r,2,001,001,2021-04-11_13h46.10.134,searchDisc4,2020.2.10,Win32,60,,,space,0.24368,2,1,0.882355,,0,169,169,536,1,2c,80,1,31,
,,,,,,,,,,,,,,,,,,,,,,,,,,images/exp1b_trial_92_colour3_distractors31_r.png,r,2,001,001,2021-04-11_13h46.10.134,searchDisc4,2020.2.10,Win32,60,,,space,0.22066,2,1,0.96486,,0,170,170,206,1,1b,92,3,31,
,,,,,,,,,,,,,,,,,,,,,,,,,,images/exp1b_trial_56_colour1_distractors1_l.png,l,1,001,001,2021-04-11_13h46.10.134,searchDisc4,2020.2.10,Win32,60,,,space,0.192915,1,1,1.244315,,0,171,171,170,1,1b,56,1,1,
,,,,,,,,,,,,,,,,,,,,,,,,,,images/exp1a_trial_54_colour3_distractors31_r.png,r,2,001,001,2021-04-11_13h46.10.134,searchDisc4,2020.2.10,Win32,60,,,space,0.189605,2,1,0.55427,,0,172,172,54,1,1a,54,3,31,
,,,,,,,,,,,,,,,,,,,,,,,,,,images/exp2a_trial_105_colour2_distractors43_l.png,l,1,001,001,2021-04-11_13h46.10.134,searchDisc4,2020.2.10,Win32,60,,,space,0.236455,1,1,0.663785,,0,173,173,333,1,2a,105,2,43,
,,,,,,,,,,,,,,,,,,,,,,,,,,images/exp2b_trial_19_colour1_distractors4_l.png,l,1,001,001,2021-04-11_13h46.10.134,searchDisc4,2020.2.10,Win32,60,,,space,0.277985,2,0,0.683985,,0,174,174,361,1,2b,19,1,4,
,,,,,,,,,,,,,,,,,,,,,,,,,,images/exp2c_trial_13_colour3_distractors4_r.png,r,2,001,001,2021-04-11_13h46.10.134,searchDisc4,2020.2.10,Win32,60,,,space,0.208535,2,1,0.68661,,0,175,175,469,1,2c,13,3,4,
,,,,,,,,,,,,,,,,,,,,,,,,,,images/exp2a_trial_13_colour3_distractors4_r.png,r,2,001,001,2021-04-11_13h46.10.134,searchDisc4,2020.2.10,Win32,60,,,space,0.224225,2,1,0.80973,,0,176,176,241,1,2a,13,3,4,
,,,,,,,,,,,,,,,,,,,,,,,,,,images/exp2c_trial_49_colour2_distractors43_r.png,r,2,001,001,2021-04-11_13h46.10.134,searchDisc4,2020.2.10,Win32,60,,,space,0.299215,2,1,0.67055,,0,177,177,505,1,2c,49,2,43,
,,,,,,,,,,,,,,,,,,,,,,,,,,images/exp2c_trial_39_colour1_distractors4_r.png,r,2,001,001,2021-04-11_13h46.10.134,searchDisc4,2020.2.10,Win32,60,,,space,0.27115,2,1,0.52097,,0,178,178,495,1,2c,39,1,4,
,,,,,,,,,,,,,,,,,,,,,,,,,,images/exp2c_trial_78_colour1_distractors9_r.png,r,2,001,001,2021-04-11_13h46.10.134,searchDisc4,2020.2.10,Win32,60,,,space,0.314,2,1,0.55757,space,0,179,179,534,1,2c,78,1,9,0.239705
,,,,,,,,,,,,,,,,,,,,,,,,,,images/exp2a_trial_15_colour3_distractors19_r.png,r,2,001,001,2021-04-11_13h46.10.134,searchDisc4,2020.2.10,Win32,60,,,space,0.842155,2,1,0.505795,,0,180,180,243,1,2a,15,3,19,
,,,,,,,,,,,,,,,,,,,,,,,,,,images/exp1a_trial_50_colour3_distractors1_r.png,r,2,001,001,2021-04-11_13h46.10.134,searchDisc4,2020.2.10,Win32,60,,,space,0.23062,2,1,0.595405,,0,181,181,50,1,1a,50,3,1,
,,,,,,,,,,,,,,,,,,,,,,,,,,images/exp1b_trial_84_colour2_distractors9_r.png,r,2,001,001,2021-04-11_13h46.10.134,searchDisc4,2020.2.10,Win32,60,,,space,0.22528,2,1,0.585045,,0,182,182,198,1,1b,84,2,9,
,,,,,,,,,,,,,,,,,,,,,,,,,,images/exp1a_trial_98_colour1_distractors31_l.png,l,1,001,001,2021-04-11_13h46.10.134,searchDisc4,2020.2.10,Win32,60,,,space,0.22774,1,1,0.83978,,0,183,183,98,1,1a,98,1,31,
,,,,,,,,,,,,,,,,,,,,,,,,,,images/exp2a_trial_112_colour0_distractors0_r.png,r,2,001,001,2021-04-11_13h46.10.134,searchDisc4,2020.2.10,Win32,60,,,space,0.21427,2,1,1.128355,,0,184,184,340,1,2a,112,0,0,
,,,,,,,,,,,,,,,,,,,,,,,,,,images/exp2c_trial_35_colour3_distractors43_l.png,l,1,001,001,2021-04-11_13h46.10.134,searchDisc4,2020.2.10,Win32,60,,,space,0.22235,2,0,0.91744,,0,185,185,491,1,2c,35,3,43,
,,,,,,,,,,,,,,,,,,,,,,,,,,images/exp2b_trial_101_colour2_distractors4_l.png,l,1,001,001,2021-04-11_13h46.10.134,searchDisc4,2020.2.10,Win32,60,,,space,0.299305,1,1,0.607595,,0,186,186,443,1,2b,101,2,4,
,,,,,,,,,,,,,,,,,,,,,,,,,,images/exp2b_trial_8_colour2_distractors9_r.png,r,2,001,001,2021-04-11_13h46.10.134,searchDisc4,2020.2.10,Win32,60,,,space,0.249935,2,1,0.62038,,0,187,187,350,1,2b,8,2,9,
,,,,,,,,,,,,,,,,,,,,,,,,,,images/exp2b_trial_52_colour3_distractors9_r.png,r,2,001,001,2021-04-11_13h46.10.134,searchDisc4,2020.2.10,Win32,60,,,space,0.273175,2,1,0.73564,,0,188,188,394,1,2b,52,3,9,
,,,,,,,,,,,,,,,,,,,,,,,,,,images/exp2c_trial_18_colour1_distractors1_l.png,l,1,001,001,2021-04-11_13h46.10.134,searchDisc4,2020.2.10,Win32,60,,,space,0.2945,1,1,0.830085,,0,189,189,474,1,2c,18,1,1,
,,,,,,,,,,,,,,,,,,,,,,,,,,images/exp2b_trial_102_colour2_distractors9_l.png,l,1,001,001,2021-04-11_13h46.10.134,searchDisc4,2020.2.10,Win32,60,,,space,0.229305,1,1,0.677075,,0,190,190,444,1,2b,102,2,9,
,,,,,,,,,,,,,,,,,,,,,,,,,,images/exp2c_trial_70_colour3_distractors9_l.png,l,1,001,001,2021-04-11_13h46.10.134,searchDisc4,2020.2.10,Win32,60,,,space,0.199405,1,1,0.577515,,0,191,191,526,1,2c,70,3,9,
,,,,,,,,,,,,,,,,,,,,,,,,,,images/exp2a_trial_37_colour0_distractors0_l.png,l,1,001,001,2021-04-11_13h46.10.134,searchDisc4,2020.2.10,Win32,60,,,space,0.221435,1,1,0.58342,,0,192,192,265,1,2a,37,0,0,
,,,,,,,,,,,,,,,,,,,,,,,,,,images/exp2b_trial_18_colour1_distractors1_l.png,l,1,001,001,2021-04-11_13h46.10.134,searchDisc4,2020.2.10,Win32,60,,,space,0.230785,1,1,0.524455,,0,193,193,360,1,2b,18,1,1,
,,,,,,,,,,,,,,,,,,,,,,,,,,images/exp1b_trial_78_colour1_distractors9_r.png,r,2,001,001,2021-04-11_13h46.10.134,searchDisc4,2020.2.10,Win32,60,,,space,0.20151,2,1,1.21541,,0,194,194,192,1,1b,78,1,9,
,,,,,,,,,,,,,,,,,,,,,,,,,,images/exp2b_trial_32_colour3_distractors9_l.png,l,1,001,001,2021-04-11_13h46.10.134,searchDisc4,2020.2.10,Win32,60,,,space,0.245165,1,1,0.76293,,0,195,195,374,1,2b,32,3,9,
,,,,,,,,,,,,,,,,,,,,,,,,,,images/exp2b_trial_84_colour2_distractors9_r.png,r,2,001,001,2021-04-11_13h46.10.134,searchDisc4,2020.2.10,Win32,60,,,space,0.23768,2,1,0.60842,,0,196,196,426,1,2b,84,2,9,
,,,,,,,,,,,,,,,,,,,,,,,,,,images/exp2a_trial_33_colour3_distractors19_l.png,l,1,001,001,2021-04-11_13h46.10.134,searchDisc4,2020.2.10,Win32,60,,,space,0.20154,1,1,0.54357,,0,197,197,261,1,2a,33,3,19,
,,,,,,,,,,,,,,,,,,,,,,,,,,images/exp1b_trial_41_colour1_distractors19_r.png,r,2,001,001,2021-04-11_13h46.10.134,searchDisc4,2020.2.10,Win32,60,,,space,0.223265,2,1,0.736375,,0,198,198,155,1,1b,41,1,19,
,,,,,,,,,,,,,,,,,,,,,,,,,,images/exp2c_trial_68_colour3_distractors1_l.png,l,1,001,001,2021-04-11_13h46.10.134,searchDisc4,2020.2.10,Win32,60,,,space,0.201555,1,1,0.5082,,0,199,199,524,1,2c,68,3,1,
,,,,,,,,,,,,,,,,,,,,,,,,,,images/exp1b_trial_43_colour1_distractors43_r.png,r,2,001,001,2021-04-11_13h46.10.134,searchDisc4,2020.2.10,Win32,60,,,space,0.243665,2,1,0.74385,,0,200,200,157,1,1b,43,1,43,
,,,,,,,,,,,,,,,,,,,,,,,,,,images/exp2b_trial_6_colour2_distractors1_r.png,r,2,001,001,2021-04-11_13h46.10.134,searchDisc4,2020.2.10,Win32,60,,,space,0.190375,2,1,0.616705,,0,201,201,348,1,2b,6,2,1,
,,,,,,,,,,,,,,,,,,,,,,,,,,images/exp2b_trial_69_colour3_distractors4_l.png,l,1,001,001,2021-04-11_13h46.10.134,searchDisc4,2020.2.10,Win32,60,,,space,0.161165,1,1,0.752305,,0,202,202,411,1,2b,69,3,4,
,,,,,,,,,,,,,,,,,,,,,,,,,,images/exp2a_trial_55_colour3_distractors43_r.png,r,2,001,001,2021-04-11_13h46.10.134,searchDisc4,2020.2.10,Win32,60,,,space,0.217185,2,1,0.863665,,0,203,203,283,1,2a,55,3,43,
,,,,,,,,,,,,,,,,,,,,,,,,,,images/exp2b_trial_21_colour1_distractors19_l.png,l,1,001,001,2021-04-11_13h46.10.134,searchDisc4,2020.2.10,Win32,60,,,space,0.089005,1,1,1.392445,,0,204,204,363,1,2b,21,1,19,
,,,,,,,,,,,,,,,,,,,,,,,,,,images/exp1a_trial_10_colour2_distractors31_r.png,r,2,001,001,2021-04-11_13h46.10.134,searchDisc4,2020.2.10,Win32,60,,,space,0.146,2,1,0.74807,,0,205,205,10,1,1a,10,2,31,
,,,,,,,,,,,,,,,,,,,,,,,,,,images/exp1a_trial_60_colour1_distractors31_l.png,l,1,001,001,2021-04-11_13h46.10.134,searchDisc4,2020.2.10,Win32,60,,,space,0.18491,1,1,0.497045,,0,206,206,60,1,1a,60,1,31,
,,,,,,,,,,,,,,,,,,,,,,,,,,images/exp1a_trial_64_colour2_distractors9_l.png,l,1,001,001,2021-04-11_13h46.10.134,searchDisc4,2020.2.10,Win32,60,,,space,0.225315,2,0,0.50564,,0,207,207,64,1,1a,64,2,9,
,,,,,,,,,,,,,,,,,,,,,,,,,,images/exp2b_trial_39_colour1_distractors4_r.png,r,2,001,001,2021-04-11_13h46.10.134,searchDisc4,2020.2.10,Win32,60,,,space,0.190455,2,1,0.802085,,0,208,208,381,1,2b,39,1,4,
,,,,,,,,,,,,,,,,,,,,,,,,,,images/exp2a_trial_7_colour2_distractors4_r.png,r,2,001,001,2021-04-11_13h46.10.134,searchDisc4,2020.2.10,Win32,60,,,space,0.20773,2,1,0.5421,,0,209,209,235,1,2a,7,2,4,
,,,,,,,,,,,,,,,,,,,,,,,,,,images/exp1a_trial_65_colour2_distractors19_l.png,l,1,001,001,2021-04-11_13h46.10.134,searchDisc4,2020.2.10,Win32,60,,,space,0.19965,2,0,0.537835,,0,210,210,65,1,1a,65,2,19,
,,,,,,,,,,,,,,,,,,,,,,,,,,images/exp2b_trial_50_colour3_distractors1_r.png,r,2,001,001,2021-04-11_13h46.10.134,searchDisc4,2020.2.10,Win32,60,,,space,0.68349,2,1,0.91786,,0,211,211,392,1,2b,50,3,1,
,,,,,,,,,,,,,,,,,,,,,,,,,,images/exp1a_trial_28_colour2_distractors31_l.png,l,1,001,001,2021-04-11_13h46.10.134,searchDisc4,2020.2.10,Win32,60,,,space,0.10682,1,1,0.79618,,0,212,212,28,1,1a,28,2,31,
,,,,,,,,,,,,,,,,,,,,,,,,,,images/exp1b_trial_44_colour2_distractors1_r.png,r,2,001,001,2021-04-11_13h46.10.134,searchDisc4,2020.2.10,Win32,60,,,space,0.209805,2,1,0.59842,,0,213,213,158,1,1b,44,2,1,
,,,,,,,,,,,,,,,,,,,,,,,,,,images/exp2a_trial_54_colour3_distractors31_r.png,r,2,001,001,2021-04-11_13h46.10.134,searchDisc4,2020.2.10,Win32,60,,,space,0.19299,2,1,0.635295,,0,214,214,282,1,2a,54,3,31,
,,,,,,,,,,,,,,,,,,,,,,,,,,images/exp2a_trial_90_colour3_distractors9_r.png,r,2,001,001,2021-04-11_13h46.10.134,searchDisc4,2020.2.10,Win32,60,,,space,0.216245,2,1,0.85847,,0,215,215,318,1,2a,90,3,9,
,,,,,,,,,,,,,,,,,,,,,,,,,,images/exp1b_trial_8_colour2_distractors9_r.png,r,2,001,001,2021-04-11_13h46.10.134,searchDisc4,2020.2.10,Win32,60,,,space,0.20281,2,1,0.70862,,0,216,216,122,1,1b,8,2,9,
,,,,,,,,,,,,,,,,,,,,,,,,,,images/exp2a_trial_91_colour3_distractors19_r.png,r,2,001,001,2021-04-11_13h46.10.134,searchDisc4,2020.2.10,Win32,60,,,space,0.21707,2,1,0.70212,,0,217,217,319,1,2a,91,3,19,
,,,,,,,,,,,,,,,,,,,,,,,,,,images/exp2a_trial_97_colour1_distractors19_l.png,l,1,001,001,2021-04-11_13h46.10.134,searchDisc4,2020.2.10,Win32,60,,,space,0.17664,1,1,0.702365,,0,218,218,325,1,2a,97,1,19,
,,,,,,,,,,,,,,,,,,,,,,,,,,images/exp2c_trial_105_colour2_distractors43_l.png,l,1,001,001,2021-04-11_13h46.10.134,searchDisc4,2020.2.10,Win32,60,,,space,0.22763,1,1,0.659145,,0,219,219,561,1,2c,105,2,43,
,,,,,,,,,,,,,,,,,,,,,,,,,,images/exp1b_trial_65_colour2_distractors19_l.png,l,1,001,001,2021-04-11_13h46.10.134,searchDisc4,2020.2.10,Win32,60,,,space,0.19189,1,1,1.047975,,0,220,220,179,1,1b,65,2,19,
,,,,,,,,,,,,,,,,,,,,,,,,,,images/exp2c_trial_82_colour2_distractors1_r.png,r,2,001,001,2021-04-11_13h46.10.134,searchDisc4,2020.2.10,Win32,60,,,space,0.173265,2,1,0.76026,,0,221,221,538,1,2c,82,2,1,
,,,,,,,,,,,,,,,,,,,,,,,,,,images/exp1b_trial_106_colour3_distractors1_l.png,l,1,001,001,2021-04-11_13h46.10.134,searchDisc4,2020.2.10,Win32,60,,,space,0.22238,1,1,1.17542,,0,222,222,220,1,1b,106,3,1,
,,,,,,,,,,,,,,,,,,,,,,,,,,images/exp2b_trial_47_colour2_distractors19_r.png,r,2,001,001,2021-04-11_13h46.10.134,searchDisc4,2020.2.10,Win32,60,,,space,0.216345,2,1,0.635185,,0,223,223,389,1,2b,47,2,19,
,,,,,,,,,,,,,,,,,,,,,,,,,,images/exp2a_trial_79_colour1_distractors19_r.png,r,2,001,001,2021-04-11_13h46.10.134,searchDisc4,2020.2.10,Win32,60,,,space,0.23173,2,1,0.6504,,0,224,224,307,1,2a,79,1,19,
,,,,,,,,,,,,,,,,,,,,,,,,,,images/exp1a_trial_21_colour1_distractors19_l.png,l,1,001,001,2021-04-11_13h46.10.134,searchDisc4,2020.2.10,Win32,60,,,space,0.201315,1,1,0.63864,,0,225,225,21,1,1a,21,1,19,
,,,,,,,,,,,,,,,,,,,,,,,,,,images/exp2c_trial_55_colour3_distractors43_r.png,r,2,001,001,2021-04-11_13h46.10.134,searchDisc4,2020.2.10,Win32,60,,,space,0.24127,2,1,0.79257,,0,226,226,511,1,2c,55,3,43,
,,,,,,,,,,,,,,,,,,,,,,,,,,images/exp1a_trial_6_colour2_distractors1_r.png,r,2,001,001,2021-04-11_13h46.10.134,searchDisc4,2020.2.10,Win32,60,,,space,0.19985,2,1,1.00543,,0,227,227,6,1,1a,6,2,1,
,,,,,,,,,,,,,,,,,,,,,,,,,,images/exp2c_trial_90_colour3_distractors9_r.png,r,2,001,001,2021-04-11_13h46.10.134,searchDisc4,2020.2.10,Win32,60,,,space,0.18984,2,1,0.691555,,0,228,228,546,1,2c,90,3,9,
,,,,,,,,,,,,,,,,,,,,,,,,,,images/exp2a_trial_22_colour1_distractors31_l.png,l,1,001,001,2021-04-11_13h46.10.134,searchDisc4,2020.2.10,Win32,60,,,space,0.06095,1,1,0.866525,,0,229,229,250,1,2a,22,1,31,
,,,,,,,,,,,,,,,,,,,,,,,,,,images/exp2c_trial_44_colour2_distractors1_r.png,r,2,001,001,2021-04-11_13h46.10.134,searchDisc4,2020.2.10,Win32,60,,,space,0.229585,2,1,0.802065,,0,230,230,500,1,2c,44,2,1,
,,,,,,,,,,,,,,,,,,,,,,,,,,images/exp1b_trial_40_colour1_distractors9_r.png,r,2,001,001,2021-04-11_13h46.10.134,searchDisc4,2020.2.10,Win32,60,,,space,0.202125,2,1,0.890145,,0,231,231,154,1,1b,40,1,9,
,,,,,,,,,,,,,,,,,,,,,,,,,,images/exp1a_trial_82_colour2_distractors1_r.png,r,2,001,001,2021-04-11_13h46.10.134,searchDisc4,2020.2.10,Win32,60,,,space,0.23107,2,1,0.755865,,0,232,232,82,1,1a,82,2,1,
,,,,,,,,,,,,,,,,,,,,,,,,,,images/exp1a_trial_38_colour1_distractors1_r.png,r,2,001,001,2021-04-11_13h46.10.134,searchDisc4,2020.2.10,Win32,60,,,space,0.25704,2,1,0.616905,,0,233,233,38,1,1a,38,1,1,
,,,,,,,,,,,,,,,,,,,,,,,,,,images/exp1a_trial_42_colour1_distractors31_r.png,r,2,001,001,2021-04-11_13h46.10.134,searchDisc4,2020.2.10,Win32,60,,,space,0.261255,2,1,0.868655,,0,234,234,42,1,1a,42,1,31,
,,,,,,,,,,,,,,,,,,,,,,,,,,images/exp2c_trial_2_colour1_distractors9_r.png,r,2,001,001,2021-04-11_13h46.10.134,searchDisc4,2020.2.10,Win32,60,,,space,0.228215,2,1,0.56292,,0,235,235,458,1,2c,2,1,9,
,,,,,,,,,,,,,,,,,,,,,,,,,,images/exp2b_trial_42_colour1_distractors31_r.png,r,2,001,001,2021-04-11_13h46.10.134,searchDisc4,2020.2.10,Win32,60,,,space,0.243365,2,1,0.622055,,0,236,236,384,1,2b,42,1,31,
,,,,,,,,,,,,,,,,,,,,,,,,,,images/exp2b_trial_14_colour3_distractors9_r.png,r,2,001,001,2021-04-11_13h46.10.134,searchDisc4,2020.2.10,Win32,60,,,space,0.187755,2,1,0.72707,,0,237,237,356,1,2b,14,3,9,
,,,,,,,,,,,,,,,,,,,,,,,,,,images/exp1a_trial_39_colour1_distractors4_r.png,r,2,001,001,2021-04-11_13h46.10.134,searchDisc4,2020.2.10,Win32,60,,,space,0.2441,2,1,0.695255,,0,238,238,39,1,1a,39,1,4,
,,,,,,,,,,,,,,,,,,,,,,,,,,images/exp1b_trial_53_colour3_distractors19_r.png,r,2,001,001,2021-04-11_13h46.10.134,searchDisc4,2020.2.10,Win32,60,,,space,0.19597,2,1,2.205645,space,0,239,239,167,1,1b,53,3,19,0.19573
,,,,,,,,,,,,,,,,,,,,,,,,,,images/exp2a_trial_47_colour2_distractors19_r.png,r,2,001,001,2021-04-11_13h46.10.134,searchDisc4,2020.2.10,Win32,60,,,space,0.655975,2,1,0.538135,,0,240,240,275,1,2a,47,2,19,
,,,,,,,,,,,,,,,,,,,,,,,,,,images/exp2b_trial_34_colour3_distractors31_l.png,l,1,001,001,2021-04-11_13h46.10.134,searchDisc4,2020.2.10,Win32,60,,,space,0.173885,1,1,0.668435,,0,241,241,376,1,2b,34,3,31,
,,,,,,,,,,,,,,,,,,,,,,,,,,images/exp2b_trial_103_colour2_distractors19_l.png,l,1,001,001,2021-04-11_13h46.10.134,searchDisc4,2020.2.10,Win32,60,,,space,0.24163,1,1,0.77157,,0,242,242,445,1,2b,103,2,19,
,,,,,,,,,,,,,,,,,,,,,,,,,,images/exp2b_trial_107_colour3_distractors4_l.png,l,1,001,001,2021-04-11_13h46.10.134,searchDisc4,2020.2.10,Win32,60,,,space,0.17308,1,1,0.795025,,0,243,243,449,1,2b,107,3,4,
,,,,,,,,,,,,,,,,,,,,,,,,,,images/exp1b_trial_6_colour2_distractors1_r.png,r,2,001,001,2021-04-11_13h46.10.134,searchDisc4,2020.2.10,Win32,60,,,space,0.194585,2,1,1.128715,,0,244,244,120,1,1b,6,2,1,
,,,,,,,,,,,,,,,,,,,,,,,,,,images/exp2a_trial_2_colour1_distractors9_r.png,r,2,001,001,2021-04-11_13h46.10.134,searchDisc4,2020.2.10,Win32,60,,,space,0.237915,2,1,0.61138,,0,245,245,230,1,2a,2,1,9,
,,,,,,,,,,,,,,,,,,,,,,,,,,images/exp2b_trial_40_colour1_distractors9_r.png,r,2,001,001,2021-04-11_13h46.10.134,searchDisc4,2020.2.10,Win32,60,,,space,0.263435,2,1,0.6246,,0,246,246,382,1,2b,40,1,9,
,,,,,,,,,,,,,,,,,,,,,,,,,,images/exp1b_trial_55_colour3_distractors43_r.png,r,2,001,001,2021-04-11_13h46.10.134,searchDisc4,2020.2.10,Win32,60,,,space,0.252015,2,1,0.58305,,0,247,247,169,1,1b,55,3,43,
,,,,,,,,,,,,,,,,,,,,,,,,,,images/exp2b_trial_62_colour2_distractors1_l.png,l,1,001,001,2021-04-11_13h46.10.134,searchDisc4,2020.2.10,Win32,60,,,space,0.23834,1,1,0.729025,,0,248,248,404,1,2b,62,2,1,
,,,,,,,,,,,,,,,,,,,,,,,,,,images/exp1b_trial_32_colour3_distractors9_l.png,l,1,001,001,2021-04-11_13h46.10.134,searchDisc4,2020.2.10,Win32,60,,,space,0.27795,1,1,1.248165,,0,249,249,146,1,1b,32,3,9,
,,,,,,,,,,,,,,,,,,,,,,,,,,images/exp1a_trial_93_colour3_distractors43_r.png,r,2,001,001,2021-04-11_13h46.10.134,searchDisc4,2020.2.10,Win32,60,,,space,0.343055,2,1,1.12269,,0,250,250,93,1,1a,93,3,43,
,,,,,,,,,,,,,,,,,,,,,,,,,,images/exp2b_trial_80_colour1_distractors31_r.png,r,2,001,001,2021-04-11_13h46.10.134,searchDisc4,2020.2.10,Win32,60,,,space,0.219875,2,1,0.823295,,0,251,251,422,1,2b,80,1,31,
,,,,,,,,,,,,,,,,,,,,,,,,,,images/exp2a_trial_11_colour2_distractors43_r.png,r,2,001,001,2021-04-11_13h46.10.134,searchDisc4,2020.2.10,Win32,60,,,space,0.19975,2,1,0.89056,,0,252,252,239,1,2a,11,2,43,
,,,,,,,,,,,,,,,,,,,,,,,,,,images/exp2c_trial_4_colour1_distractors31_r.png,r,2,001,001,2021-04-11_13h46.10.134,searchDisc4,2020.2.10,Win32,60,,,space,0.1163,2,1,0.75072,,0,253,253,460,1,2c,4,1,31,
,,,,,,,,,,,,,,,,,,,,,,,,,,images/exp2b_trial_2_colour1_distractors9_r.png,r,2,001,001,2021-04-11_13h46.10.134,searchDisc4,2020.2.10,Win32,60,,,space,0.054395,2,1,0.790275,,0,254,254,344,1,2b,2,1,9,
,,,,,,,,,,,,,,,,,,,,,,,,,,images/exp1b_trial_7_colour2_distractors4_r.png,r,2,001,001,2021-04-11_13h46.10.134,searchDisc4,2020.2.10,Win32,60,,,space,0.061575,2,1,1.11648,,0,255,255,121,1,1b,7,2,4,
,,,,,,,,,,,,,,,,,,,,,,,,,,images/exp2a_trial_82_colour2_distractors1_r.png,r,2,001,001,2021-04-11_13h46.10.134,searchDisc4,2020.2.10,Win32,60,,,space,0.133635,2,1,0.598995,,0,256,256,310,1,2a,82,2,1,
,,,,,,,,,,,,,,,,,,,,,,,,,,images/exp1b_trial_103_colour2_distractors19_l.png,l,1,001,001,2021-04-11_13h46.10.134,searchDisc4,2020.2.10,Win32,60,,,space,0.2357,1,1,0.91976,,0,257,257,217,1,1b,103,2,19,
,,,,,,,,,,,,,,,,,,,,,,,,,,images/exp1a_trial_106_colour3_distractors1_l.png,l,1,001,001,2021-04-11_13h46.10.134,searchDisc4,2020.2.10,Win32,60,,,space,0.22428,1,1,0.990295,,0,258,258,106,1,1a,106,3,1,
,,,,,,,,,,,,,,,,,,,,,,,,,,images/exp1a_trial_24_colour2_distractors1_l.png,l,1,001,001,2021-04-11_13h46.10.134,searchDisc4,2020.2.10,Win32,60,,,space,0.249525,1,1,0.91204,,0,259,259,24,1,1a,24,2,1,
,,,,,,,,,,,,,,,,,,,,,,,,,,images/exp2a_trial_53_colour3_distractors19_r.png,r,2,001,001,2021-04-11_13h46.10.134,searchDisc4,2020.2.10,Win32,60,,,space,0.21685,2,1,0.582085,,0,260,260,281,1,2a,53,3,19,
,,,,,,,,,,,,,,,,,,,,,,,,,,images/exp1b_trial_68_colour3_distractors1_l.png,l,1,001,001,2021-04-11_13h46.10.134,searchDisc4,2020.2.10,Win32,60,,,space,0.311375,1,1,1.10127,,0,261,261,182,1,1b,68,3,1,
,,,,,,,,,,,,,,,,,,,,,,,,,,images/exp1b_trial_63_colour2_distractors4_l.png,l,1,001,001,2021-04-11_13h46.10.134,searchDisc4,2020.2.10,Win32,60,,,space,0.238135,1,1,0.79013,,0,262,262,177,1,1b,63,2,4,
,,,,,,,,,,,,,,,,,,,,,,,,,,images/exp2a_trial_14_colour3_distractors9_r.png,r,2,001,001,2021-04-11_13h46.10.134,searchDisc4,2020.2.10,Win32,60,,,space,0.249135,2,1,0.738215,,0,263,263,242,1,2a,14,3,9,
,,,,,,,,,,,,,,,,,,,,,,,,,,images/exp1b_trial_70_colour3_distractors9_l.png,l,1,001,001,2021-04-11_13h46.10.134,searchDisc4,2020.2.10,Win32,60,,,space,0.232255,1,1,0.998565,,0,264,264,184,1,1b,70,3,9,
,,,,,,,,,,,,,,,,,,,,,,,,,,images/exp2c_trial_99_colour1_distractors43_l.png,l,1,001,001,2021-04-11_13h46.10.134,searchDisc4,2020.2.10,Win32,60,,,space,0.197265,2,0,0.57319,,0,265,265,555,1,2c,99,1,43,
,,,,,,,,,,,,,,,,,,,,,,,,,,images/exp1a_trial_8_colour2_distractors9_r.png,r,2,001,001,2021-04-11_13h46.10.134,searchDisc4,2020.2.10,Win32,60,,,space,0.24445,2,1,1.020395,,0,266,266,8,1,1a,8,2,9,
,,,,,,,,,,,,,,,,,,,,,,,,,,images/exp2c_trial_87_colour2_distractors43_r.png,r,2,001,001,2021-04-11_13h46.10.134,searchDisc4,2020.2.10,Win32,60,,,space,0.22926,2,1,0.727875,,0,267,267,543,1,2c,87,2,43,
,,,,,,,,,,,,,,,,,,,,,,,,,,images/exp2a_trial_98_colour1_distractors31_l.png,l,1,001,001,2021-04-11_13h46.10.134,searchDisc4,2020.2.10,Win32,60,,,space,0.29057,1,1,0.78232,,0,268,268,326,1,2a,98,1,31,
,,,,,,,,,,,,,,,,,,,,,,,,,,images/exp2b_trial_59_colour1_distractors19_l.png,l,1,001,001,2021-04-11_13h46.10.134,searchDisc4,2020.2.10,Win32,60,,,space,0.23102,1,1,0.65788,,0,269,269,401,1,2b,59,1,19,
,,,,,,,,,,,,,,,,,,,,,,,,,,images/exp1b_trial_16_colour3_distractors31_r.png,r,2,001,001,2021-04-11_13h46.10.134,searchDisc4,2020.2.10,Win32,60,,,space,0.263725,2,1,1.13883,,0,270,270,130,1,1b,16,3,31,
,,,,,,,,,,,,,,,,,,,,,,,,,,images/exp2c_trial_22_colour1_distractors31_l.png,l,1,001,001,2021-04-11_13h46.10.134,searchDisc4,2020.2.10,Win32,60,,,space,0.255155,1,1,0.855605,,0,271,271,478,1,2c,22,1,31,
,,,,,,,,,,,,,,,,,,,,,,,,,,images/exp1b_trial_74_colour0_distractors0_r.png,r,2,001,001,2021-04-11_13h46.10.134,searchDisc4,2020.2.10,Win32,60,,,space,0.22016,2,1,0.72959,,0,272,272,188,1,1b,74,0,0,
,,,,,,,,,,,,,,,,,,,,,,,,,,images/exp1b_trial_1_colour1_distractors4_r.png,r,2,001,001,2021-04-11_13h46.10.134,searchDisc4,2020.2.10,Win32,60,,,space,0.27433,2,1,0.8072,,0,273,273,115,1,1b,1,1,4,
,,,,,,,,,,,,,,,,,,,,,,,,,,images/exp1a_trial_35_colour3_distractors43_l.png,l,1,001,001,2021-04-11_13h46.10.134,searchDisc4,2020.2.10,Win32,60,,,space,0.22498,1,1,0.65161,,0,274,274,35,1,1a,35,3,43,
,,,,,,,,,,,,,,,,,,,,,,,,,,images/exp2c_trial_110_colour3_distractors31_l.png,l,1,001,001,2021-04-11_13h46.10.134,searchDisc4,2020.2.10,Win32,60,,,space,0.312915,1,1,0.77135,,0,275,275,566,1,2c,110,3,31,
,,,,,,,,,,,,,,,,,,,,,,,,,,images/exp2a_trial_43_colour1_distractors43_r.png,r,2,001,001,2021-04-11_13h46.10.134,searchDisc4,2020.2.10,Win32,60,,,space,0.252615,2,1,0.75987,,0,276,276,271,1,2a,43,1,43,
,,,,,,,,,,,,,,,,,,,,,,,,,,images/exp2a_trial_111_colour3_distractors43_l.png,l,1,001,001,2021-04-11_13h46.10.134,searchDisc4,2020.2.10,Win32,60,,,space,0.311715,1,1,0.599245,,0,277,277,339,1,2a,111,3,43,
,,,,,,,,,,,,,,,,,,,,,,,,,,images/exp1b_trial_97_colour1_distractors19_l.png,l,1,001,001,2021-04-11_13h46.10.134,searchDisc4,2020.2.10,Win32,60,,,space,0.24823,1,1,0.708245,,0,278,278,211,1,1b,97,1,19,
,,,,,,,,,,,,,,,,,,,,,,,,,,images/exp1a_trial_92_colour3_distractors31_r.png,r,2,001,001,2021-04-11_13h46.10.134,searchDisc4,2020.2.10,Win32,60,,,space,0.254295,2,1,0.650885,,0,279,279,92,1,1a,92,3,31,
,,,,,,,,,,,,,,,,,,,,,,,,,,images/exp1a_trial_49_colour2_distractors43_r.png,r,2,001,001,2021-04-11_13h46.10.134,searchDisc4,2020.2.10,Win32,60,,,space,0.236335,2,1,1.11463,,0,280,280,49,1,1a,49,2,43,
,,,,,,,,,,,,,,,,,,,,,,,,,,images/exp1a_trial_53_colour3_distractors19_r.png,r,2,001,001,2021-04-11_13h46.10.134,searchDisc4,2020.2.10,Win32,60,,,space,0.21926,2,1,0.654615,,0,281,281,53,1,1a,53,3,19,
,,,,,,,,,,,,,,,,,,,,,,,,,,images/exp1b_trial_111_colour3_distractors43_l.png,l,1,001,001,2021-04-11_13h46.10.134,searchDisc4,2020.2.10,Win32,60,,,space,0.306865,1,1,1.33657,,0,282,282,225,1,1b,111,3,43,
,,,,,,,,,,,,,,,,,,,,,,,,,,images/exp2b_trial_79_colour1_distractors19_r.png,r,2,001,001,2021-04-11_13h46.10.134,searchDisc4,2020.2.10,Win32,60,,,space,0.23322,2,1,0.756135,,0,283,283,421,1,2b,79,1,19,
,,,,,,,,,,,,,,,,,,,,,,,,,,images/exp2c_trial_106_colour3_distractors1_l.png,l,1,001,001,2021-04-11_13h46.10.134,searchDisc4,2020.2.10,Win32,60,,,space,0.2633,1,1,0.613685,,0,284,284,562,1,2c,106,3,1,
,,,,,,,,,,,,,,,,,,,,,,,,,,images/exp2a_trial_57_colour1_distractors4_l.png,l,1,001,001,2021-04-11_13h46.10.134,searchDisc4,2020.2.10,Win32,60,,,space,0.20085,1,1,0.863335,,0,285,285,285,1,2a,57,1,4,
,,,,,,,,,,,,,,,,,,,,,,,,,,images/exp1b_trial_17_colour3_distractors43_r.png,r,2,001,001,2021-04-11_13h46.10.134,searchDisc4,2020.2.10,Win32,60,,,space,0.257175,2,1,1.389655,,0,286,286,131,1,1b,17,3,43,
,,,,,,,,,,,,,,,,,,,,,,,,,,images/exp1b_trial_23_colour1_distractors43_l.png,l,1,001,001,2021-04-11_13h46.10.134,searchDisc4,2020.2.10,Win32,60,,,space,0.25037,1,1,2.19823,,0,287,287,137,1,1b,23,1,43,
,,,,,,,,,,,,,,,,,,,,,,,,,,images/exp1a_trial_85_colour2_distractors19_r.png,r,2,001,001,2021-04-11_13h46.10.134,searchDisc4,2020.2.10,Win32,60,,,space,0.21651,2,1,0.940785,,0,288,288,85,1,1a,85,2,19,
,,,,,,,,,,,,,,,,,,,,,,,,,,images/exp2a_trial_17_colour3_distractors43_r.png,r,2,001,001,2021-04-11_13h46.10.134,searchDisc4,2020.2.10,Win32,60,,,space,0.22871,2,1,0.75181,,0,289,289,245,1,2a,17,3,43,
,,,,,,,,,,,,,,,,,,,,,,,,,,images/exp1a_trial_68_colour3_distractors1_l.png,l,1,001,001,2021-04-11_13h46.10.134,searchDisc4,2020.2.10,Win32,60,,,space,0.22095,1,1,0.698845,,0,290,290,68,1,1a,68,3,1,
,,,,,,,,,,,,,,,,,,,,,,,,,,images/exp2c_trial_85_colour2_distractors19_r.png,r,2,001,001,2021-04-11_13h46.10.134,searchDisc4,2020.2.10,Win32,60,,,space,0.245865,2,1,0.80429,,0,291,291,541,1,2c,85,2,19,
,,,,,,,,,,,,,,,,,,,,,,,,,,images/exp1b_trial_24_colour2_distractors1_l.png,l,1,001,001,2021-04-11_13h46.10.134,searchDisc4,2020.2.10,Win32,60,,,space,0.26629,1,1,0.51726,,0,292,292,138,1,1b,24,2,1,
,,,,,,,,,,,,,,,,,,,,,,,,,,images/exp1a_trial_25_colour2_distractors4_l.png,l,1,001,001,2021-04-11_13h46.10.134,searchDisc4,2020.2.10,Win32,60,,,space,0.230455,1,1,0.92381,,0,293,293,25,1,1a,25,2,4,
,,,,,,,,,,,,,,,,,,,,,,,,,,images/exp2c_trial_14_colour3_distractors9_r.png,r,2,001,001,2021-04-11_13h46.10.134,searchDisc4,2020.2.10,Win32,60,,,space,0.27811,2,1,0.67716,,0,294,294,470,1,2c,14,3,9,
,,,,,,,,,,,,,,,,,,,,,,,,,,images/exp1a_trial_29_colour2_distractors43_l.png,l,1,001,001,2021-04-11_13h46.10.134,searchDisc4,2020.2.10,Win32,60,,,space,0.21763,1,1,0.982535,,0,295,295,29,1,1a,29,2,43,
,,,,,,,,,,,,,,,,,,,,,,,,,,images/exp2c_trial_40_colour1_distractors9_r.png,r,2,001,001,2021-04-11_13h46.10.134,searchDisc4,2020.2.10,Win32,60,,,space,0.199675,2,1,0.714365,,0,296,296,496,1,2c,40,1,9,
,,,,,,,,,,,,,,,,,,,,,,,,,,images/exp2c_trial_42_colour1_distractors31_r.png,r,2,001,001,2021-04-11_13h46.10.134,searchDisc4,2020.2.10,Win32,60,,,space,0.22807,2,1,1.15245,,0,297,297,498,1,2c,42,1,31,
,,,,,,,,,,,,,,,,,,,,,,,,,,images/exp2a_trial_26_colour2_distractors9_l.png,l,1,001,001,2021-04-11_13h46.10.134,searchDisc4,2020.2.10,Win32,60,,,space,0.257165,1,1,0.578205,,0,298,298,254,1,2a,26,2,9,
,,,,,,,,,,,,,,,,,,,,,,,,,,images/exp2c_trial_29_colour2_distractors43_l.png,l,1,001,001,2021-04-11_13h46.10.134,searchDisc4,2020.2.10,Win32,60,,,space,0.24182,1,1,0.79267,space,0,299,299,485,1,2c,29,2,43,0.24967
,,,,,,,,,,,,,,,,,,,,,,,,,,images/exp2c_trial_41_colour1_distractors19_r.png,r,2,001,001,2021-04-11_13h46.10.134,searchDisc4,2020.2.10,Win32,60,,,space,0.73652,2,1,0.69874,,0,300,300,497,1,2c,41,1,19,
,,,,,,,,,,,,,,,,,,,,,,,,,,images/exp1a_trial_58_colour1_distractors9_l.png,l,1,001,001,2021-04-11_13h46.10.134,searchDisc4,2020.2.10,Win32,60,,,space,0.2716,1,1,0.56169,,0,301,301,58,1,1a,58,1,9,
,,,,,,,,,,,,,,,,,,,,,,,,,,images/exp2a_trial_78_colour1_distractors9_r.png,r,2,001,001,2021-04-11_13h46.10.134,searchDisc4,2020.2.10,Win32,60,,,space,0.285135,2,1,0.691045,,0,302,302,306,1,2a,78,1,9,
,,,,,,,,,,,,,,,,,,,,,,,,,,images/exp1b_trial_76_colour1_distractors1_r.png,r,2,001,001,2021-04-11_13h46.10.134,searchDisc4,2020.2.10,Win32,60,,,space,0.342585,2,1,0.70968,,0,303,303,190,1,1b,76,1,1,
,,,,,,,,,,,,,,,,,,,,,,,,,,images/exp1a_trial_37_colour0_distractors0_l.png,l,1,001,001,2021-04-11_13h46.10.134,searchDisc4,2020.2.10,Win32,60,,,space,0.312865,1,1,1.078055,,0,304,304,37,1,1a,37,0,0,
,,,,,,,,,,,,,,,,,,,,,,,,,,images/exp1b_trial_47_colour2_distractors19_r.png,r,2,001,001,2021-04-11_13h46.10.134,searchDisc4,2020.2.10,Win32,60,,,space,0.17369,2,1,1.24013,,0,305,305,161,1,1b,47,2,19,
,,,,,,,,,,,,,,,,,,,,,,,,,,images/exp2c_trial_107_colour3_distractors4_l.png,l,1,001,001,2021-04-11_13h46.10.134,searchDisc4,2020.2.10,Win32,60,,,space,0.178505,1,1,0.62907,,0,306,306,563,1,2c,107,3,4,
,,,,,,,,,,,,,,,,,,,,,,,,,,images/exp1b_trial_35_colour3_distractors43_l.png,l,1,001,001,2021-04-11_13h46.10.134,searchDisc4,2020.2.10,Win32,60,,,space,0.24086,1,1,1.26647,,0,307,307,149,1,1b,35,3,43,
,,,,,,,,,,,,,,,,,,,,,,,,,,images/exp1b_trial_48_colour2_distractors31_r.png,r,2,001,001,2021-04-11_13h46.10.134,searchDisc4,2020.2.10,Win32,60,,,space,0.222835,2,1,0.90021,,0,308,308,162,1,1b,48,2,31,
,,,,,,,,,,,,,,,,,,,,,,,,,,images/exp1a_trial_17_colour3_distractors43_r.png,r,2,001,001,2021-04-11_13h46.10.134,searchDisc4,2020.2.10,Win32,60,,,space,0.18008,2,1,1.057775,,0,309,309,17,1,1a,17,3,43,
,,,,,,,,,,,,,,,,,,,,,,,,,,images/exp1a_trial_32_colour3_distractors9_l.png,l,1,001,001,2021-04-11_13h46.10.134,searchDisc4,2020.2.10,Win32,60,,,space,0.20838,1,1,0.594405,,0,310,310,32,1,1a,32,3,9,
,,,,,,,,,,,,,,,,,,,,,,,,,,images/exp1b_trial_101_colour2_distractors4_l.png,l,1,001,001,2021-04-11_13h46.10.134,searchDisc4,2020.2.10,Win32,60,,,space,0.275525,1,1,0.79611,,0,311,311,215,1,1b,101,2,4,
,,,,,,,,,,,,,,,,,,,,,,,,,,images/exp2b_trial_48_colour2_distractors31_r.png,r,2,001,001,2021-04-11_13h46.10.134,searchDisc4,2020.2.10,Win32,60,,,space,0.204695,2,1,0.66275,,0,312,312,390,1,2b,48,2,31,
,,,,,,,,,,,,,,,,,,,,,,,,,,images/exp2c_trial_58_colour1_distractors9_l.png,l,1,001,001,2021-04-11_13h46.10.134,searchDisc4,2020.2.10,Win32,60,,,space,0.225785,1,1,0.66178,,0,313,313,514,1,2c,58,1,9,
,,,,,,,,,,,,,,,,,,,,,,,,,,images/exp2c_trial_5_colour1_distractors43_r.png,r,2,001,001,2021-04-11_13h46.10.134,searchDisc4,2020.2.10,Win32,60,,,space,0.236775,2,1,0.708215,,0,314,314,461,1,2c,5,1,43,
,,,,,,,,,,,,,,,,,,,,,,,,,,images/exp1b_trial_52_colour3_distractors9_r.png,r,2,001,001,2021-04-11_13h46.10.134,searchDisc4,2020.2.10,Win32,60,,,space,0.179075,2,1,1.174895,,0,315,315,166,1,1b,52,3,9,
,,,,,,,,,,,,,,,,,,,,,,,,,,images/exp2a_trial_45_colour2_distractors4_r.png,r,2,001,001,2021-04-11_13h46.10.134,searchDisc4,2020.2.10,Win32,60,,,space,0.187755,2,1,0.70572,,0,316,316,273,1,2a,45,2,4,
,,,,,,,,,,,,,,,,,,,,,,,,,,images/exp2c_trial_11_colour2_distractors43_r.png,r,2,001,001,2021-04-11_13h46.10.134,searchDisc4,2020.2.10,Win32,60,,,space,0.210495,2,1,0.84884,,0,317,317,467,1,2c,11,2,43,
,,,,,,,,,,,,,,,,,,,,,,,,,,images/exp2b_trial_112_colour0_distractors0_r.png,r,2,001,001,2021-04-11_13h46.10.134,searchDisc4,2020.2.10,Win32,60,,,space,0.26258,2,1,0.815745,,0,318,318,454,1,2b,112,0,0,
,,,,,,,,,,,,,,,,,,,,,,,,,,images/exp2a_trial_93_colour3_distractors43_r.png,r,2,001,001,2021-04-11_13h46.10.134,searchDisc4,2020.2.10,Win32,60,,,space,0.256115,2,1,0.694165,,0,319,319,321,1,2a,93,3,43,
,,,,,,,,,,,,,,,,,,,,,,,,,,images/exp2b_trial_76_colour1_distractors1_r.png,r,2,001,001,2021-04-11_13h46.10.134,searchDisc4,2020.2.10,Win32,60,,,space,0.238475,2,1,1.928785,,0,320,320,418,1,2b,76,1,1,
,,,,,,,,,,,,,,,,,,,,,,,,,,images/exp2b_trial_35_colour3_distractors43_l.png,l,1,001,001,2021-04-11_13h46.10.134,searchDisc4,2020.2.10,Win32,60,,,space,0.346595,1,1,0.698195,,0,321,321,377,1,2b,35,3,43,
,,,,,,,,,,,,,,,,,,,,,,,,,,images/exp2a_trial_48_colour2_distractors31_r.png,r,2,001,001,2021-04-11_13h46.10.134,searchDisc4,2020.2.10,Win32,60,,,space,0.258,2,1,1.190785,,0,322,322,276,1,2a,48,2,31,
,,,,,,,,,,,,,,,,,,,,,,,,,,images/exp2b_trial_27_colour2_distractors19_l.png,l,1,001,001,2021-04-11_13h46.10.134,searchDisc4,2020.2.10,Win32,60,,,space,0.750295,1,1,0.668665,,0,323,323,369,1,2b,27,2,19,
,,,,,,,,,,,,,,,,,,,,,,,,,,images/exp2c_trial_10_colour2_distractors31_r.png,r,2,001,001,2021-04-11_13h46.10.134,searchDisc4,2020.2.10,Win32,60,,,space,0.200875,2,1,0.61234,,0,324,324,466,1,2c,10,2,31,
,,,,,,,,,,,,,,,,,,,,,,,,,,images/exp2b_trial_86_colour2_distractors31_r.png,r,2,001,001,2021-04-11_13h46.10.134,searchDisc4,2020.2.10,Win32,60,,,space,0.256725,2,1,0.661095,,0,325,325,428,1,2b,86,2,31,
,,,,,,,,,,,,,,,,,,,,,,,,,,images/exp2a_trial_92_colour3_distractors31_r.png,r,2,001,001,2021-04-11_13h46.10.134,searchDisc4,2020.2.10,Win32,60,,,space,0.21545,2,1,2.656325,,0,326,326,320,1,2a,92,3,31,
,,,,,,,,,,,,,,,,,,,,,,,,,,images/exp2b_trial_29_colour2_distractors43_l.png,l,1,001,001,2021-04-11_13h46.10.134,searchDisc4,2020.2.10,Win32,60,,,space,0.22499,1,1,0.620545,,0,327,327,371,1,2b,29,2,43,
,,,,,,,,,,,,,,,,,,,,,,,,,,images/exp2b_trial_7_colour2_distractors4_r.png,r,2,001,001,2021-04-11_13h46.10.134,searchDisc4,2020.2.10,Win32,60,,,space,0.207765,2,1,0.784,,0,328,328,349,1,2b,7,2,4,
,,,,,,,,,,,,,,,,,,,,,,,,,,images/exp2a_trial_12_colour3_distractors1_r.png,r,2,001,001,2021-04-11_13h46.10.134,searchDisc4,2020.2.10,Win32,60,,,space,0.275495,2,1,0.82691,,0,329,329,240,1,2a,12,3,1,
,,,,,,,,,,,,,,,,,,,,,,,,,,images/exp2b_trial_95_colour1_distractors4_l.png,l,1,001,001,2021-04-11_13h46.10.134,searchDisc4,2020.2.10,Win32,60,,,space,0.252195,1,1,0.53851,,0,330,330,437,1,2b,95,1,4,
,,,,,,,,,,,,,,,,,,,,,,,,,,images/exp2b_trial_20_colour1_distractors9_l.png,l,1,001,001,2021-04-11_13h46.10.134,searchDisc4,2020.2.10,Win32,60,,,space,0.2595,2,0,0.53959,,0,331,331,362,1,2b,20,1,9,
,,,,,,,,,,,,,,,,,,,,,,,,,,images/exp2c_trial_16_colour3_distractors31_r.png,r,2,001,001,2021-04-11_13h46.10.134,searchDisc4,2020.2.10,Win32,60,,,space,0.31443,2,1,0.5704,,0,332,332,472,1,2c,16,3,31,
,,,,,,,,,,,,,,,,,,,,,,,,,,images/exp2c_trial_28_colour2_distractors31_l.png,l,1,001,001,2021-04-11_13h46.10.134,searchDisc4,2020.2.10,Win32,60,,,space,0.234135,2,0,1.00131,,0,333,333,484,1,2c,28,2,31,
,,,,,,,,,,,,,,,,,,,,,,,,,,images/exp2b_trial_22_colour1_distractors31_l.png,l,1,001,001,2021-04-11_13h46.10.134,searchDisc4,2020.2.10,Win32,60,,,space,0.198135,1,1,0.521185,,0,334,334,364,1,2b,22,1,31,
,,,,,,,,,,,,,,,,,,,,,,,,,,images/exp2a_trial_31_colour3_distractors4_l.png,l,1,001,001,2021-04-11_13h46.10.134,searchDisc4,2020.2.10,Win32,60,,,space,0.207225,1,1,0.541895,,0,335,335,259,1,2a,31,3,4,
,,,,,,,,,,,,,,,,,,,,,,,,,,images/exp2b_trial_82_colour2_distractors1_r.png,r,2,001,001,2021-04-11_13h46.10.134,searchDisc4,2020.2.10,Win32,60,,,space,0.194605,2,1,0.565905,,0,336,336,424,1,2b,82,2,1,
,,,,,,,,,,,,,,,,,,,,,,,,,,images/exp2a_trial_40_colour1_distractors9_r.png,r,2,001,001,2021-04-11_13h46.10.134,searchDisc4,2020.2.10,Win32,60,,,space,0.27885,2,1,0.85161,,0,337,337,268,1,2a,40,1,9,
,,,,,,,,,,,,,,,,,,,,,,,,,,images/exp1b_trial_94_colour1_distractors1_l.png,l,1,001,001,2021-04-11_13h46.10.134,searchDisc4,2020.2.10,Win32,60,,,space,0.264295,1,1,0.84213,,0,338,338,208,1,1b,94,1,1,
,,,,,,,,,,,,,,,,,,,,,,,,,,images/exp2a_trial_62_colour2_distractors1_l.png,l,1,001,001,2021-04-11_13h46.10.134,searchDisc4,2020.2.10,Win32,60,,,space,0.19739,1,1,0.60152,,0,339,339,290,1,2a,62,2,1,
,,,,,,,,,,,,,,,,,,,,,,,,,,images/exp2b_trial_73_colour3_distractors43_l.png,l,1,001,001,2021-04-11_13h46.10.134,searchDisc4,2020.2.10,Win32,60,,,space,0.25562,1,1,0.73432,,0,340,340,415,1,2b,73,3,43,
,,,,,,,,,,,,,,,,,,,,,,,,,,images/exp1b_trial_37_colour0_distractors0_l.png,l,1,001,001,2021-04-11_13h46.10.134,searchDisc4,2020.2.10,Win32,60,,,space,0.208675,2,0,0.617815,,0,341,341,151,1,1b,37,0,0,
,,,,,,,,,,,,,,,,,,,,,,,,,,images/exp2a_trial_32_colour3_distractors9_l.png,l,1,001,001,2021-04-11_13h46.10.134,searchDisc4,2020.2.10,Win32,60,,,space,0.255285,1,1,1.00936,,0,342,342,260,1,2a,32,3,9,
,,,,,,,,,,,,,,,,,,,,,,,,,,images/exp1a_trial_100_colour2_distractors1_l.png,l,1,001,001,2021-04-11_13h46.10.134,searchDisc4,2020.2.10,Win32,60,,,space,0.33903,1,1,0.57169,,0,343,343,100,1,1a,100,2,1,
,,,,,,,,,,,,,,,,,,,,,,,,,,images/exp2b_trial_106_colour3_distractors1_l.png,l,1,001,001,2021-04-11_13h46.10.134,searchDisc4,2020.2.10,Win32,60,,,space,0.246955,1,1,0.79512,,0,344,344,448,1,2b,106,3,1,
,,,,,,,,,,,,,,,,,,,,,,,,,,images/exp2c_trial_103_colour2_distractors19_l.png,l,1,001,001,2021-04-11_13h46.10.134,searchDisc4,2020.2.10,Win32,60,,,space,0.261115,1,1,0.617455,,0,345,345,559,1,2c,103,2,19,
,,,,,,,,,,,,,,,,,,,,,,,,,,images/exp2b_trial_78_colour1_distractors9_r.png,r,2,001,001,2021-04-11_13h46.10.134,searchDisc4,2020.2.10,Win32,60,,,space,0.22415,2,1,0.91737,,0,346,346,420,1,2b,78,1,9,
,,,,,,,,,,,,,,,,,,,,,,,,,,images/exp2b_trial_91_colour3_distractors19_r.png,r,2,001,001,2021-04-11_13h46.10.134,searchDisc4,2020.2.10,Win32,60,,,space,0.23464,2,1,0.598615,,0,347,347,433,1,2b,91,3,19,
,,,,,,,,,,,,,,,,,,,,,,,,,,images/exp1a_trial_19_colour1_distractors4_l.png,l,1,001,001,2021-04-11_13h46.10.134,searchDisc4,2020.2.10,Win32,60,,,space,0.22392,1,1,0.599435,,0,348,348,19,1,1a,19,1,4,
,,,,,,,,,,,,,,,,,,,,,,,,,,images/exp1b_trial_28_colour2_distractors31_l.png,l,1,001,001,2021-04-11_13h46.10.134,searchDisc4,2020.2.10,Win32,60,,,space,0.24124,1,1,0.73891,,0,349,349,142,1,1b,28,2,31,
,,,,,,,,,,,,,,,,,,,,,,,,,,images/exp2c_trial_94_colour1_distractors1_l.png,l,1,001,001,2021-04-11_13h46.10.134,searchDisc4,2020.2.10,Win32,60,,,space,0.27657,1,1,1.41818,,0,350,350,550,1,2c,94,1,1,
,,,,,,,,,,,,,,,,,,,,,,,,,,images/exp2a_trial_80_colour1_distractors31_r.png,r,2,001,001,2021-04-11_13h46.10.134,searchDisc4,2020.2.10,Win32,60,,,space,0.32587,2,1,0.75329,,0,351,351,308,1,2a,80,1,31,
,,,,,,,,,,,,,,,,,,,,,,,,,,images/exp2b_trial_87_colour2_distractors43_r.png,r,2,001,001,2021-04-11_13h46.10.134,searchDisc4,2020.2.10,Win32,60,,,space,0.254285,2,1,0.762995,,0,352,352,429,1,2b,87,2,43,
,,,,,,,,,,,,,,,,,,,,,,,,,,images/exp2a_trial_41_colour1_distractors19_r.png,r,2,001,001,2021-04-11_13h46.10.134,searchDisc4,2020.2.10,Win32,60,,,space,0.249285,2,1,0.84173,,0,353,353,269,1,2a,41,1,19,
,,,,,,,,,,,,,,,,,,,,,,,,,,images/exp1b_trial_91_colour3_distractors19_r.png,r,2,001,001,2021-04-11_13h46.10.134,searchDisc4,2020.2.10,Win32,60,,,space,0.22459,2,1,1.260725,,0,354,354,205,1,1b,91,3,19,
,,,,,,,,,,,,,,,,,,,,,,,,,,images/exp2c_trial_97_colour1_distractors19_l.png,l,1,001,001,2021-04-11_13h46.10.134,searchDisc4,2020.2.10,Win32,60,,,space,0.153015,1,1,0.80603,,0,355,355,553,1,2c,97,1,19,
,,,,,,,,,,,,,,,,,,,,,,,,,,images/exp2b_trial_17_colour3_distractors43_r.png,r,2,001,001,2021-04-11_13h46.10.134,searchDisc4,2020.2.10,Win32,60,,,space,0.227365,2,1,0.713585,,0,356,356,359,1,2b,17,3,43,
,,,,,,,,,,,,,,,,,,,,,,,,,,images/exp1b_trial_58_colour1_distractors9_l.png,l,1,001,001,2021-04-11_13h46.10.134,searchDisc4,2020.2.10,Win32,60,,,space,0.238815,1,1,0.61042,,0,357,357,172,1,1b,58,1,9,
,,,,,,,,,,,,,,,,,,,,,,,,,,images/exp2a_trial_19_colour1_distractors4_l.png,l,1,001,001,2021-04-11_13h46.10.134,searchDisc4,2020.2.10,Win32,60,,,space,0.262205,1,1,0.64206,,0,358,358,247,1,2a,19,1,4,
,,,,,,,,,,,,,,,,,,,,,,,,,,images/exp2c_trial_63_colour2_distractors4_l.png,l,1,001,001,2021-04-11_13h46.10.134,searchDisc4,2020.2.10,Win32,60,,,space,0.25017,1,1,0.66339,space,0,359,359,519,1,2c,63,2,4,0.236015
,,,,,,,,,,,,,,,,,,,,,,,,,,images/exp2b_trial_15_colour3_distractors19_r.png,r,2,001,001,2021-04-11_13h46.10.134,searchDisc4,2020.2.10,Win32,60,,,space,0.632505,2,1,0.80111,,0,360,360,357,1,2b,15,3,19,
,,,,,,,,,,,,,,,,,,,,,,,,,,images/exp2b_trial_110_colour3_distractors31_l.png,l,1,001,001,2021-04-11_13h46.10.134,searchDisc4,2020.2.10,Win32,60,,,space,0.225985,1,1,0.82074,,0,361,361,452,1,2b,110,3,31,
,,,,,,,,,,,,,,,,,,,,,,,,,,images/exp2b_trial_9_colour2_distractors19_r.png,r,2,001,001,2021-04-11_13h46.10.134,searchDisc4,2020.2.10,Win32,60,,,space,0.22179,2,1,0.688915,,0,362,362,351,1,2b,9,2,19,
,,,,,,,,,,,,,,,,,,,,,,,,,,images/exp1b_trial_105_colour2_distractors43_l.png,l,1,001,001,2021-04-11_13h46.10.134,searchDisc4,2020.2.10,Win32,60,,,space,0.24229,1,1,2.062215,,0,363,363,219,1,1b,105,2,43,
,,,,,,,,,,,,,,,,,,,,,,,,,,images/exp2b_trial_96_colour1_distractors9_l.png,l,1,001,001,2021-04-11_13h46.10.134,searchDisc4,2020.2.10,Win32,60,,,space,0.43188,1,1,0.66001,,0,364,364,438,1,2b,96,1,9,
,,,,,,,,,,,,,,,,,,,,,,,,,,images/exp1a_trial_70_colour3_distractors9_l.png,l,1,001,001,2021-04-11_13h46.10.134,searchDisc4,2020.2.10,Win32,60,,,space,0.304915,1,1,0.87537,,0,365,365,70,1,1a,70,3,9,
,,,,,,,,,,,,,,,,,,,,,,,,,,images/exp2c_trial_95_colour1_distractors4_l.png,l,1,001,001,2021-04-11_13h46.10.134,searchDisc4,2020.2.10,Win32,60,,,space,0.24584,1,1,0.596605,,0,366,366,551,1,2c,95,1,4,
,,,,,,,,,,,,,,,,,,,,,,,,,,images/exp2c_trial_8_colour2_distractors9_r.png,r,2,001,001,2021-04-11_13h46.10.134,searchDisc4,2020.2.10,Win32,60,,,space,0.25281,2,1,0.79514,,0,367,367,464,1,2c,8,2,9,
,,,,,,,,,,,,,,,,,,,,,,,,,,images/exp1b_trial_59_colour1_distractors19_l.png,l,1,001,001,2021-04-11_13h46.10.134,searchDisc4,2020.2.10,Win32,60,,,space,0.282705,1,1,0.79114,,0,368,368,173,1,1b,59,1,19,
,,,,,,,,,,,,,,,,,,,,,,,,,,images/exp1b_trial_64_colour2_distractors9_l.png,l,1,001,001,2021-04-11_13h46.10.134,searchDisc4,2020.2.10,Win32,60,,,space,0.27264,1,1,0.682305,,0,369,369,178,1,1b,64,2,9,
,,,,,,,,,,,,,,,,,,,,,,,,,,images/exp2a_trial_4_colour1_distractors31_r.png,r,2,001,001,2021-04-11_13h46.10.134,searchDisc4,2020.2.10,Win32,60,,,space,0.265345,2,1,1.21717,,0,370,370,232,1,2a,4,1,31,
,,,,,,,,,,,,,,,,,,,,,,,,,,images/exp2a_trial_81_colour1_distractors43_r.png,r,2,001,001,2021-04-11_13h46.10.134,searchDisc4,2020.2.10,Win32,60,,,space,0.259655,2,1,0.77381,,0,371,371,309,1,2a,81,1,43,
,,,,,,,,,,,,,,,,,,,,,,,,,,images/exp2a_trial_61_colour1_distractors43_l.png,l,1,001,001,2021-04-11_13h46.10.134,searchDisc4,2020.2.10,Win32,60,,,space,0.23963,1,1,0.668915,,0,372,372,289,1,2a,61,1,43,
,,,,,,,,,,,,,,,,,,,,,,,,,,images/exp1b_trial_5_colour1_distractors43_r.png,r,2,001,001,2021-04-11_13h46.10.134,searchDisc4,2020.2.10,Win32,60,,,space,0.284995,2,1,0.71165,,0,373,373,119,1,1b,5,1,43,
,,,,,,,,,,,,,,,,,,,,,,,,,,images/exp2a_trial_9_colour2_distractors19_r.png,r,2,001,001,2021-04-11_13h46.10.134,searchDisc4,2020.2.10,Win32,60,,,space,0.20932,2,1,0.77719,,0,374,374,237,1,2a,9,2,19,
,,,,,,,,,,,,,,,,,,,,,,,,,,images/exp2b_trial_100_colour2_distractors1_l.png,l,1,001,001,2021-04-11_13h46.10.134,searchDisc4,2020.2.10,Win32,60,,,space,0.24991,1,1,0.71042,,0,375,375,442,1,2b,100,2,1,
,,,,,,,,,,,,,,,,,,,,,,,,,,images/exp1a_trial_104_colour2_distractors31_l.png,l,1,001,001,2021-04-11_13h46.10.134,searchDisc4,2020.2.10,Win32,60,,,space,0.28551,1,1,0.661585,,0,376,376,104,1,1a,104,2,31,
,,,,,,,,,,,,,,,,,,,,,,,,,,images/exp1a_trial_45_colour2_distractors4_r.png,r,2,001,001,2021-04-11_13h46.10.134,searchDisc4,2020.2.10,Win32,60,,,space,0.28581,2,1,0.718255,,0,377,377,45,1,1a,45,2,4,
,,,,,,,,,,,,,,,,,,,,,,,,,,images/exp1b_trial_13_colour3_distractors4_r.png,r,2,001,001,2021-04-11_13h46.10.134,searchDisc4,2020.2.10,Win32,60,,,space,0.36132,2,1,0.732385,,0,378,378,127,1,1b,13,3,4,
,,,,,,,,,,,,,,,,,,,,,,,,,,images/exp1b_trial_34_colour3_distractors31_l.png,l,1,001,001,2021-04-11_13h46.10.134,searchDisc4,2020.2.10,Win32,60,,,space,0.24318,1,1,0.68331,,0,379,379,148,1,1b,34,3,31,
,,,,,,,,,,,,,,,,,,,,,,,,,,images/exp2a_trial_107_colour3_distractors4_l.png,l,1,001,001,2021-04-11_13h46.10.134,searchDisc4,2020.2.10,Win32,60,,,space,0.253085,1,1,0.7319,,0,380,380,335,1,2a,107,3,4,
,,,,,,,,,,,,,,,,,,,,,,,,,,images/exp2c_trial_32_colour3_distractors9_l.png,l,1,001,001,2021-04-11_13h46.10.134,searchDisc4,2020.2.10,Win32,60,,,space,0.26412,1,1,0.56154,,0,381,381,488,1,2c,32,3,9,
,,,,,,,,,,,,,,,,,,,,,,,,,,images/exp1a_trial_26_colour2_distractors9_l.png,l,1,001,001,2021-04-11_13h46.10.134,searchDisc4,2020.2.10,Win32,60,,,space,0.24396,2,0,0.75531,,0,382,382,26,1,1a,26,2,9,
,,,,,,,,,,,,,,,,,,,,,,,,,,images/exp2b_trial_41_colour1_distractors19_r.png,r,2,001,001,2021-04-11_13h46.10.134,searchDisc4,2020.2.10,Win32,60,,,space,0.21056,2,1,0.764515,,0,383,383,383,1,2b,41,1,19,
,,,,,,,,,,,,,,,,,,,,,,,,,,images/exp2a_trial_44_colour2_distractors1_r.png,r,2,001,001,2021-04-11_13h46.10.134,searchDisc4,2020.2.10,Win32,60,,,space,0.19355,2,1,0.758025,,0,384,384,272,1,2a,44,2,1,
,,,,,,,,,,,,,,,,,,,,,,,,,,images/exp1b_trial_51_colour3_distractors4_r.png,r,2,001,001,2021-04-11_13h46.10.134,searchDisc4,2020.2.10,Win32,60,,,space,0.33229,1,0,0.811175,,0,385,385,165,1,1b,51,3,4,
,,,,,,,,,,,,,,,,,,,,,,,,,,images/exp1a_trial_14_colour3_distractors9_r.png,r,2,001,001,2021-04-11_13h46.10.134,searchDisc4,2020.2.10,Win32,60,,,space,0.48271,2,1,0.659085,,0,386,386,14,1,1a,14,3,9,
,,,,,,,,,,,,,,,,,,,,,,,,,,images/exp2a_trial_34_colour3_distractors31_l.png,l,1,001,001,2021-04-11_13h46.10.134,searchDisc4,2020.2.10,Win32,60,,,space,0.246105,1,1,0.824475,,0,387,387,262,1,2a,34,3,31,
,,,,,,,,,,,,,,,,,,,,,,,,,,images/exp2b_trial_37_colour0_distractors0_l.png,l,1,001,001,2021-04-11_13h46.10.134,searchDisc4,2020.2.10,Win32,60,,,space,0.20865,1,1,0.577995,,0,388,388,379,1,2b,37,0,0,
,,,,,,,,,,,,,,,,,,,,,,,,,,images/exp1b_trial_85_colour2_distractors19_r.png,r,2,001,001,2021-04-11_13h46.10.134,searchDisc4,2020.2.10,Win32,60,,,space,0.2993,2,1,0.78119,,0,389,389,199,1,1b,85,2,19,
,,,,,,,,,,,,,,,,,,,,,,,,,,images/exp2a_trial_83_colour2_distractors4_r.png,r,2,001,001,2021-04-11_13h46.10.134,searchDisc4,2020.2.10,Win32,60,,,space,0.27814,2,1,0.75334,,0,390,390,311,1,2a,83,2,4,
,,,,,,,,,,,,,,,,,,,,,,,,,,images/exp1b_trial_30_colour3_distractors1_l.png,l,1,001,001,2021-04-11_13h46.10.134,searchDisc4,2020.2.10,Win32,60,,,space,0.215725,1,1,0.67716,,0,391,391,144,1,1b,30,3,1,
,,,,,,,,,,,,,,,,,,,,,,,,,,images/exp2b_trial_28_colour2_distractors31_l.png,l,1,001,001,2021-04-11_13h46.10.134,searchDisc4,2020.2.10,Win32,60,,,space,0.194855,1,1,0.90597,,0,392,392,370,1,2b,28,2,31,
,,,,,,,,,,,,,,,,,,,,,,,,,,images/exp1a_trial_48_colour2_distractors31_r.png,r,2,001,001,2021-04-11_13h46.10.134,searchDisc4,2020.2.10,Win32,60,,,space,0.24034,2,1,0.69646,,0,393,393,48,1,1a,48,2,31,
,,,,,,,,,,,,,,,,,,,,,,,,,,images/exp2a_trial_51_colour3_distractors4_r.png,r,2,001,001,2021-04-11_13h46.10.134,searchDisc4,2020.2.10,Win32,60,,,space,0.201515,2,1,0.892555,,0,394,394,279,1,2a,51,3,4,
,,,,,,,,,,,,,,,,,,,,,,,,,,images/exp2a_trial_95_colour1_distractors4_l.png,l,1,001,001,2021-04-11_13h46.10.134,searchDisc4,2020.2.10,Win32,60,,,space,0.201595,1,1,0.762905,,0,395,395,323,1,2a,95,1,4,
,,,,,,,,,,,,,,,,,,,,,,,,,,images/exp2a_trial_52_colour3_distractors9_r.png,r,2,001,001,2021-04-11_13h46.10.134,searchDisc4,2020.2.10,Win32,60,,,space,0.242125,2,1,0.71135,,0,396,396,280,1,2a,52,3,9,
,,,,,,,,,,,,,,,,,,,,,,,,,,images/exp2b_trial_24_colour2_distractors1_l.png,l,1,001,001,2021-04-11_13h46.10.134,searchDisc4,2020.2.10,Win32,60,,,space,0.275625,2,0,0.97214,,0,397,397,366,1,2b,24,2,1,
,,,,,,,,,,,,,,,,,,,,,,,,,,images/exp1b_trial_107_colour3_distractors4_l.png,l,1,001,001,2021-04-11_13h46.10.134,searchDisc4,2020.2.10,Win32,60,,,space,0.27524,1,1,1.260745,,0,398,398,221,1,1b,107,3,4,
,,,,,,,,,,,,,,,,,,,,,,,,,,images/exp2c_trial_7_colour2_distractors4_r.png,r,2,001,001,2021-04-11_13h46.10.134,searchDisc4,2020.2.10,Win32,60,,,space,0.256885,2,1,0.714865,,0,399,399,463,1,2c,7,2,4,
,,,,,,,,,,,,,,,,,,,,,,,,,,images/exp2b_trial_74_colour0_distractors0_r.png,r,2,001,001,2021-04-11_13h46.10.134,searchDisc4,2020.2.10,Win32,60,,,space,0.295615,2,1,0.587055,,0,400,400,416,1,2b,74,0,0,
,,,,,,,,,,,,,,,,,,,,,,,,,,images/exp2b_trial_64_colour2_distractors9_l.png,l,1,001,001,2021-04-11_13h46.10.134,searchDisc4,2020.2.10,Win32,60,,,space,0.238285,1,1,0.676985,,0,401,401,406,1,2b,64,2,9,
,,,,,,,,,,,,,,,,,,,,,,,,,,images/exp2b_trial_23_colour1_distractors43_l.png,l,1,001,001,2021-04-11_13h46.10.134,searchDisc4,2020.2.10,Win32,60,,,space,0.27899,1,1,0.7246,,0,402,402,365,1,2b,23,1,43,
,,,,,,,,,,,,,,,,,,,,,,,,,,images/exp2b_trial_65_colour2_distractors19_l.png,l,1,001,001,2021-04-11_13h46.10.134,searchDisc4,2020.2.10,Win32,60,,,space,0.29789,1,1,0.692195,,0,403,403,407,1,2b,65,2,19,
,,,,,,,,,,,,,,,,,,,,,,,,,,images/exp1a_trial_62_colour2_distractors1_l.png,l,1,001,001,2021-04-11_13h46.10.134,searchDisc4,2020.2.10,Win32,60,,,space,0.2696,1,1,0.83572,,0,404,404,62,1,1a,62,2,1,
,,,,,,,,,,,,,,,,,,,,,,,,,,images/exp2a_trial_46_colour2_distractors9_r.png,r,2,001,001,2021-04-11_13h46.10.134,searchDisc4,2020.2.10,Win32,60,,,space,0.25787,2,1,0.74084,,0,405,405,274,1,2a,46,2,9,
,,,,,,,,,,,,,,,,,,,,,,,,,,images/exp1b_trial_38_colour1_distractors1_r.png,r,2,001,001,2021-04-11_13h46.10.134,searchDisc4,2020.2.10,Win32,60,,,space,0.228395,2,1,1.00455,,0,406,406,152,1,1b,38,1,1,
,,,,,,,,,,,,,,,,,,,,,,,,,,images/exp2a_trial_50_colour3_distractors1_r.png,r,2,001,001,2021-04-11_13h46.10.134,searchDisc4,2020.2.10,Win32,60,,,space,0.217215,2,1,0.60896,,0,407,407,278,1,2a,50,3,1,
,,,,,,,,,,,,,,,,,,,,,,,,,,images/exp2b_trial_71_colour3_distractors19_l.png,l,1,001,001,2021-04-11_13h46.10.134,searchDisc4,2020.2.10,Win32,60,,,space,0.28568,1,1,0.59877,,0,408,408,413,1,2b,71,3,19,
,,,,,,,,,,,,,,,,,,,,,,,,,,images/exp1a_trial_52_colour3_distractors9_r.png,r,2,001,001,2021-04-11_13h46.10.134,searchDisc4,2020.2.10,Win32,60,,,space,0.23645,2,1,0.904355,,0,409,409,52,1,1a,52,3,9,
,,,,,,,,,,,,,,,,,,,,,,,,,,images/exp2c_trial_45_colour2_distractors4_r.png,r,2,001,001,2021-04-11_13h46.10.134,searchDisc4,2020.2.10,Win32,60,,,space,0.284055,2,1,0.703855,,0,410,410,501,1,2c,45,2,4,
,,,,,,,,,,,,,,,,,,,,,,,,,,images/exp1a_trial_4_colour1_distractors31_r.png,r,2,001,001,2021-04-11_13h46.10.134,searchDisc4,2020.2.10,Win32,60,,,space,0.22544,2,1,0.67911,,0,411,411,4,1,1a,4,1,31,
,,,,,,,,,,,,,,,,,,,,,,,,,,images/exp2a_trial_70_colour3_distractors9_l.png,l,1,001,001,2021-04-11_13h46.10.134,searchDisc4,2020.2.10,Win32,60,,,space,0.24245,1,1,0.54934,,0,412,412,298,1,2a,70,3,9,
,,,,,,,,,,,,,,,,,,,,,,,,,,images/exp2c_trial_15_colour3_distractors19_r.png,r,2,001,001,2021-04-11_13h46.10.134,searchDisc4,2020.2.10,Win32,60,,,space,0.223085,2,1,0.53059,,0,413,413,471,1,2c,15,3,19,
,,,,,,,,,,,,,,,,,,,,,,,,,,images/exp2b_trial_0_colour1_distractors1_r.png,r,2,001,001,2021-04-11_13h46.10.134,searchDisc4,2020.2.10,Win32,60,,,space,0.262535,2,1,0.56913,,0,414,414,342,1,2b,0,1,1,
,,,,,,,,,,,,,,,,,,,,,,,,,,images/exp1b_trial_102_colour2_distractors9_l.png,l,1,001,001,2021-04-11_13h46.10.134,searchDisc4,2020.2.10,Win32,60,,,space,0.219395,1,1,1.04471,,0,415,415,216,1,1b,102,2,9,
,,,,,,,,,,,,,,,,,,,,,,,,,,images/exp1b_trial_72_colour3_distractors31_l.png,l,1,001,001,2021-04-11_13h46.10.134,searchDisc4,2020.2.10,Win32,60,,,space,0.190825,1,1,0.846655,,0,416,416,186,1,1b,72,3,31,
,,,,,,,,,,,,,,,,,,,,,,,,,,images/exp2b_trial_53_colour3_distractors19_r.png,r,2,001,001,2021-04-11_13h46.10.134,searchDisc4,2020.2.10,Win32,60,,,space,0.24478,2,1,0.832795,,0,417,417,395,1,2b,53,3,19,
,,,,,,,,,,,,,,,,,,,,,,,,,,images/exp2c_trial_71_colour3_distractors19_l.png,l,1,001,001,2021-04-11_13h46.10.134,searchDisc4,2020.2.10,Win32,60,,,space,0.28108,1,1,0.768655,,0,418,418,527,1,2c,71,3,19,
,,,,,,,,,,,,,,,,,,,,,,,,,,images/exp2b_trial_113_colour0_distractors0_l.png,l,1,001,001,2021-04-11_13h46.10.134,searchDisc4,2020.2.10,Win32,60,,,space,0.24996,1,1,0.66336,space,0,419,419,455,1,2b,113,0,0,0.242865
,,,,,,,,,,,,,,,,,,,,,,,,,,images/exp2c_trial_6_colour2_distractors1_r.png,r,2,001,001,2021-04-11_13h46.10.134,searchDisc4,2020.2.10,Win32,60,,,space,0.7308,2,1,0.79129,,0,420,420,462,1,2c,6,2,1,
,,,,,,,,,,,,,,,,,,,,,,,,,,images/exp2a_trial_30_colour3_distractors1_l.png,l,1,001,001,2021-04-11_13h46.10.134,searchDisc4,2020.2.10,Win32,60,,,space,0.26369,1,1,1.077785,,0,421,421,258,1,2a,30,3,1,
,,,,,,,,,,,,,,,,,,,,,,,,,,images/exp2c_trial_102_colour2_distractors9_l.png,l,1,001,001,2021-04-11_13h46.10.134,searchDisc4,2020.2.10,Win32,60,,,space,0.20175,1,1,0.71394,,0,422,422,558,1,2c,102,2,9,
,,,,,,,,,,,,,,,,,,,,,,,,,,images/exp2a_trial_84_colour2_distractors9_r.png,r,2,001,001,2021-04-11_13h46.10.134,searchDisc4,2020.2.10,Win32,60,,,space,0.22144,2,1,0.628565,,0,423,423,312,1,2a,84,2,9,
,,,,,,,,,,,,,,,,,,,,,,,,,,images/exp1a_trial_57_colour1_distractors4_l.png,l,1,001,001,2021-04-11_13h46.10.134,searchDisc4,2020.2.10,Win32,60,,,space,0.17379,1,1,0.712965,,0,424,424,57,1,1a,57,1,4,
,,,,,,,,,,,,,,,,,,,,,,,,,,images/exp2c_trial_84_colour2_distractors9_r.png,r,2,001,001,2021-04-11_13h46.10.134,searchDisc4,2020.2.10,Win32,60,,,space,0.219705,2,1,0.82524,,0,425,425,540,1,2c,84,2,9,
,,,,,,,,,,,,,,,,,,,,,,,,,,images/exp2c_trial_92_colour3_distractors31_r.png,r,2,001,001,2021-04-11_13h46.10.134,searchDisc4,2020.2.10,Win32,60,,,space,0.267275,2,1,0.676895,,0,426,426,548,1,2c,92,3,31,
,,,,,,,,,,,,,,,,,,,,,,,,,,images/exp2c_trial_34_colour3_distractors31_l.png,l,1,001,001,2021-04-11_13h46.10.134,searchDisc4,2020.2.10,Win32,60,,,space,0.24635,1,1,1.062105,,0,427,427,490,1,2c,34,3,31,
,,,,,,,,,,,,,,,,,,,,,,,,,,images/exp1a_trial_80_colour1_distractors31_r.png,r,2,001,001,2021-04-11_13h46.10.134,searchDisc4,2020.2.10,Win32,60,,,space,0.22232,2,1,0.57446,,0,428,428,80,1,1a,80,1,31,
,,,,,,,,,,,,,,,,,,,,,,,,,,images/exp2a_trial_21_colour1_distractors19_l.png,l,1,001,001,2021-04-11_13h46.10.134,searchDisc4,2020.2.10,Win32,60,,,space,0.24336,1,1,0.540165,,0,429,429,249,1,2a,21,1,19,
,,,,,,,,,,,,,,,,,,,,,,,,,,images/exp2c_trial_88_colour3_distractors1_r.png,r,2,001,001,2021-04-11_13h46.10.134,searchDisc4,2020.2.10,Win32,60,,,space,0.23163,2,1,1.14815,,0,430,430,544,1,2c,88,3,1,
,,,,,,,,,,,,,,,,,,,,,,,,,,images/exp2b_trial_85_colour2_distractors19_r.png,r,2,001,001,2021-04-11_13h46.10.134,searchDisc4,2020.2.10,Win32,60,,,space,0.2224,2,1,0.91993,,0,431,431,427,1,2b,85,2,19,
,,,,,,,,,,,,,,,,,,,,,,,,,,images/exp2b_trial_1_colour1_distractors4_r.png,r,2,001,001,2021-04-11_13h46.10.134,searchDisc4,2020.2.10,Win32,60,,,space,0.31276,2,1,0.921835,,0,432,432,343,1,2b,1,1,4,
,,,,,,,,,,,,,,,,,,,,,,,,,,images/exp1a_trial_9_colour2_distractors19_r.png,r,2,001,001,2021-04-11_13h46.10.134,searchDisc4,2020.2.10,Win32,60,,,space,0.23664,2,1,0.847335,,0,433,433,9,1,1a,9,2,19,
,,,,,,,,,,,,,,,,,,,,,,,,,,images/exp1a_trial_112_colour0_distractors0_r.png,r,2,001,001,2021-04-11_13h46.10.134,searchDisc4,2020.2.10,Win32,60,,,space,0.276555,2,1,0.84765,,0,434,434,112,1,1a,112,0,0,
,,,,,,,,,,,,,,,,,,,,,,,,,,images/exp2a_trial_74_colour0_distractors0_r.png,r,2,001,001,2021-04-11_13h46.10.134,searchDisc4,2020.2.10,Win32,60,,,space,0.215525,2,1,0.899255,,0,435,435,302,1,2a,74,0,0,
,,,,,,,,,,,,,,,,,,,,,,,,,,images/exp2b_trial_93_colour3_distractors43_r.png,r,2,001,001,2021-04-11_13h46.10.134,searchDisc4,2020.2.10,Win32,60,,,space,0.215405,2,1,0.760465,,0,436,436,435,1,2b,93,3,43,
,,,,,,,,,,,,,,,,,,,,,,,,,,images/exp2c_trial_59_colour1_distractors19_l.png,l,1,001,001,2021-04-11_13h46.10.134,searchDisc4,2020.2.10,Win32,60,,,space,0.215625,1,1,0.725225,,0,437,437,515,1,2c,59,1,19,
,,,,,,,,,,,,,,,,,,,,,,,,,,images/exp2b_trial_44_colour2_distractors1_r.png,r,2,001,001,2021-04-11_13h46.10.134,searchDisc4,2020.2.10,Win32,60,,,space,0.215825,2,1,0.699295,,0,438,438,386,1,2b,44,2,1,
,,,,,,,,,,,,,,,,,,,,,,,,,,images/exp2c_trial_89_colour3_distractors4_r.png,r,2,001,001,2021-04-11_13h46.10.134,searchDisc4,2020.2.10,Win32,60,,,space,0.213175,2,1,0.82204,,0,439,439,545,1,2c,89,3,4,
,,,,,,,,,,,,,,,,,,,,,,,,,,images/exp2c_trial_76_colour1_distractors1_r.png,r,2,001,001,2021-04-11_13h46.10.134,searchDisc4,2020.2.10,Win32,60,,,space,0.2911,2,1,0.51058,,0,440,440,532,1,2c,76,1,1,
,,,,,,,,,,,,,,,,,,,,,,,,,,images/exp1a_trial_5_colour1_distractors43_r.png,r,2,001,001,2021-04-11_13h46.10.134,searchDisc4,2020.2.10,Win32,60,,,space,0.267555,2,1,0.962395,,0,441,441,5,1,1a,5,1,43,
,,,,,,,,,,,,,,,,,,,,,,,,,,images/exp2a_trial_109_colour3_distractors19_l.png,l,1,001,001,2021-04-11_13h46.10.134,searchDisc4,2020.2.10,Win32,60,,,space,0.203935,1,1,0.61315,,0,442,442,337,1,2a,109,3,19,
,,,,,,,,,,,,,,,,,,,,,,,,,,images/exp1a_trial_88_colour3_distractors1_r.png,r,2,001,001,2021-04-11_13h46.10.134,searchDisc4,2020.2.10,Win32,60,,,space,0.24391,2,1,0.650375,,0,443,443,88,1,1a,88,3,1,
,,,,,,,,,,,,,,,,,,,,,,,,,,images/exp1b_trial_109_colour3_distractors19_l.png,l,1,001,001,2021-04-11_13h46.10.134,searchDisc4,2020.2.10,Win32,60,,,space,0.227955,2,0,1.343465,,0,444,444,223,1,1b,109,3,19,
,,,,,,,,,,,,,,,,,,,,,,,,,,images/exp2b_trial_12_colour3_distractors1_r.png,r,2,001,001,2021-04-11_13h46.10.134,searchDisc4,2020.2.10,Win32,60,,,space,0.193805,2,1,1.132795,,0,445,445,354,1,2b,12,3,1,
,,,,,,,,,,,,,,,,,,,,,,,,,,images/exp2c_trial_26_colour2_distractors9_l.png,l,1,001,001,2021-04-11_13h46.10.134,searchDisc4,2020.2.10,Win32,60,,,space,0.20182,1,1,0.930195,,0,446,446,482,1,2c,26,2,9,
,,,,,,,,,,,,,,,,,,,,,,,,,,images/exp1b_trial_27_colour2_distractors19_l.png,l,1,001,001,2021-04-11_13h46.10.134,searchDisc4,2020.2.10,Win32,60,,,space,0.186305,1,1,0.988825,,0,447,447,141,1,1b,27,2,19,
,,,,,,,,,,,,,,,,,,,,,,,,,,images/exp2a_trial_102_colour2_distractors9_l.png,l,1,001,001,2021-04-11_13h46.10.134,searchDisc4,2020.2.10,Win32,60,,,space,0.26415,1,1,0.450305,,0,448,448,330,1,2a,102,2,9,
,,,,,,,,,,,,,,,,,,,,,,,,,,images/exp1b_trial_108_colour3_distractors9_l.png,l,1,001,001,2021-04-11_13h46.10.134,searchDisc4,2020.2.10,Win32,60,,,space,0.26,1,1,0.738855,,0,449,449,222,1,1b,108,3,9,
,,,,,,,,,,,,,,,,,,,,,,,,,,images/exp2b_trial_31_colour3_distractors4_l.png,l,1,001,001,2021-04-11_13h46.10.134,searchDisc4,2020.2.10,Win32,60,,,space,0.197075,1,1,0.61022,,0,450,450,373,1,2b,31,3,4,
,,,,,,,,,,,,,,,,,,,,,,,,,,images/exp1a_trial_90_colour3_distractors9_r.png,r,2,001,001,2021-04-11_13h46.10.134,searchDisc4,2020.2.10,Win32,60,,,space,0.194595,2,1,0.814785,,0,451,451,90,1,1a,90,3,9,
,,,,,,,,,,,,,,,,,,,,,,,,,,images/exp2c_trial_46_colour2_distractors9_r.png,r,2,001,001,2021-04-11_13h46.10.134,searchDisc4,2020.2.10,Win32,60,,,space,0.2445,2,1,0.66786,,0,452,452,502,1,2c,46,2,9,
,,,,,,,,,,,,,,,,,,,,,,,,,,images/exp2a_trial_101_colour2_distractors4_l.png,l,1,001,001,2021-04-11_13h46.10.134,searchDisc4,2020.2.10,Win32,60,,,space,0.19373,1,1,1.0509,,0,453,453,329,1,2a,101,2,4,
,,,,,,,,,,,,,,,,,,,,,,,,,,images/exp2c_trial_98_colour1_distractors31_l.png,l,1,001,001,2021-04-11_13h46.10.134,searchDisc4,2020.2.10,Win32,60,,,space,0.16701,1,1,0.66005,,0,454,454,554,1,2c,98,1,31,
,,,,,,,,,,,,,,,,,,,,,,,,,,images/exp1b_trial_87_colour2_distractors43_r.png,r,2,001,001,2021-04-11_13h46.10.134,searchDisc4,2020.2.10,Win32,60,,,space,0.19,1,0,1.370475,,0,455,455,201,1,1b,87,2,43,
,,,,,,,,,,,,,,,,,,,,,,,,,,images/exp2c_trial_113_colour0_distractors0_l.png,l,1,001,001,2021-04-11_13h46.10.134,searchDisc4,2020.2.10,Win32,60,,,space,0.19876,1,1,0.71398,,0,456,456,569,1,2c,113,0,0,
,,,,,,,,,,,,,,,,,,,,,,,,,,images/exp2a_trial_18_colour1_distractors1_l.png,l,1,001,001,2021-04-11_13h46.10.134,searchDisc4,2020.2.10,Win32,60,,,space,0.223475,1,1,0.500885,,0,457,457,246,1,2a,18,1,1,
,,,,,,,,,,,,,,,,,,,,,,,,,,images/exp1b_trial_113_colour0_distractors0_l.png,l,1,001,001,2021-04-11_13h46.10.134,searchDisc4,2020.2.10,Win32,60,,,space,0.232855,1,1,0.53404,,0,458,458,227,1,1b,113,0,0,
,,,,,,,,,,,,,,,,,,,,,,,,,,images/exp1a_trial_56_colour1_distractors1_l.png,l,1,001,001,2021-04-11_13h46.10.134,searchDisc4,2020.2.10,Win32,60,,,space,0.257645,1,1,0.69402,,0,459,459,56,1,1a,56,1,1,
,,,,,,,,,,,,,,,,,,,,,,,,,,images/exp1a_trial_16_colour3_distractors31_r.png,r,2,001,001,2021-04-11_13h46.10.134,searchDisc4,2020.2.10,Win32,60,,,space,0.277925,2,1,0.932225,,0,460,460,16,1,1a,16,3,31,
,,,,,,,,,,,,,,,,,,,,,,,,,,images/exp1b_trial_71_colour3_distractors19_l.png,l,1,001,001,2021-04-11_13h46.10.134,searchDisc4,2020.2.10,Win32,60,,,space,0.229535,1,1,0.90196,,0,461,461,185,1,1b,71,3,19,
,,,,,,,,,,,,,,,,,,,,,,,,,,images/exp1a_trial_31_colour3_distractors4_l.png,l,1,001,001,2021-04-11_13h46.10.134,searchDisc4,2020.2.10,Win32,60,,,space,0.250965,1,1,0.65407,,0,462,462,31,1,1a,31,3,4,
,,,,,,,,,,,,,,,,,,,,,,,,,,images/exp2c_trial_60_colour1_distractors31_l.png,l,1,001,001,2021-04-11_13h46.10.134,searchDisc4,2020.2.10,Win32,60,,,space,0.22932,1,1,0.78824,,0,463,463,516,1,2c,60,1,31,
,,,,,,,,,,,,,,,,,,,,,,,,,,images/exp2c_trial_77_colour1_distractors4_r.png,r,2,001,001,2021-04-11_13h46.10.134,searchDisc4,2020.2.10,Win32,60,,,space,0.22246,2,1,0.73103,,0,464,464,533,1,2c,77,1,4,
,,,,,,,,,,,,,,,,,,,,,,,,,,images/exp2b_trial_4_colour1_distractors31_r.png,r,2,001,001,2021-04-11_13h46.10.134,searchDisc4,2020.2.10,Win32,60,,,space,0.21433,2,1,0.890485,,0,465,465,346,1,2b,4,1,31,
,,,,,,,,,,,,,,,,,,,,,,,,,,images/exp1a_trial_109_colour3_distractors19_l.png,l,1,001,001,2021-04-11_13h46.10.134,searchDisc4,2020.2.10,Win32,60,,,space,0.172185,1,1,0.66408,,0,466,466,109,1,1a,109,3,19,
,,,,,,,,,,,,,,,,,,,,,,,,,,images/exp1a_trial_67_colour2_distractors43_l.png,l,1,001,001,2021-04-11_13h46.10.134,searchDisc4,2020.2.10,Win32,60,,,space,0.22339,1,1,1.217615,,0,467,467,67,1,1a,67,2,43,
,,,,,,,,,,,,,,,,,,,,,,,,,,images/exp1b_trial_19_colour1_distractors4_l.png,l,1,001,001,2021-04-11_13h46.10.134,searchDisc4,2020.2.10,Win32,60,,,space,0.16938,1,1,0.67716,,0,468,468,133,1,1b,19,1,4,
,,,,,,,,,,,,,,,,,,,,,,,,,,images/exp2b_trial_111_colour3_distractors43_l.png,l,1,001,001,2021-04-11_13h46.10.134,searchDisc4,2020.2.10,Win32,60,,,space,0.213545,1,1,0.74543,,0,469,469,453,1,2b,111,3,43,
,,,,,,,,,,,,,,,,,,,,,,,,,,images/exp2c_trial_43_colour1_distractors43_r.png,r,2,001,001,2021-04-11_13h46.10.134,searchDisc4,2020.2.10,Win32,60,,,space,0.255715,2,1,0.802805,,0,470,470,499,1,2c,43,1,43,
,,,,,,,,,,,,,,,,,,,,,,,,,,images/exp1b_trial_49_colour2_distractors43_r.png,r,2,001,001,2021-04-11_13h46.10.134,searchDisc4,2020.2.10,Win32,60,,,space,0.179225,2,1,0.86386,,0,471,471,163,1,1b,49,2,43,
,,,,,,,,,,,,,,,,,,,,,,,,,,images/exp2a_trial_0_colour1_distractors1_r.png,r,2,001,001,2021-04-11_13h46.10.134,searchDisc4,2020.2.10,Win32,60,,,space,0.272285,2,1,0.84763,,0,472,472,228,1,2a,0,1,1,
,,,,,,,,,,,,,,,,,,,,,,,,,,images/exp1a_trial_61_colour1_distractors43_l.png,l,1,001,001,2021-04-11_13h46.10.134,searchDisc4,2020.2.10,Win32,60,,,space,0.229905,1,1,0.55187,,0,473,473,61,1,1a,61,1,43,
,,,,,,,,,,,,,,,,,,,,,,,,,,images/exp1a_trial_77_colour1_distractors4_r.png,r,2,001,001,2021-04-11_13h46.10.134,searchDisc4,2020.2.10,Win32,60,,,space,0.26429,2,1,0.677405,,0,474,474,77,1,1a,77,1,4,
,,,,,,,,,,,,,,,,,,,,,,,,,,images/exp2b_trial_26_colour2_distractors9_l.png,l,1,001,001,2021-04-11_13h46.10.134,searchDisc4,2020.2.10,Win32,60,,,space,0.21804,1,1,0.562925,,0,475,475,368,1,2b,26,2,9,
,,,,,,,,,,,,,,,,,,,,,,,,,,images/exp1a_trial_72_colour3_distractors31_l.png,l,1,001,001,2021-04-11_13h46.10.134,searchDisc4,2020.2.10,Win32,60,,,space,0.235815,1,1,0.68939,,0,476,476,72,1,1a,72,3,31,
