X Scale,Y Scale,key_resp_10.keys,key_resp_10.rt,key_resp_11.keys,key_resp_11.rt,key_resp_12.keys,key_resp_12.rt,key_resp_13.keys,key_resp_13.rt,key_resp_5.keys,key_resp_5.rt,key_resp_8.keys,key_resp_8.rt,key_resp_6.keys,key_resp_6.rt,key_resp_7.keys,key_resp_7.rt,key_resp_4.keys,key_resp_4.corr,key_resp_4.rt,trials_2.thisRepN,trials_2.thisTrialN,trials_2.thisN,trials_2.thisIndex,trials_2.ran,ImageFile,targ_side,correctAnswer,participant,session,date,expName,psychopyVersion,OS,frameRate,key_resp_3.keys,key_resp_3.rt,key_resp_9.keys,key_resp_9.rt,key_resp_2.keys,key_resp_2.corr,key_resp_2.rt,key_resp.keys,trials.thisRepN,trials.thisTrialN,trials.thisN,trials.thisIndex,trials.ran,exp,trial,colour,distNo,key_resp.rt
19.3,19.3,space,0.907875,space,1.62945,space,1.88201,space,1.04348,space,10.981385,space,8.22441,space,10.5076,space,7.096025,1,1,1.84595,0,0,0,11,1,Practice arrays/exp1a_trial_21_colour1_distractors19_l.png,l,1,002,001,2021-04-11_14h29.53.598,searchDisc4,2020.2.10,Win32,60,,,,,,,,,,,,,,,,,,
,,,,,,,,,,,,,,,,space,2.90444,1,1,2.657535,0,1,1,12,1,Practice arrays/exp1a_trial_25_colour2_distractors4_l.png,l,1,002,001,2021-04-11_14h29.53.598,searchDisc4,2020.2.10,Win32,60,,,,,,,,,,,,,,,,,,
,,,,,,,,,,,,,,,,space,1.544035,1,1,1.227635,0,2,2,14,1,Practice arrays/exp1a_trial_29_colour2_distractors43_l.png,l,1,002,001,2021-04-11_14h29.53.598,searchDisc4,2020.2.10,Win32,60,,,,,,,,,,,,,,,,,,
,,,,,,,,,,,,,,,,space,1.176135,1,1,0.65509,0,3,3,16,1,Practice arrays/exp1a_trial_33_colour3_distractors19_l.png,l,1,002,001,2021-04-11_14h29.53.598,searchDisc4,2020.2.10,Win32,60,,,,,,,,,,,,,,,,,,
,,,,,,,,,,,,,,,,space,0.08004,2,1,1.808475,0,4,4,18,1,Practice arrays/exp1a_trial_36_colour0_distractors0_r.png,r,2,002,001,2021-04-11_14h29.53.598,searchDisc4,2020.2.10,Win32,60,,,,,,,,,,,,,,,,,,
,,,,,,,,,,,,,,,,space,0.96276,1,1,0.83905,0,5,5,17,1,Practice arrays/exp1a_trial_35_colour3_distractors43_l.png,l,1,002,001,2021-04-11_14h29.53.598,searchDisc4,2020.2.10,Win32,60,,,,,,,,,,,,,,,,,,
,,,,,,,,,,,,,,,,space,0.377775,2,1,0.492625,0,6,6,6,1,Practice arrays/exp1a_trial_12_colour3_distractors1_r.png,r,2,002,001,2021-04-11_14h29.53.598,searchDisc4,2020.2.10,Win32,60,,,,,,,,,,,,,,,,,,
,,,,,,,,,,,,,,,,space,1.716455,2,1,0.621505,0,7,7,2,1,Practice arrays/exp1a_trial_5_colour1_distractors43_r.png,r,2,002,001,2021-04-11_14h29.53.598,searchDisc4,2020.2.10,Win32,60,,,,,,,,,,,,,,,,,,
,,,,,,,,,,,,,,,,space,0.399255,1,1,0.57423,0,8,8,19,1,Practice arrays/exp1a_trial_37_colour0_distractors0_l.png,l,1,002,001,2021-04-11_14h29.53.598,searchDisc4,2020.2.10,Win32,60,,,,,,,,,,,,,,,,,,
,,,,,,,,,,,,,,,,space,0.63608,2,1,0.737745,0,9,9,3,1,Practice arrays/exp1a_trial_7_colour2_distractors4_r.png,r,2,002,001,2021-04-11_14h29.53.598,searchDisc4,2020.2.10,Win32,60,,,,,,,,,,,,,,,,,,
,,,,,,,,,,,,,,,,space,0.719595,2,1,0.75996,0,10,10,0,1,Practice arrays/exp1a_trial_0_colour1_distractors1_r.png,r,2,002,001,2021-04-11_14h29.53.598,searchDisc4,2020.2.10,Win32,60,,,,,,,,,,,,,,,,,,
,,,,,,,,,,,,,,,,space,0.453295,2,1,0.74525,0,11,11,8,1,Practice arrays/exp1a_trial_16_colour3_distractors31_r.png,r,2,002,001,2021-04-11_14h29.53.598,searchDisc4,2020.2.10,Win32,60,,,,,,,,,,,,,,,,,,
,,,,,,,,,,,,,,,,space,1.59203,2,1,1.18315,0,12,12,5,1,Practice arrays/exp1a_trial_10_colour2_distractors31_r.png,r,2,002,001,2021-04-11_14h29.53.598,searchDisc4,2020.2.10,Win32,60,,,,,,,,,,,,,,,,,,
,,,,,,,,,,,,,,,,space,2.19637,1,1,0.628705,0,13,13,15,1,Practice arrays/exp1a_trial_32_colour3_distractors9_l.png,l,1,002,001,2021-04-11_14h29.53.598,searchDisc4,2020.2.10,Win32,60,,,,,,,,,,,,,,,,,,
,,,,,,,,,,,,,,,,space,2.59749,2,1,0.58695,0,14,14,7,1,Practice arrays/exp1a_trial_13_colour3_distractors4_r.png,r,2,002,001,2021-04-11_14h29.53.598,searchDisc4,2020.2.10,Win32,60,,,,,,,,,,,,,,,,,,
,,,,,,,,,,,,,,,,space,0.431775,2,1,0.74705,0,15,15,1,1,Practice arrays/exp1a_trial_3_colour1_distractors19_r.png,r,2,002,001,2021-04-11_14h29.53.598,searchDisc4,2020.2.10,Win32,60,,,,,,,,,,,,,,,,,,
,,,,,,,,,,,,,,,,space,0.341645,1,1,0.676545,0,16,16,10,1,Practice arrays/exp1a_trial_20_colour1_distractors9_l.png,l,1,002,001,2021-04-11_14h29.53.598,searchDisc4,2020.2.10,Win32,60,,,,,,,,,,,,,,,,,,
,,,,,,,,,,,,,,,,space,0.695075,2,1,0.513785,0,17,17,4,1,Practice arrays/exp1a_trial_8_colour2_distractors9_r.png,r,2,002,001,2021-04-11_14h29.53.598,searchDisc4,2020.2.10,Win32,60,,,,,,,,,,,,,,,,,,
,,,,,,,,,,,,,,,,space,0.538985,1,1,0.7326,0,18,18,13,1,Practice arrays/exp1a_trial_28_colour2_distractors31_l.png,l,1,002,001,2021-04-11_14h29.53.598,searchDisc4,2020.2.10,Win32,60,,,,,,,,,,,,,,,,,,
,,,,,,,,,,,,,,,,space,0.409895,1,1,0.573825,0,19,19,9,1,Practice arrays/exp1a_trial_19_colour1_distractors4_l.png,l,1,002,001,2021-04-11_14h29.53.598,searchDisc4,2020.2.10,Win32,60,,,,,,,,,,,,,,,,,,
,,,,,,,,,,,,,,,,,,,,,,,,,,images/exp1a_trial_106_colour3_distractors1_l.png,l,1,002,001,2021-04-11_14h29.53.598,searchDisc4,2020.2.10,Win32,60,space,8.687985,space,0.884635,1,1,0.920385,,0,0,0,106,1,1a,106,3,1,
,,,,,,,,,,,,,,,,,,,,,,,,,,images/exp2c_trial_18_colour1_distractors1_l.png,l,1,002,001,2021-04-11_14h29.53.598,searchDisc4,2020.2.10,Win32,60,,,space,0.575805,1,1,0.63329,,0,1,1,474,1,2c,18,1,1,
,,,,,,,,,,,,,,,,,,,,,,,,,,images/exp2b_trial_53_colour3_distractors19_r.png,r,2,002,001,2021-04-11_14h29.53.598,searchDisc4,2020.2.10,Win32,60,,,space,0.492365,1,0,0.599465,,0,2,2,395,1,2b,53,3,19,
,,,,,,,,,,,,,,,,,,,,,,,,,,images/exp2a_trial_74_colour0_distractors0_r.png,r,2,002,001,2021-04-11_14h29.53.598,searchDisc4,2020.2.10,Win32,60,,,space,1.84144,2,1,0.68672,,0,3,3,302,1,2a,74,0,0,
,,,,,,,,,,,,,,,,,,,,,,,,,,images/exp1b_trial_55_colour3_distractors43_r.png,r,2,002,001,2021-04-11_14h29.53.598,searchDisc4,2020.2.10,Win32,60,,,space,1.14547,2,1,3.32845,,0,4,4,169,1,1b,55,3,43,
,,,,,,,,,,,,,,,,,,,,,,,,,,images/exp1a_trial_26_colour2_distractors9_l.png,l,1,002,001,2021-04-11_14h29.53.598,searchDisc4,2020.2.10,Win32,60,,,space,1.06508,1,1,0.91972,,0,5,5,26,1,1a,26,2,9,
,,,,,,,,,,,,,,,,,,,,,,,,,,images/exp2a_trial_6_colour2_distractors1_r.png,r,2,002,001,2021-04-11_14h29.53.598,searchDisc4,2020.2.10,Win32,60,,,space,0.826715,2,1,0.966905,,0,6,6,234,1,2a,6,2,1,
,,,,,,,,,,,,,,,,,,,,,,,,,,images/exp2b_trial_84_colour2_distractors9_r.png,r,2,002,001,2021-04-11_14h29.53.598,searchDisc4,2020.2.10,Win32,60,,,space,0.680795,2,1,0.72999,,0,7,7,426,1,2b,84,2,9,
,,,,,,,,,,,,,,,,,,,,,,,,,,images/exp2b_trial_38_colour1_distractors1_r.png,r,2,002,001,2021-04-11_14h29.53.598,searchDisc4,2020.2.10,Win32,60,,,space,0.49122,2,1,0.70121,,0,8,8,380,1,2b,38,1,1,
,,,,,,,,,,,,,,,,,,,,,,,,,,images/exp2c_trial_88_colour3_distractors1_r.png,r,2,002,001,2021-04-11_14h29.53.598,searchDisc4,2020.2.10,Win32,60,,,space,0.42359,2,1,1.591005,,0,9,9,544,1,2c,88,3,1,
,,,,,,,,,,,,,,,,,,,,,,,,,,images/exp2a_trial_71_colour3_distractors19_l.png,l,1,002,001,2021-04-11_14h29.53.598,searchDisc4,2020.2.10,Win32,60,,,space,0.38458,1,1,0.633165,,0,10,10,299,1,2a,71,3,19,
,,,,,,,,,,,,,,,,,,,,,,,,,,images/exp1a_trial_66_colour2_distractors31_l.png,l,1,002,001,2021-04-11_14h29.53.598,searchDisc4,2020.2.10,Win32,60,,,space,0.42465,1,1,0.75877,,0,11,11,66,1,1a,66,2,31,
,,,,,,,,,,,,,,,,,,,,,,,,,,images/exp2c_trial_46_colour2_distractors9_r.png,r,2,002,001,2021-04-11_14h29.53.598,searchDisc4,2020.2.10,Win32,60,,,space,0.7236,2,1,0.731805,,0,12,12,502,1,2c,46,2,9,
,,,,,,,,,,,,,,,,,,,,,,,,,,images/exp2c_trial_10_colour2_distractors31_r.png,r,2,002,001,2021-04-11_14h29.53.598,searchDisc4,2020.2.10,Win32,60,,,space,0.407295,2,1,0.702225,,0,13,13,466,1,2c,10,2,31,
,,,,,,,,,,,,,,,,,,,,,,,,,,images/exp2b_trial_44_colour2_distractors1_r.png,r,2,002,001,2021-04-11_14h29.53.598,searchDisc4,2020.2.10,Win32,60,,,space,0.418995,2,1,0.5625,,0,14,14,386,1,2b,44,2,1,
,,,,,,,,,,,,,,,,,,,,,,,,,,images/exp2c_trial_30_colour3_distractors1_l.png,l,1,002,001,2021-04-11_14h29.53.598,searchDisc4,2020.2.10,Win32,60,,,space,0.37736,1,1,0.739845,,0,15,15,486,1,2c,30,3,1,
,,,,,,,,,,,,,,,,,,,,,,,,,,images/exp2b_trial_59_colour1_distractors19_l.png,l,1,002,001,2021-04-11_14h29.53.598,searchDisc4,2020.2.10,Win32,60,,,space,0.37775,1,1,0.90641,,0,16,16,401,1,2b,59,1,19,
,,,,,,,,,,,,,,,,,,,,,,,,,,images/exp2c_trial_37_colour0_distractors0_l.png,l,1,002,001,2021-04-11_14h29.53.598,searchDisc4,2020.2.10,Win32,60,,,space,0.864855,1,1,0.572905,,0,17,17,493,1,2c,37,0,0,
,,,,,,,,,,,,,,,,,,,,,,,,,,images/exp1b_trial_92_colour3_distractors31_r.png,r,2,002,001,2021-04-11_14h29.53.598,searchDisc4,2020.2.10,Win32,60,,,space,0.345005,2,1,1.052115,,0,18,18,206,1,1b,92,3,31,
,,,,,,,,,,,,,,,,,,,,,,,,,,images/exp2c_trial_27_colour2_distractors19_l.png,l,1,002,001,2021-04-11_14h29.53.598,searchDisc4,2020.2.10,Win32,60,,,space,0.37131,1,1,0.70086,,0,19,19,483,1,2c,27,2,19,
,,,,,,,,,,,,,,,,,,,,,,,,,,images/exp2c_trial_64_colour2_distractors9_l.png,l,1,002,001,2021-04-11_14h29.53.598,searchDisc4,2020.2.10,Win32,60,,,space,0.881085,1,1,0.686845,,0,20,20,520,1,2c,64,2,9,
,,,,,,,,,,,,,,,,,,,,,,,,,,images/exp1b_trial_112_colour0_distractors0_r.png,r,2,002,001,2021-04-11_14h29.53.598,searchDisc4,2020.2.10,Win32,60,,,space,0.387785,2,1,0.58773,,0,21,21,226,1,1b,112,0,0,
,,,,,,,,,,,,,,,,,,,,,,,,,,images/exp1a_trial_44_colour2_distractors1_r.png,r,2,002,001,2021-04-11_14h29.53.598,searchDisc4,2020.2.10,Win32,60,,,space,0.340575,2,1,0.954565,,0,22,22,44,1,1a,44,2,1,
,,,,,,,,,,,,,,,,,,,,,,,,,,images/exp2a_trial_21_colour1_distractors19_l.png,l,1,002,001,2021-04-11_14h29.53.598,searchDisc4,2020.2.10,Win32,60,,,space,0.24319,1,1,1.17269,,0,23,23,249,1,2a,21,1,19,
,,,,,,,,,,,,,,,,,,,,,,,,,,images/exp2b_trial_8_colour2_distractors9_r.png,r,2,002,001,2021-04-11_14h29.53.598,searchDisc4,2020.2.10,Win32,60,,,space,0.34214,2,1,1.482555,,0,24,24,350,1,2b,8,2,9,
,,,,,,,,,,,,,,,,,,,,,,,,,,images/exp2c_trial_70_colour3_distractors9_l.png,l,1,002,001,2021-04-11_14h29.53.598,searchDisc4,2020.2.10,Win32,60,,,space,0.382295,1,1,0.55127,,0,25,25,526,1,2c,70,3,9,
,,,,,,,,,,,,,,,,,,,,,,,,,,images/exp2a_trial_13_colour3_distractors4_r.png,r,2,002,001,2021-04-11_14h29.53.598,searchDisc4,2020.2.10,Win32,60,,,space,0.339925,2,1,0.62815,,0,26,26,241,1,2a,13,3,4,
,,,,,,,,,,,,,,,,,,,,,,,,,,images/exp1a_trial_15_colour3_distractors19_r.png,r,2,002,001,2021-04-11_14h29.53.598,searchDisc4,2020.2.10,Win32,60,,,space,0.35437,2,1,0.838815,,0,27,27,15,1,1a,15,3,19,
,,,,,,,,,,,,,,,,,,,,,,,,,,images/exp1b_trial_81_colour1_distractors43_r.png,r,2,002,001,2021-04-11_14h29.53.598,searchDisc4,2020.2.10,Win32,60,,,space,0.31763,2,1,1.044565,,0,28,28,195,1,1b,81,1,43,
,,,,,,,,,,,,,,,,,,,,,,,,,,images/exp1b_trial_16_colour3_distractors31_r.png,r,2,002,001,2021-04-11_14h29.53.598,searchDisc4,2020.2.10,Win32,60,,,space,0.321795,2,1,1.069795,,0,29,29,130,1,1b,16,3,31,
,,,,,,,,,,,,,,,,,,,,,,,,,,images/exp1a_trial_42_colour1_distractors31_r.png,r,2,002,001,2021-04-11_14h29.53.598,searchDisc4,2020.2.10,Win32,60,,,space,0.271095,1,0,0.56564,,0,30,30,42,1,1a,42,1,31,
,,,,,,,,,,,,,,,,,,,,,,,,,,images/exp1a_trial_53_colour3_distractors19_r.png,r,2,002,001,2021-04-11_14h29.53.598,searchDisc4,2020.2.10,Win32,60,,,space,0.54155,2,1,0.594375,,0,31,31,53,1,1a,53,3,19,
,,,,,,,,,,,,,,,,,,,,,,,,,,images/exp1b_trial_21_colour1_distractors19_l.png,l,1,002,001,2021-04-11_14h29.53.598,searchDisc4,2020.2.10,Win32,60,,,space,0.28455,1,1,0.88475,,0,32,32,135,1,1b,21,1,19,
,,,,,,,,,,,,,,,,,,,,,,,,,,images/exp2c_trial_31_colour3_distractors4_l.png,l,1,002,001,2021-04-11_14h29.53.598,searchDisc4,2020.2.10,Win32,60,,,space,0.30613,1,1,0.541055,,0,33,33,487,1,2c,31,3,4,
,,,,,,,,,,,,,,,,,,,,,,,,,,images/exp2b_trial_21_colour1_distractors19_l.png,l,1,002,001,2021-04-11_14h29.53.598,searchDisc4,2020.2.10,Win32,60,,,space,0.32694,1,1,0.56282,,0,34,34,363,1,2b,21,1,19,
,,,,,,,,,,,,,,,,,,,,,,,,,,images/exp2a_trial_45_colour2_distractors4_r.png,r,2,002,001,2021-04-11_14h29.53.598,searchDisc4,2020.2.10,Win32,60,,,space,0.7233,2,1,0.782025,,0,35,35,273,1,2a,45,2,4,
,,,,,,,,,,,,,,,,,,,,,,,,,,images/exp2b_trial_9_colour2_distractors19_r.png,r,2,002,001,2021-04-11_14h29.53.598,searchDisc4,2020.2.10,Win32,60,,,space,0.310005,2,1,0.499255,,0,36,36,351,1,2b,9,2,19,
,,,,,,,,,,,,,,,,,,,,,,,,,,images/exp1b_trial_58_colour1_distractors9_l.png,l,1,002,001,2021-04-11_14h29.53.598,searchDisc4,2020.2.10,Win32,60,,,space,0.290355,2,0,1.07361,,0,37,37,172,1,1b,58,1,9,
,,,,,,,,,,,,,,,,,,,,,,,,,,images/exp1b_trial_95_colour1_distractors4_l.png,l,1,002,001,2021-04-11_14h29.53.598,searchDisc4,2020.2.10,Win32,60,,,space,1.187535,1,1,0.652865,,0,38,38,209,1,1b,95,1,4,
,,,,,,,,,,,,,,,,,,,,,,,,,,images/exp1a_trial_94_colour1_distractors1_l.png,l,1,002,001,2021-04-11_14h29.53.598,searchDisc4,2020.2.10,Win32,60,,,space,0.321115,1,1,0.7965,,0,39,39,94,1,1a,94,1,1,
,,,,,,,,,,,,,,,,,,,,,,,,,,images/exp1b_trial_40_colour1_distractors9_r.png,r,2,002,001,2021-04-11_14h29.53.598,searchDisc4,2020.2.10,Win32,60,,,space,0.34296,2,1,0.851705,,0,40,40,154,1,1b,40,1,9,
,,,,,,,,,,,,,,,,,,,,,,,,,,images/exp2b_trial_90_colour3_distractors9_r.png,r,2,002,001,2021-04-11_14h29.53.598,searchDisc4,2020.2.10,Win32,60,,,space,0.324495,2,1,0.6011,,0,41,41,432,1,2b,90,3,9,
,,,,,,,,,,,,,,,,,,,,,,,,,,images/exp1b_trial_1_colour1_distractors4_r.png,r,2,002,001,2021-04-11_14h29.53.598,searchDisc4,2020.2.10,Win32,60,,,space,0.323195,2,1,0.90152,,0,42,42,115,1,1b,1,1,4,
,,,,,,,,,,,,,,,,,,,,,,,,,,images/exp2b_trial_73_colour3_distractors43_l.png,l,1,002,001,2021-04-11_14h29.53.598,searchDisc4,2020.2.10,Win32,60,,,space,0.39311,1,1,0.619915,,0,43,43,415,1,2b,73,3,43,
,,,,,,,,,,,,,,,,,,,,,,,,,,images/exp1b_trial_15_colour3_distractors19_r.png,r,2,002,001,2021-04-11_14h29.53.598,searchDisc4,2020.2.10,Win32,60,,,space,0.49927,2,1,0.729265,,0,44,44,129,1,1b,15,3,19,
,,,,,,,,,,,,,,,,,,,,,,,,,,images/exp2c_trial_85_colour2_distractors19_r.png,r,2,002,001,2021-04-11_14h29.53.598,searchDisc4,2020.2.10,Win32,60,,,space,0.376045,2,1,0.696525,,0,45,45,541,1,2c,85,2,19,
,,,,,,,,,,,,,,,,,,,,,,,,,,images/exp2a_trial_99_colour1_distractors43_l.png,l,1,002,001,2021-04-11_14h29.53.598,searchDisc4,2020.2.10,Win32,60,,,space,0.36334,1,1,0.588975,,0,46,46,327,1,2a,99,1,43,
,,,,,,,,,,,,,,,,,,,,,,,,,,images/exp2c_trial_19_colour1_distractors4_l.png,l,1,002,001,2021-04-11_14h29.53.598,searchDisc4,2020.2.10,Win32,60,,,space,0.386745,1,1,0.530305,,0,47,47,475,1,2c,19,1,4,
,,,,,,,,,,,,,,,,,,,,,,,,,,images/exp1b_trial_47_colour2_distractors19_r.png,r,2,002,001,2021-04-11_14h29.53.598,searchDisc4,2020.2.10,Win32,60,,,space,0.569405,2,1,0.75152,,0,48,48,161,1,1b,47,2,19,
,,,,,,,,,,,,,,,,,,,,,,,,,,images/exp2b_trial_74_colour0_distractors0_r.png,r,2,002,001,2021-04-11_14h29.53.598,searchDisc4,2020.2.10,Win32,60,,,space,0.338175,2,1,0.665825,,0,49,49,416,1,2b,74,0,0,
,,,,,,,,,,,,,,,,,,,,,,,,,,images/exp2a_trial_32_colour3_distractors9_l.png,l,1,002,001,2021-04-11_14h29.53.598,searchDisc4,2020.2.10,Win32,60,,,space,0.31463,1,1,0.725145,,0,50,50,260,1,2a,32,3,9,
,,,,,,,,,,,,,,,,,,,,,,,,,,images/exp2a_trial_28_colour2_distractors31_l.png,l,1,002,001,2021-04-11_14h29.53.598,searchDisc4,2020.2.10,Win32,60,,,space,0.315455,1,1,0.566915,,0,51,51,256,1,2a,28,2,31,
,,,,,,,,,,,,,,,,,,,,,,,,,,images/exp1b_trial_98_colour1_distractors31_l.png,l,1,002,001,2021-04-11_14h29.53.598,searchDisc4,2020.2.10,Win32,60,,,space,0.32688,1,1,1.34286,,0,52,52,212,1,1b,98,1,31,
,,,,,,,,,,,,,,,,,,,,,,,,,,images/exp2a_trial_50_colour3_distractors1_r.png,r,2,002,001,2021-04-11_14h29.53.598,searchDisc4,2020.2.10,Win32,60,,,space,0.322425,2,1,0.65559,,0,53,53,278,1,2a,50,3,1,
,,,,,,,,,,,,,,,,,,,,,,,,,,images/exp2a_trial_87_colour2_distractors43_r.png,r,2,002,001,2021-04-11_14h29.53.598,searchDisc4,2020.2.10,Win32,60,,,space,0.3111,2,1,0.67983,,0,54,54,315,1,2a,87,2,43,
,,,,,,,,,,,,,,,,,,,,,,,,,,images/exp2b_trial_36_colour0_distractors0_r.png,r,2,002,001,2021-04-11_14h29.53.598,searchDisc4,2020.2.10,Win32,60,,,space,0.31971,2,1,0.57609,,0,55,55,378,1,2b,36,0,0,
,,,,,,,,,,,,,,,,,,,,,,,,,,images/exp2c_trial_104_colour2_distractors31_l.png,l,1,002,001,2021-04-11_14h29.53.598,searchDisc4,2020.2.10,Win32,60,,,space,0.328885,1,1,0.72652,,0,56,56,560,1,2c,104,2,31,
,,,,,,,,,,,,,,,,,,,,,,,,,,images/exp1b_trial_25_colour2_distractors4_l.png,l,1,002,001,2021-04-11_14h29.53.598,searchDisc4,2020.2.10,Win32,60,,,space,0.33772,1,1,0.702675,,0,57,57,139,1,1b,25,2,4,
,,,,,,,,,,,,,,,,,,,,,,,,,,images/exp2a_trial_35_colour3_distractors43_l.png,l,1,002,001,2021-04-11_14h29.53.598,searchDisc4,2020.2.10,Win32,60,,,space,0.373065,1,1,0.557265,,0,58,58,263,1,2a,35,3,43,
,,,,,,,,,,,,,,,,,,,,,,,,,,images/exp2c_trial_75_colour0_distractors0_l.png,l,1,002,001,2021-04-11_14h29.53.598,searchDisc4,2020.2.10,Win32,60,,,space,0.36131,1,1,0.68993,space,0,59,59,531,1,2c,75,0,0,8.92402
,,,,,,,,,,,,,,,,,,,,,,,,,,images/exp2c_trial_52_colour3_distractors9_r.png,r,2,002,001,2021-04-11_14h29.53.598,searchDisc4,2020.2.10,Win32,60,,,space,1.708925,2,1,1.110485,,0,60,60,508,1,2c,52,3,9,
,,,,,,,,,,,,,,,,,,,,,,,,,,images/exp1a_trial_43_colour1_distractors43_r.png,r,2,002,001,2021-04-11_14h29.53.598,searchDisc4,2020.2.10,Win32,60,,,space,0.305835,2,1,0.52409,,0,61,61,43,1,1a,43,1,43,
,,,,,,,,,,,,,,,,,,,,,,,,,,images/exp1a_trial_34_colour3_distractors31_l.png,l,1,002,001,2021-04-11_14h29.53.598,searchDisc4,2020.2.10,Win32,60,,,space,0.3128,1,1,0.517545,,0,62,62,34,1,1a,34,3,31,
,,,,,,,,,,,,,,,,,,,,,,,,,,images/exp1b_trial_50_colour3_distractors1_r.png,r,2,002,001,2021-04-11_14h29.53.598,searchDisc4,2020.2.10,Win32,60,,,space,0.319765,2,1,1.100545,,0,63,63,164,1,1b,50,3,1,
,,,,,,,,,,,,,,,,,,,,,,,,,,images/exp2c_trial_54_colour3_distractors31_r.png,r,2,002,001,2021-04-11_14h29.53.598,searchDisc4,2020.2.10,Win32,60,,,space,0.32225,2,1,0.75287,,0,64,64,510,1,2c,54,3,31,
,,,,,,,,,,,,,,,,,,,,,,,,,,images/exp2b_trial_99_colour1_distractors43_l.png,l,1,002,001,2021-04-11_14h29.53.598,searchDisc4,2020.2.10,Win32,60,,,space,0.32236,1,1,0.6195,,0,65,65,441,1,2b,99,1,43,
,,,,,,,,,,,,,,,,,,,,,,,,,,images/exp2a_trial_27_colour2_distractors19_l.png,l,1,002,001,2021-04-11_14h29.53.598,searchDisc4,2020.2.10,Win32,60,,,space,0.353385,1,1,0.55044,,0,66,66,255,1,2a,27,2,19,
,,,,,,,,,,,,,,,,,,,,,,,,,,images/exp2a_trial_113_colour0_distractors0_l.png,l,1,002,001,2021-04-11_14h29.53.598,searchDisc4,2020.2.10,Win32,60,,,space,0.355005,1,1,0.781715,,0,67,67,341,1,2a,113,0,0,
,,,,,,,,,,,,,,,,,,,,,,,,,,images/exp1b_trial_73_colour3_distractors43_l.png,l,1,002,001,2021-04-11_14h29.53.598,searchDisc4,2020.2.10,Win32,60,,,space,0.32003,1,1,1.28991,,0,68,68,187,1,1b,73,3,43,
,,,,,,,,,,,,,,,,,,,,,,,,,,images/exp2a_trial_76_colour1_distractors1_r.png,r,2,002,001,2021-04-11_14h29.53.598,searchDisc4,2020.2.10,Win32,60,,,space,0.284025,2,1,0.527595,,0,69,69,304,1,2a,76,1,1,
,,,,,,,,,,,,,,,,,,,,,,,,,,images/exp1b_trial_41_colour1_distractors19_r.png,r,2,002,001,2021-04-11_14h29.53.598,searchDisc4,2020.2.10,Win32,60,,,space,0.30403,2,1,0.74961,,0,70,70,155,1,1b,41,1,19,
,,,,,,,,,,,,,,,,,,,,,,,,,,images/exp1b_trial_80_colour1_distractors31_r.png,r,2,002,001,2021-04-11_14h29.53.598,searchDisc4,2020.2.10,Win32,60,,,space,0.31057,1,0,0.49802,,0,71,71,194,1,1b,80,1,31,
,,,,,,,,,,,,,,,,,,,,,,,,,,images/exp2a_trial_72_colour3_distractors31_l.png,l,1,002,001,2021-04-11_14h29.53.598,searchDisc4,2020.2.10,Win32,60,,,space,0.99991,1,1,0.94223,,0,72,72,300,1,2a,72,3,31,
,,,,,,,,,,,,,,,,,,,,,,,,,,images/exp1b_trial_97_colour1_distractors19_l.png,l,1,002,001,2021-04-11_14h29.53.598,searchDisc4,2020.2.10,Win32,60,,,space,0.300975,1,1,0.73001,,0,73,73,211,1,1b,97,1,19,
,,,,,,,,,,,,,,,,,,,,,,,,,,images/exp2c_trial_44_colour2_distractors1_r.png,r,2,002,001,2021-04-11_14h29.53.598,searchDisc4,2020.2.10,Win32,60,,,space,0.493285,2,1,0.730895,,0,74,74,500,1,2c,44,2,1,
,,,,,,,,,,,,,,,,,,,,,,,,,,images/exp2a_trial_112_colour0_distractors0_r.png,r,2,002,001,2021-04-11_14h29.53.598,searchDisc4,2020.2.10,Win32,60,,,space,0.344055,2,1,0.60204,,0,75,75,340,1,2a,112,0,0,
,,,,,,,,,,,,,,,,,,,,,,,,,,images/exp1b_trial_74_colour0_distractors0_r.png,r,2,002,001,2021-04-11_14h29.53.598,searchDisc4,2020.2.10,Win32,60,,,space,0.3629,2,1,0.516465,,0,76,76,188,1,1b,74,0,0,
,,,,,,,,,,,,,,,,,,,,,,,,,,images/exp2b_trial_104_colour2_distractors31_l.png,l,1,002,001,2021-04-11_14h29.53.598,searchDisc4,2020.2.10,Win32,60,,,space,0.35289,1,1,0.545175,,0,77,77,446,1,2b,104,2,31,
,,,,,,,,,,,,,,,,,,,,,,,,,,images/exp1a_trial_95_colour1_distractors4_l.png,l,1,002,001,2021-04-11_14h29.53.598,searchDisc4,2020.2.10,Win32,60,,,space,0.343885,1,1,0.663045,,0,78,78,95,1,1a,95,1,4,
,,,,,,,,,,,,,,,,,,,,,,,,,,images/exp2a_trial_85_colour2_distractors19_r.png,r,2,002,001,2021-04-11_14h29.53.598,searchDisc4,2020.2.10,Win32,60,,,space,0.35447,2,1,0.553025,,0,79,79,313,1,2a,85,2,19,
,,,,,,,,,,,,,,,,,,,,,,,,,,images/exp2a_trial_41_colour1_distractors19_r.png,r,2,002,001,2021-04-11_14h29.53.598,searchDisc4,2020.2.10,Win32,60,,,space,0.388335,2,1,0.55167,,0,80,80,269,1,2a,41,1,19,
,,,,,,,,,,,,,,,,,,,,,,,,,,images/exp2c_trial_68_colour3_distractors1_l.png,l,1,002,001,2021-04-11_14h29.53.598,searchDisc4,2020.2.10,Win32,60,,,space,0.343145,2,0,0.74161,,0,81,81,524,1,2c,68,3,1,
,,,,,,,,,,,,,,,,,,,,,,,,,,images/exp2a_trial_26_colour2_distractors9_l.png,l,1,002,001,2021-04-11_14h29.53.598,searchDisc4,2020.2.10,Win32,60,,,space,1.064095,1,1,0.575755,,0,82,82,254,1,2a,26,2,9,
,,,,,,,,,,,,,,,,,,,,,,,,,,images/exp1b_trial_27_colour2_distractors19_l.png,l,1,002,001,2021-04-11_14h29.53.598,searchDisc4,2020.2.10,Win32,60,,,space,0.47444,1,1,0.840975,,0,83,83,141,1,1b,27,2,19,
,,,,,,,,,,,,,,,,,,,,,,,,,,images/exp2c_trial_20_colour1_distractors9_l.png,l,1,002,001,2021-04-11_14h29.53.598,searchDisc4,2020.2.10,Win32,60,,,space,0.33946,1,1,0.56469,,0,84,84,476,1,2c,20,1,9,
,,,,,,,,,,,,,,,,,,,,,,,,,,images/exp1b_trial_10_colour2_distractors31_r.png,r,2,002,001,2021-04-11_14h29.53.598,searchDisc4,2020.2.10,Win32,60,,,space,0.662645,2,1,0.673565,,0,85,85,124,1,1b,10,2,31,
,,,,,,,,,,,,,,,,,,,,,,,,,,images/exp1b_trial_79_colour1_distractors19_r.png,r,2,002,001,2021-04-11_14h29.53.598,searchDisc4,2020.2.10,Win32,60,,,space,0.362005,2,1,0.52914,,0,86,86,193,1,1b,79,1,19,
,,,,,,,,,,,,,,,,,,,,,,,,,,images/exp1a_trial_103_colour2_distractors19_l.png,l,1,002,001,2021-04-11_14h29.53.598,searchDisc4,2020.2.10,Win32,60,,,space,0.345685,1,1,0.926265,,0,87,87,103,1,1a,103,2,19,
,,,,,,,,,,,,,,,,,,,,,,,,,,images/exp2c_trial_65_colour2_distractors19_l.png,l,1,002,001,2021-04-11_14h29.53.598,searchDisc4,2020.2.10,Win32,60,,,space,0.36186,1,1,0.632025,,0,88,88,521,1,2c,65,2,19,
,,,,,,,,,,,,,,,,,,,,,,,,,,images/exp2b_trial_113_colour0_distractors0_l.png,l,1,002,001,2021-04-11_14h29.53.598,searchDisc4,2020.2.10,Win32,60,,,space,0.373965,1,1,0.644635,,0,89,89,455,1,2b,113,0,0,
,,,,,,,,,,,,,,,,,,,,,,,,,,images/exp2a_trial_30_colour3_distractors1_l.png,l,1,002,001,2021-04-11_14h29.53.598,searchDisc4,2020.2.10,Win32,60,,,space,0.55402,1,1,0.6168,,0,90,90,258,1,2a,30,3,1,
,,,,,,,,,,,,,,,,,,,,,,,,,,images/exp1a_trial_20_colour1_distractors9_l.png,l,1,002,001,2021-04-11_14h29.53.598,searchDisc4,2020.2.10,Win32,60,,,space,0.391275,1,1,0.597345,,0,91,91,20,1,1a,20,1,9,
,,,,,,,,,,,,,,,,,,,,,,,,,,images/exp1a_trial_65_colour2_distractors19_l.png,l,1,002,001,2021-04-11_14h29.53.598,searchDisc4,2020.2.10,Win32,60,,,space,0.574025,1,1,0.58147,,0,92,92,65,1,1a,65,2,19,
,,,,,,,,,,,,,,,,,,,,,,,,,,images/exp2c_trial_25_colour2_distractors4_l.png,l,1,002,001,2021-04-11_14h29.53.598,searchDisc4,2020.2.10,Win32,60,,,space,0.383385,1,1,0.71504,,0,93,93,481,1,2c,25,2,4,
,,,,,,,,,,,,,,,,,,,,,,,,,,images/exp2a_trial_36_colour0_distractors0_r.png,r,2,002,001,2021-04-11_14h29.53.598,searchDisc4,2020.2.10,Win32,60,,,space,0.34701,2,1,0.719535,,0,94,94,264,1,2a,36,0,0,
,,,,,,,,,,,,,,,,,,,,,,,,,,images/exp1b_trial_38_colour1_distractors1_r.png,r,2,002,001,2021-04-11_14h29.53.598,searchDisc4,2020.2.10,Win32,60,,,space,0.35704,2,1,0.580005,,0,95,95,152,1,1b,38,1,1,
,,,,,,,,,,,,,,,,,,,,,,,,,,images/exp1a_trial_37_colour0_distractors0_l.png,l,1,002,001,2021-04-11_14h29.53.598,searchDisc4,2020.2.10,Win32,60,,,space,0.3089,1,1,0.65641,,0,96,96,37,1,1a,37,0,0,
,,,,,,,,,,,,,,,,,,,,,,,,,,images/exp1b_trial_99_colour1_distractors43_l.png,l,1,002,001,2021-04-11_14h29.53.598,searchDisc4,2020.2.10,Win32,60,,,space,0.364815,1,1,1.065835,,0,97,97,213,1,1b,99,1,43,
,,,,,,,,,,,,,,,,,,,,,,,,,,images/exp2b_trial_89_colour3_distractors4_r.png,r,2,002,001,2021-04-11_14h29.53.598,searchDisc4,2020.2.10,Win32,60,,,space,0.32732,2,1,0.53571,,0,98,98,431,1,2b,89,3,4,
,,,,,,,,,,,,,,,,,,,,,,,,,,images/exp2c_trial_79_colour1_distractors19_r.png,r,2,002,001,2021-04-11_14h29.53.598,searchDisc4,2020.2.10,Win32,60,,,space,0.333595,2,1,0.71571,,0,99,99,535,1,2c,79,1,19,
,,,,,,,,,,,,,,,,,,,,,,,,,,images/exp1a_trial_1_colour1_distractors4_r.png,r,2,002,001,2021-04-11_14h29.53.598,searchDisc4,2020.2.10,Win32,60,,,space,0.31392,2,1,0.665945,,0,100,100,1,1,1a,1,1,4,
,,,,,,,,,,,,,,,,,,,,,,,,,,images/exp1b_trial_86_colour2_distractors31_r.png,r,2,002,001,2021-04-11_14h29.53.598,searchDisc4,2020.2.10,Win32,60,,,space,0.312585,2,1,1.189835,,0,101,101,200,1,1b,86,2,31,
,,,,,,,,,,,,,,,,,,,,,,,,,,images/exp2c_trial_8_colour2_distractors9_r.png,r,2,002,001,2021-04-11_14h29.53.598,searchDisc4,2020.2.10,Win32,60,,,space,0.31832,2,1,0.879415,,0,102,102,464,1,2c,8,2,9,
,,,,,,,,,,,,,,,,,,,,,,,,,,images/exp1a_trial_74_colour0_distractors0_r.png,r,2,002,001,2021-04-11_14h29.53.598,searchDisc4,2020.2.10,Win32,60,,,space,0.30733,2,1,0.605225,,0,103,103,74,1,1a,74,0,0,
,,,,,,,,,,,,,,,,,,,,,,,,,,images/exp2b_trial_61_colour1_distractors43_l.png,l,1,002,001,2021-04-11_14h29.53.598,searchDisc4,2020.2.10,Win32,60,,,space,0.315305,1,1,0.711655,,0,104,104,403,1,2b,61,1,43,
,,,,,,,,,,,,,,,,,,,,,,,,,,images/exp2c_trial_107_colour3_distractors4_l.png,l,1,002,001,2021-04-11_14h29.53.598,searchDisc4,2020.2.10,Win32,60,,,space,0.3347,1,1,0.57729,,0,105,105,563,1,2c,107,3,4,
,,,,,,,,,,,,,,,,,,,,,,,,,,images/exp2b_trial_40_colour1_distractors9_r.png,r,2,002,001,2021-04-11_14h29.53.598,searchDisc4,2020.2.10,Win32,60,,,space,0.33172,2,1,0.56682,,0,106,106,382,1,2b,40,1,9,
,,,,,,,,,,,,,,,,,,,,,,,,,,images/exp2b_trial_30_colour3_distractors1_l.png,l,1,002,001,2021-04-11_14h29.53.598,searchDisc4,2020.2.10,Win32,60,,,space,0.33393,2,0,0.5474,,0,107,107,372,1,2b,30,3,1,
,,,,,,,,,,,,,,,,,,,,,,,,,,images/exp2c_trial_7_colour2_distractors4_r.png,r,2,002,001,2021-04-11_14h29.53.598,searchDisc4,2020.2.10,Win32,60,,,space,0.97841,2,1,0.68466,,0,108,108,463,1,2c,7,2,4,
,,,,,,,,,,,,,,,,,,,,,,,,,,images/exp2a_trial_4_colour1_distractors31_r.png,r,2,002,001,2021-04-11_14h29.53.598,searchDisc4,2020.2.10,Win32,60,,,space,0.280285,2,1,1.75402,,0,109,109,232,1,2a,4,1,31,
,,,,,,,,,,,,,,,,,,,,,,,,,,images/exp2b_trial_106_colour3_distractors1_l.png,l,1,002,001,2021-04-11_14h29.53.598,searchDisc4,2020.2.10,Win32,60,,,space,0.2836,1,1,0.58473,,0,110,110,448,1,2b,106,3,1,
,,,,,,,,,,,,,,,,,,,,,,,,,,images/exp2a_trial_102_colour2_distractors9_l.png,l,1,002,001,2021-04-11_14h29.53.598,searchDisc4,2020.2.10,Win32,60,,,space,0.295995,1,1,0.569625,,0,111,111,330,1,2a,102,2,9,
,,,,,,,,,,,,,,,,,,,,,,,,,,images/exp1a_trial_4_colour1_distractors31_r.png,r,2,002,001,2021-04-11_14h29.53.598,searchDisc4,2020.2.10,Win32,60,,,space,0.314325,2,1,0.662465,,0,112,112,4,1,1a,4,1,31,
,,,,,,,,,,,,,,,,,,,,,,,,,,images/exp2b_trial_95_colour1_distractors4_l.png,l,1,002,001,2021-04-11_14h29.53.598,searchDisc4,2020.2.10,Win32,60,,,space,0.3058,1,1,0.51869,,0,113,113,437,1,2b,95,1,4,
,,,,,,,,,,,,,,,,,,,,,,,,,,images/exp1b_trial_72_colour3_distractors31_l.png,l,1,002,001,2021-04-11_14h29.53.598,searchDisc4,2020.2.10,Win32,60,,,space,0.335765,1,1,0.88004,,0,114,114,186,1,1b,72,3,31,
,,,,,,,,,,,,,,,,,,,,,,,,,,images/exp2a_trial_46_colour2_distractors9_r.png,r,2,002,001,2021-04-11_14h29.53.598,searchDisc4,2020.2.10,Win32,60,,,space,0.32659,2,1,0.802735,,0,115,115,274,1,2a,46,2,9,
,,,,,,,,,,,,,,,,,,,,,,,,,,images/exp1a_trial_70_colour3_distractors9_l.png,l,1,002,001,2021-04-11_14h29.53.598,searchDisc4,2020.2.10,Win32,60,,,space,0.30105,1,1,0.77013,,0,116,116,70,1,1a,70,3,9,
,,,,,,,,,,,,,,,,,,,,,,,,,,images/exp2a_trial_95_colour1_distractors4_l.png,l,1,002,001,2021-04-11_14h29.53.598,searchDisc4,2020.2.10,Win32,60,,,space,0.33626,1,1,0.69807,,0,117,117,323,1,2a,95,1,4,
,,,,,,,,,,,,,,,,,,,,,,,,,,images/exp1b_trial_101_colour2_distractors4_l.png,l,1,002,001,2021-04-11_14h29.53.598,searchDisc4,2020.2.10,Win32,60,,,space,0.32302,1,1,0.8857,,0,118,118,215,1,1b,101,2,4,
,,,,,,,,,,,,,,,,,,,,,,,,,,images/exp1b_trial_30_colour3_distractors1_l.png,l,1,002,001,2021-04-11_14h29.53.598,searchDisc4,2020.2.10,Win32,60,,,space,0.33177,1,1,0.53593,space,0,119,119,144,1,1b,30,3,1,2.06351
,,,,,,,,,,,,,,,,,,,,,,,,,,images/exp2c_trial_29_colour2_distractors43_l.png,l,1,002,001,2021-04-11_14h29.53.598,searchDisc4,2020.2.10,Win32,60,,,space,1.998805,1,1,0.627285,,0,120,120,485,1,2c,29,2,43,
,,,,,,,,,,,,,,,,,,,,,,,,,,images/exp2b_trial_50_colour3_distractors1_r.png,r,2,002,001,2021-04-11_14h29.53.598,searchDisc4,2020.2.10,Win32,60,,,space,0.28023,2,1,0.797425,,0,121,121,392,1,2b,50,3,1,
,,,,,,,,,,,,,,,,,,,,,,,,,,images/exp2a_trial_103_colour2_distractors19_l.png,l,1,002,001,2021-04-11_14h29.53.598,searchDisc4,2020.2.10,Win32,60,,,space,0.264035,1,1,0.67054,,0,122,122,331,1,2a,103,2,19,
,,,,,,,,,,,,,,,,,,,,,,,,,,images/exp1b_trial_2_colour1_distractors9_r.png,r,2,002,001,2021-04-11_14h29.53.598,searchDisc4,2020.2.10,Win32,60,,,space,0.298935,2,1,0.606795,,0,123,123,116,1,1b,2,1,9,
,,,,,,,,,,,,,,,,,,,,,,,,,,images/exp2b_trial_16_colour3_distractors31_r.png,r,2,002,001,2021-04-11_14h29.53.598,searchDisc4,2020.2.10,Win32,60,,,space,0.483745,2,1,0.6483,,0,124,124,358,1,2b,16,3,31,
,,,,,,,,,,,,,,,,,,,,,,,,,,images/exp1b_trial_52_colour3_distractors9_r.png,r,2,002,001,2021-04-11_14h29.53.598,searchDisc4,2020.2.10,Win32,60,,,space,0.28488,2,1,0.749625,,0,125,125,166,1,1b,52,3,9,
,,,,,,,,,,,,,,,,,,,,,,,,,,images/exp2a_trial_86_colour2_distractors31_r.png,r,2,002,001,2021-04-11_14h29.53.598,searchDisc4,2020.2.10,Win32,60,,,space,0.238345,2,1,0.526985,,0,126,126,314,1,2a,86,2,31,
,,,,,,,,,,,,,,,,,,,,,,,,,,images/exp2b_trial_65_colour2_distractors19_l.png,l,1,002,001,2021-04-11_14h29.53.598,searchDisc4,2020.2.10,Win32,60,,,space,0.353965,1,1,0.677375,,0,127,127,407,1,2b,65,2,19,
,,,,,,,,,,,,,,,,,,,,,,,,,,images/exp2a_trial_31_colour3_distractors4_l.png,l,1,002,001,2021-04-11_14h29.53.598,searchDisc4,2020.2.10,Win32,60,,,space,0.311185,1,1,0.48782,,0,128,128,259,1,2a,31,3,4,
,,,,,,,,,,,,,,,,,,,,,,,,,,images/exp2b_trial_86_colour2_distractors31_r.png,r,2,002,001,2021-04-11_14h29.53.598,searchDisc4,2020.2.10,Win32,60,,,space,0.30164,2,1,0.725545,,0,129,129,428,1,2b,86,2,31,
,,,,,,,,,,,,,,,,,,,,,,,,,,images/exp2a_trial_33_colour3_distractors19_l.png,l,1,002,001,2021-04-11_14h29.53.598,searchDisc4,2020.2.10,Win32,60,,,space,0.26452,1,1,0.574225,,0,130,130,261,1,2a,33,3,19,
,,,,,,,,,,,,,,,,,,,,,,,,,,images/exp2a_trial_94_colour1_distractors1_l.png,l,1,002,001,2021-04-11_14h29.53.598,searchDisc4,2020.2.10,Win32,60,,,space,0.284935,1,1,0.54851,,0,131,131,322,1,2a,94,1,1,
,,,,,,,,,,,,,,,,,,,,,,,,,,images/exp1b_trial_44_colour2_distractors1_r.png,r,2,002,001,2021-04-11_14h29.53.598,searchDisc4,2020.2.10,Win32,60,,,space,0.264805,2,1,0.503335,,0,132,132,158,1,1b,44,2,1,
,,,,,,,,,,,,,,,,,,,,,,,,,,images/exp1a_trial_112_colour0_distractors0_r.png,r,2,002,001,2021-04-11_14h29.53.598,searchDisc4,2020.2.10,Win32,60,,,space,0.29122,2,1,0.63017,,0,133,133,112,1,1a,112,0,0,
,,,,,,,,,,,,,,,,,,,,,,,,,,images/exp2b_trial_45_colour2_distractors4_r.png,r,2,002,001,2021-04-11_14h29.53.598,searchDisc4,2020.2.10,Win32,60,,,space,0.29264,2,1,0.4889,,0,134,134,387,1,2b,45,2,4,
,,,,,,,,,,,,,,,,,,,,,,,,,,images/exp2a_trial_51_colour3_distractors4_r.png,r,2,002,001,2021-04-11_14h29.53.598,searchDisc4,2020.2.10,Win32,60,,,space,0.30311,2,1,0.55939,,0,135,135,279,1,2a,51,3,4,
,,,,,,,,,,,,,,,,,,,,,,,,,,images/exp2a_trial_106_colour3_distractors1_l.png,l,1,002,001,2021-04-11_14h29.53.598,searchDisc4,2020.2.10,Win32,60,,,space,0.29408,1,1,0.5211,,0,136,136,334,1,2a,106,3,1,
,,,,,,,,,,,,,,,,,,,,,,,,,,images/exp2c_trial_102_colour2_distractors9_l.png,l,1,002,001,2021-04-11_14h29.53.598,searchDisc4,2020.2.10,Win32,60,,,space,0.39546,1,1,0.510825,,0,137,137,558,1,2c,102,2,9,
,,,,,,,,,,,,,,,,,,,,,,,,,,images/exp2b_trial_72_colour3_distractors31_l.png,l,1,002,001,2021-04-11_14h29.53.598,searchDisc4,2020.2.10,Win32,60,,,space,0.30596,1,1,0.867965,,0,138,138,414,1,2b,72,3,31,
,,,,,,,,,,,,,,,,,,,,,,,,,,images/exp2c_trial_92_colour3_distractors31_r.png,r,2,002,001,2021-04-11_14h29.53.598,searchDisc4,2020.2.10,Win32,60,,,space,0.26696,1,0,0.559175,,0,139,139,548,1,2c,92,3,31,
,,,,,,,,,,,,,,,,,,,,,,,,,,images/exp2c_trial_51_colour3_distractors4_r.png,r,2,002,001,2021-04-11_14h29.53.598,searchDisc4,2020.2.10,Win32,60,,,space,0.688075,2,1,0.67481,,0,140,140,507,1,2c,51,3,4,
,,,,,,,,,,,,,,,,,,,,,,,,,,images/exp1b_trial_77_colour1_distractors4_r.png,r,2,002,001,2021-04-11_14h29.53.598,searchDisc4,2020.2.10,Win32,60,,,space,0.32715,2,1,0.628045,,0,141,141,191,1,1b,77,1,4,
,,,,,,,,,,,,,,,,,,,,,,,,,,images/exp2c_trial_61_colour1_distractors43_l.png,l,1,002,001,2021-04-11_14h29.53.598,searchDisc4,2020.2.10,Win32,60,,,space,0.25368,1,1,0.673595,,0,142,142,517,1,2c,61,1,43,
,,,,,,,,,,,,,,,,,,,,,,,,,,images/exp1b_trial_43_colour1_distractors43_r.png,r,2,002,001,2021-04-11_14h29.53.598,searchDisc4,2020.2.10,Win32,60,,,space,0.23634,2,1,0.724705,,0,143,143,157,1,1b,43,1,43,
,,,,,,,,,,,,,,,,,,,,,,,,,,images/exp1a_trial_3_colour1_distractors19_r.png,r,2,002,001,2021-04-11_14h29.53.598,searchDisc4,2020.2.10,Win32,60,,,space,0.22508,2,1,0.70452,,0,144,144,3,1,1a,3,1,19,
,,,,,,,,,,,,,,,,,,,,,,,,,,images/exp2a_trial_101_colour2_distractors4_l.png,l,1,002,001,2021-04-11_14h29.53.598,searchDisc4,2020.2.10,Win32,60,,,space,0.249825,1,1,0.83766,,0,145,145,329,1,2a,101,2,4,
,,,,,,,,,,,,,,,,,,,,,,,,,,images/exp2c_trial_113_colour0_distractors0_l.png,l,1,002,001,2021-04-11_14h29.53.598,searchDisc4,2020.2.10,Win32,60,,,space,0.299975,1,1,0.686995,,0,146,146,569,1,2c,113,0,0,
,,,,,,,,,,,,,,,,,,,,,,,,,,images/exp1b_trial_39_colour1_distractors4_r.png,r,2,002,001,2021-04-11_14h29.53.598,searchDisc4,2020.2.10,Win32,60,,,space,0.310285,2,1,0.55703,,0,147,147,153,1,1b,39,1,4,
,,,,,,,,,,,,,,,,,,,,,,,,,,images/exp1b_trial_53_colour3_distractors19_r.png,r,2,002,001,2021-04-11_14h29.53.598,searchDisc4,2020.2.10,Win32,60,,,space,0.29207,2,1,1.106,,0,148,148,167,1,1b,53,3,19,
,,,,,,,,,,,,,,,,,,,,,,,,,,images/exp2a_trial_11_colour2_distractors43_r.png,r,2,002,001,2021-04-11_14h29.53.598,searchDisc4,2020.2.10,Win32,60,,,space,0.30347,2,1,0.70509,,0,149,149,239,1,2a,11,2,43,
,,,,,,,,,,,,,,,,,,,,,,,,,,images/exp2c_trial_77_colour1_distractors4_r.png,r,2,002,001,2021-04-11_14h29.53.598,searchDisc4,2020.2.10,Win32,60,,,space,0.271085,2,1,0.55703,,0,150,150,533,1,2c,77,1,4,
,,,,,,,,,,,,,,,,,,,,,,,,,,images/exp2a_trial_22_colour1_distractors31_l.png,l,1,002,001,2021-04-11_14h29.53.598,searchDisc4,2020.2.10,Win32,60,,,space,0.2793,1,1,0.62445,,0,151,151,250,1,2a,22,1,31,
,,,,,,,,,,,,,,,,,,,,,,,,,,images/exp1a_trial_59_colour1_distractors19_l.png,l,1,002,001,2021-04-11_14h29.53.598,searchDisc4,2020.2.10,Win32,60,,,space,0.262355,1,1,0.620355,,0,152,152,59,1,1a,59,1,19,
,,,,,,,,,,,,,,,,,,,,,,,,,,images/exp1b_trial_51_colour3_distractors4_r.png,r,2,002,001,2021-04-11_14h29.53.598,searchDisc4,2020.2.10,Win32,60,,,space,0.31959,2,1,0.733095,,0,153,153,165,1,1b,51,3,4,
,,,,,,,,,,,,,,,,,,,,,,,,,,images/exp2b_trial_55_colour3_distractors43_r.png,r,2,002,001,2021-04-11_14h29.53.598,searchDisc4,2020.2.10,Win32,60,,,space,0.30089,2,1,0.545325,,0,154,154,397,1,2b,55,3,43,
,,,,,,,,,,,,,,,,,,,,,,,,,,images/exp2a_trial_69_colour3_distractors4_l.png,l,1,002,001,2021-04-11_14h29.53.598,searchDisc4,2020.2.10,Win32,60,,,space,0.312765,1,1,0.49296,,0,155,155,297,1,2a,69,3,4,
,,,,,,,,,,,,,,,,,,,,,,,,,,images/exp2c_trial_83_colour2_distractors4_r.png,r,2,002,001,2021-04-11_14h29.53.598,searchDisc4,2020.2.10,Win32,60,,,space,0.4995,2,1,0.479065,,0,156,156,539,1,2c,83,2,4,
,,,,,,,,,,,,,,,,,,,,,,,,,,images/exp1a_trial_32_colour3_distractors9_l.png,l,1,002,001,2021-04-11_14h29.53.598,searchDisc4,2020.2.10,Win32,60,,,space,0.34151,1,1,0.4446,,0,157,157,32,1,1a,32,3,9,
,,,,,,,,,,,,,,,,,,,,,,,,,,images/exp2b_trial_13_colour3_distractors4_r.png,r,2,002,001,2021-04-11_14h29.53.598,searchDisc4,2020.2.10,Win32,60,,,space,0.561865,2,1,0.714555,,0,158,158,355,1,2b,13,3,4,
,,,,,,,,,,,,,,,,,,,,,,,,,,images/exp1b_trial_35_colour3_distractors43_l.png,l,1,002,001,2021-04-11_14h29.53.598,searchDisc4,2020.2.10,Win32,60,,,space,0.280585,1,1,1.055305,,0,159,159,149,1,1b,35,3,43,
,,,,,,,,,,,,,,,,,,,,,,,,,,images/exp1b_trial_94_colour1_distractors1_l.png,l,1,002,001,2021-04-11_14h29.53.598,searchDisc4,2020.2.10,Win32,60,,,space,0.25281,1,1,0.61714,,0,160,160,208,1,1b,94,1,1,
,,,,,,,,,,,,,,,,,,,,,,,,,,images/exp2a_trial_0_colour1_distractors1_r.png,r,2,002,001,2021-04-11_14h29.53.598,searchDisc4,2020.2.10,Win32,60,,,space,0.236715,2,1,0.451035,,0,161,161,228,1,2a,0,1,1,
,,,,,,,,,,,,,,,,,,,,,,,,,,images/exp2b_trial_23_colour1_distractors43_l.png,l,1,002,001,2021-04-11_14h29.53.598,searchDisc4,2020.2.10,Win32,60,,,space,0.26939,1,1,0.66692,,0,162,162,365,1,2b,23,1,43,
,,,,,,,,,,,,,,,,,,,,,,,,,,images/exp2a_trial_40_colour1_distractors9_r.png,r,2,002,001,2021-04-11_14h29.53.598,searchDisc4,2020.2.10,Win32,60,,,space,0.24336,2,1,0.99109,,0,163,163,268,1,2a,40,1,9,
,,,,,,,,,,,,,,,,,,,,,,,,,,images/exp2a_trial_62_colour2_distractors1_l.png,l,1,002,001,2021-04-11_14h29.53.598,searchDisc4,2020.2.10,Win32,60,,,space,0.26629,1,1,0.55965,,0,164,164,290,1,2a,62,2,1,
,,,,,,,,,,,,,,,,,,,,,,,,,,images/exp2a_trial_109_colour3_distractors19_l.png,l,1,002,001,2021-04-11_14h29.53.598,searchDisc4,2020.2.10,Win32,60,,,space,0.227195,1,1,0.51486,,0,165,165,337,1,2a,109,3,19,
,,,,,,,,,,,,,,,,,,,,,,,,,,images/exp2c_trial_95_colour1_distractors4_l.png,l,1,002,001,2021-04-11_14h29.53.598,searchDisc4,2020.2.10,Win32,60,,,space,0.264085,1,1,0.54244,,0,166,166,551,1,2c,95,1,4,
,,,,,,,,,,,,,,,,,,,,,,,,,,images/exp2b_trial_3_colour1_distractors19_r.png,r,2,002,001,2021-04-11_14h29.53.598,searchDisc4,2020.2.10,Win32,60,,,space,0.250205,2,1,0.508015,,0,167,167,345,1,2b,3,1,19,
,,,,,,,,,,,,,,,,,,,,,,,,,,images/exp2b_trial_26_colour2_distractors9_l.png,l,1,002,001,2021-04-11_14h29.53.598,searchDisc4,2020.2.10,Win32,60,,,space,0.3381,1,1,0.52323,,0,168,168,368,1,2b,26,2,9,
,,,,,,,,,,,,,,,,,,,,,,,,,,images/exp1a_trial_104_colour2_distractors31_l.png,l,1,002,001,2021-04-11_14h29.53.598,searchDisc4,2020.2.10,Win32,60,,,space,0.256685,1,1,0.717435,,0,169,169,104,1,1a,104,2,31,
,,,,,,,,,,,,,,,,,,,,,,,,,,images/exp1a_trial_101_colour2_distractors4_l.png,l,1,002,001,2021-04-11_14h29.53.598,searchDisc4,2020.2.10,Win32,60,,,space,0.199255,1,1,0.959825,,0,170,170,101,1,1a,101,2,4,
,,,,,,,,,,,,,,,,,,,,,,,,,,images/exp2b_trial_52_colour3_distractors9_r.png,r,2,002,001,2021-04-11_14h29.53.598,searchDisc4,2020.2.10,Win32,60,,,space,0.10747,2,1,0.71277,,0,171,171,394,1,2b,52,3,9,
,,,,,,,,,,,,,,,,,,,,,,,,,,images/exp1a_trial_96_colour1_distractors9_l.png,l,1,002,001,2021-04-11_14h29.53.598,searchDisc4,2020.2.10,Win32,60,,,space,0.18759,1,1,0.763335,,0,172,172,96,1,1a,96,1,9,
,,,,,,,,,,,,,,,,,,,,,,,,,,images/exp1b_trial_70_colour3_distractors9_l.png,l,1,002,001,2021-04-11_14h29.53.598,searchDisc4,2020.2.10,Win32,60,,,space,0.148865,1,1,2.400855,,0,173,173,184,1,1b,70,3,9,
,,,,,,,,,,,,,,,,,,,,,,,,,,images/exp1a_trial_73_colour3_distractors43_l.png,l,1,002,001,2021-04-11_14h29.53.598,searchDisc4,2020.2.10,Win32,60,,,space,0.1688,1,1,0.667115,,0,174,174,73,1,1a,73,3,43,
,,,,,,,,,,,,,,,,,,,,,,,,,,images/exp1a_trial_79_colour1_distractors19_r.png,r,2,002,001,2021-04-11_14h29.53.598,searchDisc4,2020.2.10,Win32,60,,,space,0.130715,2,1,0.634605,,0,175,175,79,1,1a,79,1,19,
,,,,,,,,,,,,,,,,,,,,,,,,,,images/exp1a_trial_55_colour3_distractors43_r.png,r,2,002,001,2021-04-11_14h29.53.598,searchDisc4,2020.2.10,Win32,60,,,space,0.173075,2,1,0.64236,,0,176,176,55,1,1a,55,3,43,
,,,,,,,,,,,,,,,,,,,,,,,,,,images/exp1b_trial_108_colour3_distractors9_l.png,l,1,002,001,2021-04-11_14h29.53.598,searchDisc4,2020.2.10,Win32,60,,,space,0.11836,1,1,0.85236,,0,177,177,222,1,1b,108,3,9,
,,,,,,,,,,,,,,,,,,,,,,,,,,images/exp2b_trial_112_colour0_distractors0_r.png,r,2,002,001,2021-04-11_14h29.53.598,searchDisc4,2020.2.10,Win32,60,,,space,0.166955,2,1,0.59072,,0,178,178,454,1,2b,112,0,0,
,,,,,,,,,,,,,,,,,,,,,,,,,,images/exp2c_trial_23_colour1_distractors43_l.png,l,1,002,001,2021-04-11_14h29.53.598,searchDisc4,2020.2.10,Win32,60,,,space,0.16202,1,1,0.90829,space,0,179,179,479,1,2c,23,1,43,0.178135
,,,,,,,,,,,,,,,,,,,,,,,,,,images/exp2a_trial_97_colour1_distractors19_l.png,l,1,002,001,2021-04-11_14h29.53.598,searchDisc4,2020.2.10,Win32,60,,,space,1.243725,1,1,0.65234,,0,180,180,325,1,2a,97,1,19,
,,,,,,,,,,,,,,,,,,,,,,,,,,images/exp2c_trial_33_colour3_distractors19_l.png,l,1,002,001,2021-04-11_14h29.53.598,searchDisc4,2020.2.10,Win32,60,,,space,0.165285,1,1,0.514995,,0,181,181,489,1,2c,33,3,19,
,,,,,,,,,,,,,,,,,,,,,,,,,,images/exp1b_trial_83_colour2_distractors4_r.png,r,2,002,001,2021-04-11_14h29.53.598,searchDisc4,2020.2.10,Win32,60,,,space,0.164535,2,1,0.676355,,0,182,182,197,1,1b,83,2,4,
,,,,,,,,,,,,,,,,,,,,,,,,,,images/exp1a_trial_11_colour2_distractors43_r.png,r,2,002,001,2021-04-11_14h29.53.598,searchDisc4,2020.2.10,Win32,60,,,space,0.20634,2,1,0.61981,,0,183,183,11,1,1a,11,2,43,
,,,,,,,,,,,,,,,,,,,,,,,,,,images/exp1b_trial_93_colour3_distractors43_r.png,r,2,002,001,2021-04-11_14h29.53.598,searchDisc4,2020.2.10,Win32,60,,,space,0.2964,2,1,0.676365,,0,184,184,207,1,1b,93,3,43,
,,,,,,,,,,,,,,,,,,,,,,,,,,images/exp1a_trial_46_colour2_distractors9_r.png,r,2,002,001,2021-04-11_14h29.53.598,searchDisc4,2020.2.10,Win32,60,,,space,0.229815,2,1,0.7575,,0,185,185,46,1,1a,46,2,9,
,,,,,,,,,,,,,,,,,,,,,,,,,,images/exp1a_trial_29_colour2_distractors43_l.png,l,1,002,001,2021-04-11_14h29.53.598,searchDisc4,2020.2.10,Win32,60,,,space,0.34323,1,1,0.874245,,0,186,186,29,1,1a,29,2,43,
,,,,,,,,,,,,,,,,,,,,,,,,,,images/exp1b_trial_5_colour1_distractors43_r.png,r,2,002,001,2021-04-11_14h29.53.598,searchDisc4,2020.2.10,Win32,60,,,space,0.19951,2,1,0.783465,,0,187,187,119,1,1b,5,1,43,
,,,,,,,,,,,,,,,,,,,,,,,,,,images/exp2c_trial_108_colour3_distractors9_l.png,l,1,002,001,2021-04-11_14h29.53.598,searchDisc4,2020.2.10,Win32,60,,,space,0.339545,1,1,0.72422,,0,188,188,564,1,2c,108,3,9,
,,,,,,,,,,,,,,,,,,,,,,,,,,images/exp2c_trial_42_colour1_distractors31_r.png,r,2,002,001,2021-04-11_14h29.53.598,searchDisc4,2020.2.10,Win32,60,,,space,0.282855,2,1,0.60557,,0,189,189,498,1,2c,42,1,31,
,,,,,,,,,,,,,,,,,,,,,,,,,,images/exp2c_trial_80_colour1_distractors31_r.png,r,2,002,001,2021-04-11_14h29.53.598,searchDisc4,2020.2.10,Win32,60,,,space,0.226645,2,1,0.565525,,0,190,190,536,1,2c,80,1,31,
,,,,,,,,,,,,,,,,,,,,,,,,,,images/exp2a_trial_39_colour1_distractors4_r.png,r,2,002,001,2021-04-11_14h29.53.598,searchDisc4,2020.2.10,Win32,60,,,space,0.248005,2,1,0.67305,,0,191,191,267,1,2a,39,1,4,
,,,,,,,,,,,,,,,,,,,,,,,,,,images/exp2b_trial_33_colour3_distractors19_l.png,l,1,002,001,2021-04-11_14h29.53.598,searchDisc4,2020.2.10,Win32,60,,,space,0.23625,1,1,0.84609,,0,192,192,375,1,2b,33,3,19,
,,,,,,,,,,,,,,,,,,,,,,,,,,images/exp1a_trial_47_colour2_distractors19_r.png,r,2,002,001,2021-04-11_14h29.53.598,searchDisc4,2020.2.10,Win32,60,,,space,0.21619,2,1,0.736655,,0,193,193,47,1,1a,47,2,19,
,,,,,,,,,,,,,,,,,,,,,,,,,,images/exp1a_trial_87_colour2_distractors43_r.png,r,2,002,001,2021-04-11_14h29.53.598,searchDisc4,2020.2.10,Win32,60,,,space,0.217445,2,1,1.016375,,0,194,194,87,1,1a,87,2,43,
,,,,,,,,,,,,,,,,,,,,,,,,,,images/exp1a_trial_31_colour3_distractors4_l.png,l,1,002,001,2021-04-11_14h29.53.598,searchDisc4,2020.2.10,Win32,60,,,space,0.32673,2,0,0.51847,,0,195,195,31,1,1a,31,3,4,
,,,,,,,,,,,,,,,,,,,,,,,,,,images/exp1a_trial_17_colour3_distractors43_r.png,r,2,002,001,2021-04-11_14h29.53.598,searchDisc4,2020.2.10,Win32,60,,,space,0.686285,2,1,0.663195,,0,196,196,17,1,1a,17,3,43,
,,,,,,,,,,,,,,,,,,,,,,,,,,images/exp1b_trial_65_colour2_distractors19_l.png,l,1,002,001,2021-04-11_14h29.53.598,searchDisc4,2020.2.10,Win32,60,,,space,0.25745,1,1,0.57147,,0,197,197,179,1,1b,65,2,19,
,,,,,,,,,,,,,,,,,,,,,,,,,,images/exp1a_trial_77_colour1_distractors4_r.png,r,2,002,001,2021-04-11_14h29.53.598,searchDisc4,2020.2.10,Win32,60,,,space,0.313085,2,1,0.515185,,0,198,198,77,1,1a,77,1,4,
,,,,,,,,,,,,,,,,,,,,,,,,,,images/exp2a_trial_78_colour1_distractors9_r.png,r,2,002,001,2021-04-11_14h29.53.598,searchDisc4,2020.2.10,Win32,60,,,space,0.29265,2,1,0.626405,,0,199,199,306,1,2a,78,1,9,
,,,,,,,,,,,,,,,,,,,,,,,,,,images/exp2a_trial_68_colour3_distractors1_l.png,l,1,002,001,2021-04-11_14h29.53.598,searchDisc4,2020.2.10,Win32,60,,,space,0.271085,1,1,0.465775,,0,200,200,296,1,2a,68,3,1,
,,,,,,,,,,,,,,,,,,,,,,,,,,images/exp2a_trial_54_colour3_distractors31_r.png,r,2,002,001,2021-04-11_14h29.53.598,searchDisc4,2020.2.10,Win32,60,,,space,0.282795,2,1,0.473245,,0,201,201,282,1,2a,54,3,31,
,,,,,,,,,,,,,,,,,,,,,,,,,,images/exp2b_trial_18_colour1_distractors1_l.png,l,1,002,001,2021-04-11_14h29.53.598,searchDisc4,2020.2.10,Win32,60,,,space,0.25614,1,1,0.69679,,0,202,202,360,1,2b,18,1,1,
,,,,,,,,,,,,,,,,,,,,,,,,,,images/exp2a_trial_44_colour2_distractors1_r.png,r,2,002,001,2021-04-11_14h29.53.598,searchDisc4,2020.2.10,Win32,60,,,space,0.319855,2,1,0.927655,,0,203,203,272,1,2a,44,2,1,
,,,,,,,,,,,,,,,,,,,,,,,,,,images/exp1a_trial_68_colour3_distractors1_l.png,l,1,002,001,2021-04-11_14h29.53.598,searchDisc4,2020.2.10,Win32,60,,,space,0.312685,1,1,0.79972,,0,204,204,68,1,1a,68,3,1,
,,,,,,,,,,,,,,,,,,,,,,,,,,images/exp2b_trial_60_colour1_distractors31_l.png,l,1,002,001,2021-04-11_14h29.53.598,searchDisc4,2020.2.10,Win32,60,,,space,0.28712,1,1,1.8849,,0,205,205,402,1,2b,60,1,31,
,,,,,,,,,,,,,,,,,,,,,,,,,,images/exp1a_trial_60_colour1_distractors31_l.png,l,1,002,001,2021-04-11_14h29.53.598,searchDisc4,2020.2.10,Win32,60,,,space,0.20774,1,1,0.56809,,0,206,206,60,1,1a,60,1,31,
,,,,,,,,,,,,,,,,,,,,,,,,,,images/exp1b_trial_33_colour3_distractors19_l.png,l,1,002,001,2021-04-11_14h29.53.598,searchDisc4,2020.2.10,Win32,60,,,space,0.220155,1,1,1.07193,,0,207,207,147,1,1b,33,3,19,
,,,,,,,,,,,,,,,,,,,,,,,,,,images/exp2c_trial_62_colour2_distractors1_l.png,l,1,002,001,2021-04-11_14h29.53.598,searchDisc4,2020.2.10,Win32,60,,,space,0.27096,1,1,0.6058,,0,208,208,518,1,2c,62,2,1,
,,,,,,,,,,,,,,,,,,,,,,,,,,images/exp2a_trial_64_colour2_distractors9_l.png,l,1,002,001,2021-04-11_14h29.53.598,searchDisc4,2020.2.10,Win32,60,,,space,0.35419,1,1,0.51561,,0,209,209,292,1,2a,64,2,9,
,,,,,,,,,,,,,,,,,,,,,,,,,,images/exp1b_trial_102_colour2_distractors9_l.png,l,1,002,001,2021-04-11_14h29.53.598,searchDisc4,2020.2.10,Win32,60,,,space,0.31299,1,1,0.666455,,0,210,210,216,1,1b,102,2,9,
,,,,,,,,,,,,,,,,,,,,,,,,,,images/exp2a_trial_88_colour3_distractors1_r.png,r,2,002,001,2021-04-11_14h29.53.598,searchDisc4,2020.2.10,Win32,60,,,space,0.32695,2,1,0.791375,,0,211,211,316,1,2a,88,3,1,
,,,,,,,,,,,,,,,,,,,,,,,,,,images/exp1b_trial_3_colour1_distractors19_r.png,r,2,002,001,2021-04-11_14h29.53.598,searchDisc4,2020.2.10,Win32,60,,,space,0.280515,2,1,1.02316,,0,212,212,117,1,1b,3,1,19,
,,,,,,,,,,,,,,,,,,,,,,,,,,images/exp1b_trial_107_colour3_distractors4_l.png,l,1,002,001,2021-04-11_14h29.53.598,searchDisc4,2020.2.10,Win32,60,,,space,0.19996,1,1,1.208575,,0,213,213,221,1,1b,107,3,4,
,,,,,,,,,,,,,,,,,,,,,,,,,,images/exp1b_trial_13_colour3_distractors4_r.png,r,2,002,001,2021-04-11_14h29.53.598,searchDisc4,2020.2.10,Win32,60,,,space,0.24237,2,1,0.95644,,0,214,214,127,1,1b,13,3,4,
,,,,,,,,,,,,,,,,,,,,,,,,,,images/exp1b_trial_66_colour2_distractors31_l.png,l,1,002,001,2021-04-11_14h29.53.598,searchDisc4,2020.2.10,Win32,60,,,space,0.287635,1,1,0.81071,,0,215,215,180,1,1b,66,2,31,
,,,,,,,,,,,,,,,,,,,,,,,,,,images/exp1a_trial_30_colour3_distractors1_l.png,l,1,002,001,2021-04-11_14h29.53.598,searchDisc4,2020.2.10,Win32,60,,,space,0.278065,1,1,0.56486,,0,216,216,30,1,1a,30,3,1,
,,,,,,,,,,,,,,,,,,,,,,,,,,images/exp1b_trial_14_colour3_distractors9_r.png,r,2,002,001,2021-04-11_14h29.53.598,searchDisc4,2020.2.10,Win32,60,,,space,0.244085,2,1,0.60164,,0,217,217,128,1,1b,14,3,9,
,,,,,,,,,,,,,,,,,,,,,,,,,,images/exp1b_trial_19_colour1_distractors4_l.png,l,1,002,001,2021-04-11_14h29.53.598,searchDisc4,2020.2.10,Win32,60,,,space,0.31029,1,1,0.840785,,0,218,218,133,1,1b,19,1,4,
,,,,,,,,,,,,,,,,,,,,,,,,,,images/exp1a_trial_57_colour1_distractors4_l.png,l,1,002,001,2021-04-11_14h29.53.598,searchDisc4,2020.2.10,Win32,60,,,space,0.258255,1,1,0.55463,,0,219,219,57,1,1a,57,1,4,
,,,,,,,,,,,,,,,,,,,,,,,,,,images/exp1b_trial_91_colour3_distractors19_r.png,r,2,002,001,2021-04-11_14h29.53.598,searchDisc4,2020.2.10,Win32,60,,,space,0.32767,2,1,1.392245,,0,220,220,205,1,1b,91,3,19,
,,,,,,,,,,,,,,,,,,,,,,,,,,images/exp2c_trial_34_colour3_distractors31_l.png,l,1,002,001,2021-04-11_14h29.53.598,searchDisc4,2020.2.10,Win32,60,,,space,0.23322,1,1,0.544325,,0,221,221,490,1,2c,34,3,31,
,,,,,,,,,,,,,,,,,,,,,,,,,,images/exp2a_trial_49_colour2_distractors43_r.png,r,2,002,001,2021-04-11_14h29.53.598,searchDisc4,2020.2.10,Win32,60,,,space,0.314715,2,1,0.725635,,0,222,222,277,1,2a,49,2,43,
,,,,,,,,,,,,,,,,,,,,,,,,,,images/exp2a_trial_77_colour1_distractors4_r.png,r,2,002,001,2021-04-11_14h29.53.598,searchDisc4,2020.2.10,Win32,60,,,space,0.250425,2,1,0.782955,,0,223,223,305,1,2a,77,1,4,
,,,,,,,,,,,,,,,,,,,,,,,,,,images/exp2b_trial_97_colour1_distractors19_l.png,l,1,002,001,2021-04-11_14h29.53.598,searchDisc4,2020.2.10,Win32,60,,,space,0.299215,1,1,0.61712,,0,224,224,439,1,2b,97,1,19,
,,,,,,,,,,,,,,,,,,,,,,,,,,images/exp2c_trial_81_colour1_distractors43_r.png,r,2,002,001,2021-04-11_14h29.53.598,searchDisc4,2020.2.10,Win32,60,,,space,0.28715,2,1,0.469305,,0,225,225,537,1,2c,81,1,43,
,,,,,,,,,,,,,,,,,,,,,,,,,,images/exp1b_trial_24_colour2_distractors1_l.png,l,1,002,001,2021-04-11_14h29.53.598,searchDisc4,2020.2.10,Win32,60,,,space,0.28285,1,1,0.498345,,0,226,226,138,1,1b,24,2,1,
,,,,,,,,,,,,,,,,,,,,,,,,,,images/exp1a_trial_14_colour3_distractors9_r.png,r,2,002,001,2021-04-11_14h29.53.598,searchDisc4,2020.2.10,Win32,60,,,space,0.36433,2,1,0.54264,,0,227,227,14,1,1a,14,3,9,
,,,,,,,,,,,,,,,,,,,,,,,,,,images/exp2b_trial_11_colour2_distractors43_r.png,r,2,002,001,2021-04-11_14h29.53.598,searchDisc4,2020.2.10,Win32,60,,,space,1.03694,2,1,0.616245,,0,228,228,353,1,2b,11,2,43,
,,,,,,,,,,,,,,,,,,,,,,,,,,images/exp2c_trial_36_colour0_distractors0_r.png,r,2,002,001,2021-04-11_14h29.53.598,searchDisc4,2020.2.10,Win32,60,,,space,0.26645,2,1,0.722635,,0,229,229,492,1,2c,36,0,0,
,,,,,,,,,,,,,,,,,,,,,,,,,,images/exp2b_trial_68_colour3_distractors1_l.png,l,1,002,001,2021-04-11_14h29.53.598,searchDisc4,2020.2.10,Win32,60,,,space,0.13901,1,1,0.79947,,0,230,230,410,1,2b,68,3,1,
,,,,,,,,,,,,,,,,,,,,,,,,,,images/exp1b_trial_88_colour3_distractors1_r.png,r,2,002,001,2021-04-11_14h29.53.598,searchDisc4,2020.2.10,Win32,60,,,space,0.18029,2,1,0.711895,,0,231,231,202,1,1b,88,3,1,
,,,,,,,,,,,,,,,,,,,,,,,,,,images/exp2a_trial_82_colour2_distractors1_r.png,r,2,002,001,2021-04-11_14h29.53.598,searchDisc4,2020.2.10,Win32,60,,,space,0.140935,2,1,0.749725,,0,232,232,310,1,2a,82,2,1,
,,,,,,,,,,,,,,,,,,,,,,,,,,images/exp2b_trial_58_colour1_distractors9_l.png,l,1,002,001,2021-04-11_14h29.53.598,searchDisc4,2020.2.10,Win32,60,,,space,0.16809,1,1,0.557085,,0,233,233,400,1,2b,58,1,9,
,,,,,,,,,,,,,,,,,,,,,,,,,,images/exp1a_trial_18_colour1_distractors1_l.png,l,1,002,001,2021-04-11_14h29.53.598,searchDisc4,2020.2.10,Win32,60,,,space,0.21581,1,1,0.741885,,0,234,234,18,1,1a,18,1,1,
,,,,,,,,,,,,,,,,,,,,,,,,,,images/exp2c_trial_66_colour2_distractors31_l.png,l,1,002,001,2021-04-11_14h29.53.598,searchDisc4,2020.2.10,Win32,60,,,space,0.172515,1,1,0.987015,,0,235,235,522,1,2c,66,2,31,
,,,,,,,,,,,,,,,,,,,,,,,,,,images/exp1a_trial_36_colour0_distractors0_r.png,r,2,002,001,2021-04-11_14h29.53.598,searchDisc4,2020.2.10,Win32,60,,,space,0.13748,2,1,0.64693,,0,236,236,36,1,1a,36,0,0,
,,,,,,,,,,,,,,,,,,,,,,,,,,images/exp2b_trial_12_colour3_distractors1_r.png,r,2,002,001,2021-04-11_14h29.53.598,searchDisc4,2020.2.10,Win32,60,,,space,0.190865,2,1,0.945875,,0,237,237,354,1,2b,12,3,1,
,,,,,,,,,,,,,,,,,,,,,,,,,,images/exp1b_trial_78_colour1_distractors9_r.png,r,2,002,001,2021-04-11_14h29.53.598,searchDisc4,2020.2.10,Win32,60,,,space,0.17512,2,1,0.646755,,0,238,238,192,1,1b,78,1,9,
,,,,,,,,,,,,,,,,,,,,,,,,,,images/exp1a_trial_13_colour3_distractors4_r.png,r,2,002,001,2021-04-11_14h29.53.598,searchDisc4,2020.2.10,Win32,60,,,space,0.165095,2,1,0.884785,space,0,239,239,13,1,1a,13,3,4,0.117955
,,,,,,,,,,,,,,,,,,,,,,,,,,images/exp2a_trial_7_colour2_distractors4_r.png,r,2,002,001,2021-04-11_14h29.53.598,searchDisc4,2020.2.10,Win32,60,,,space,1.153265,2,1,0.52469,,0,240,240,235,1,2a,7,2,4,
,,,,,,,,,,,,,,,,,,,,,,,,,,images/exp1a_trial_12_colour3_distractors1_r.png,r,2,002,001,2021-04-11_14h29.53.598,searchDisc4,2020.2.10,Win32,60,,,space,0.325855,2,1,0.507605,,0,241,241,12,1,1a,12,3,1,
,,,,,,,,,,,,,,,,,,,,,,,,,,images/exp1b_trial_37_colour0_distractors0_l.png,l,1,002,001,2021-04-11_14h29.53.598,searchDisc4,2020.2.10,Win32,60,,,space,0.277655,1,1,0.460985,,0,242,242,151,1,1b,37,0,0,
,,,,,,,,,,,,,,,,,,,,,,,,,,images/exp2b_trial_37_colour0_distractors0_l.png,l,1,002,001,2021-04-11_14h29.53.598,searchDisc4,2020.2.10,Win32,60,,,space,0.31076,1,1,0.54062,,0,243,243,379,1,2b,37,0,0,
,,,,,,,,,,,,,,,,,,,,,,,,,,images/exp1b_trial_31_colour3_distractors4_l.png,l,1,002,001,2021-04-11_14h29.53.598,searchDisc4,2020.2.10,Win32,60,,,space,0.32688,1,1,0.903715,,0,244,244,145,1,1b,31,3,4,
,,,,,,,,,,,,,,,,,,,,,,,,,,images/exp2b_trial_49_colour2_distractors43_r.png,r,2,002,001,2021-04-11_14h29.53.598,searchDisc4,2020.2.10,Win32,60,,,space,0.269755,2,1,0.5087,,0,245,245,391,1,2b,49,2,43,
,,,,,,,,,,,,,,,,,,,,,,,,,,images/exp2c_trial_4_colour1_distractors31_r.png,r,2,002,001,2021-04-11_14h29.53.598,searchDisc4,2020.2.10,Win32,60,,,space,0.283445,2,1,0.660305,,0,246,246,460,1,2c,4,1,31,
,,,,,,,,,,,,,,,,,,,,,,,,,,images/exp1a_trial_111_colour3_distractors43_l.png,l,1,002,001,2021-04-11_14h29.53.598,searchDisc4,2020.2.10,Win32,60,,,space,0.20117,1,1,0.494775,,0,247,247,111,1,1a,111,3,43,
,,,,,,,,,,,,,,,,,,,,,,,,,,images/exp2c_trial_39_colour1_distractors4_r.png,r,2,002,001,2021-04-11_14h29.53.598,searchDisc4,2020.2.10,Win32,60,,,space,0.2339,2,1,0.42723,,0,248,248,495,1,2c,39,1,4,
,,,,,,,,,,,,,,,,,,,,,,,,,,images/exp2a_trial_66_colour2_distractors31_l.png,l,1,002,001,2021-04-11_14h29.53.598,searchDisc4,2020.2.10,Win32,60,,,space,0.25864,1,1,0.674255,,0,249,249,294,1,2a,66,2,31,
,,,,,,,,,,,,,,,,,,,,,,,,,,images/exp1a_trial_7_colour2_distractors4_r.png,r,2,002,001,2021-04-11_14h29.53.598,searchDisc4,2020.2.10,Win32,60,,,space,0.26442,2,1,0.718755,,0,250,250,7,1,1a,7,2,4,
,,,,,,,,,,,,,,,,,,,,,,,,,,images/exp1a_trial_19_colour1_distractors4_l.png,l,1,002,001,2021-04-11_14h29.53.598,searchDisc4,2020.2.10,Win32,60,,,space,0.292915,1,1,0.449725,,0,251,251,19,1,1a,19,1,4,
,,,,,,,,,,,,,,,,,,,,,,,,,,images/exp1a_trial_69_colour3_distractors4_l.png,l,1,002,001,2021-04-11_14h29.53.598,searchDisc4,2020.2.10,Win32,60,,,space,0.29846,1,1,0.57901,,0,252,252,69,1,1a,69,3,4,
,,,,,,,,,,,,,,,,,,,,,,,,,,images/exp2c_trial_71_colour3_distractors19_l.png,l,1,002,001,2021-04-11_14h29.53.598,searchDisc4,2020.2.10,Win32,60,,,space,0.29211,2,0,0.4795,,0,253,253,527,1,2c,71,3,19,
,,,,,,,,,,,,,,,,,,,,,,,,,,images/exp1a_trial_78_colour1_distractors9_r.png,r,2,002,001,2021-04-11_14h29.53.598,searchDisc4,2020.2.10,Win32,60,,,space,0.861715,2,1,0.62205,,0,254,254,78,1,1a,78,1,9,
,,,,,,,,,,,,,,,,,,,,,,,,,,images/exp2b_trial_14_colour3_distractors9_r.png,r,2,002,001,2021-04-11_14h29.53.598,searchDisc4,2020.2.10,Win32,60,,,space,0.23058,2,1,0.587915,,0,255,255,356,1,2b,14,3,9,
,,,,,,,,,,,,,,,,,,,,,,,,,,images/exp2c_trial_86_colour2_distractors31_r.png,r,2,002,001,2021-04-11_14h29.53.598,searchDisc4,2020.2.10,Win32,60,,,space,0.30568,2,1,0.512215,,0,256,256,542,1,2c,86,2,31,
,,,,,,,,,,,,,,,,,,,,,,,,,,images/exp2c_trial_96_colour1_distractors9_l.png,l,1,002,001,2021-04-11_14h29.53.598,searchDisc4,2020.2.10,Win32,60,,,space,0.28245,1,1,0.597285,,0,257,257,552,1,2c,96,1,9,
,,,,,,,,,,,,,,,,,,,,,,,,,,images/exp1a_trial_27_colour2_distractors19_l.png,l,1,002,001,2021-04-11_14h29.53.598,searchDisc4,2020.2.10,Win32,60,,,space,0.291495,1,1,0.49263,,0,258,258,27,1,1a,27,2,19,
,,,,,,,,,,,,,,,,,,,,,,,,,,images/exp2b_trial_42_colour1_distractors31_r.png,r,2,002,001,2021-04-11_14h29.53.598,searchDisc4,2020.2.10,Win32,60,,,space,0.32486,2,1,0.68998,,0,259,259,384,1,2b,42,1,31,
,,,,,,,,,,,,,,,,,,,,,,,,,,images/exp2c_trial_91_colour3_distractors19_r.png,r,2,002,001,2021-04-11_14h29.53.598,searchDisc4,2020.2.10,Win32,60,,,space,0.28891,2,1,0.7021,,0,260,260,547,1,2c,91,3,19,
,,,,,,,,,,,,,,,,,,,,,,,,,,images/exp2a_trial_65_colour2_distractors19_l.png,l,1,002,001,2021-04-11_14h29.53.598,searchDisc4,2020.2.10,Win32,60,,,space,0.28895,1,1,0.616095,,0,261,261,293,1,2a,65,2,19,
,,,,,,,,,,,,,,,,,,,,,,,,,,images/exp2a_trial_20_colour1_distractors9_l.png,l,1,002,001,2021-04-11_14h29.53.598,searchDisc4,2020.2.10,Win32,60,,,space,0.27805,1,1,0.665545,,0,262,262,248,1,2a,20,1,9,
,,,,,,,,,,,,,,,,,,,,,,,,,,images/exp1b_trial_57_colour1_distractors4_l.png,l,1,002,001,2021-04-11_14h29.53.598,searchDisc4,2020.2.10,Win32,60,,,space,0.32652,1,1,0.82403,,0,263,263,171,1,1b,57,1,4,
,,,,,,,,,,,,,,,,,,,,,,,,,,images/exp2b_trial_79_colour1_distractors19_r.png,r,2,002,001,2021-04-11_14h29.53.598,searchDisc4,2020.2.10,Win32,60,,,space,0.291415,2,1,0.60018,,0,264,264,421,1,2b,79,1,19,
,,,,,,,,,,,,,,,,,,,,,,,,,,images/exp2a_trial_67_colour2_distractors43_l.png,l,1,002,001,2021-04-11_14h29.53.598,searchDisc4,2020.2.10,Win32,60,,,space,0.31851,1,1,0.697725,,0,265,265,295,1,2a,67,2,43,
,,,,,,,,,,,,,,,,,,,,,,,,,,images/exp2c_trial_21_colour1_distractors19_l.png,l,1,002,001,2021-04-11_14h29.53.598,searchDisc4,2020.2.10,Win32,60,,,space,0.27689,1,1,0.607815,,0,266,266,477,1,2c,21,1,19,
,,,,,,,,,,,,,,,,,,,,,,,,,,images/exp1b_trial_69_colour3_distractors4_l.png,l,1,002,001,2021-04-11_14h29.53.598,searchDisc4,2020.2.10,Win32,60,,,space,0.271285,1,1,0.6254,,0,267,267,183,1,1b,69,3,4,
,,,,,,,,,,,,,,,,,,,,,,,,,,images/exp2c_trial_16_colour3_distractors31_r.png,r,2,002,001,2021-04-11_14h29.53.598,searchDisc4,2020.2.10,Win32,60,,,space,0.34532,2,1,0.551045,,0,268,268,472,1,2c,16,3,31,
,,,,,,,,,,,,,,,,,,,,,,,,,,images/exp1a_trial_93_colour3_distractors43_r.png,r,2,002,001,2021-04-11_14h29.53.598,searchDisc4,2020.2.10,Win32,60,,,space,0.30027,2,1,0.680895,,0,269,269,93,1,1a,93,3,43,
,,,,,,,,,,,,,,,,,,,,,,,,,,images/exp1a_trial_85_colour2_distractors19_r.png,r,2,002,001,2021-04-11_14h29.53.598,searchDisc4,2020.2.10,Win32,60,,,space,0.2694,2,1,0.89688,,0,270,270,85,1,1a,85,2,19,
,,,,,,,,,,,,,,,,,,,,,,,,,,images/exp1a_trial_61_colour1_distractors43_l.png,l,1,002,001,2021-04-11_14h29.53.598,searchDisc4,2020.2.10,Win32,60,,,space,0.284925,1,1,0.66463,,0,271,271,61,1,1a,61,1,43,
,,,,,,,,,,,,,,,,,,,,,,,,,,images/exp2c_trial_3_colour1_distractors19_r.png,r,2,002,001,2021-04-11_14h29.53.598,searchDisc4,2020.2.10,Win32,60,,,space,0.252665,2,1,0.718965,,0,272,272,459,1,2c,3,1,19,
,,,,,,,,,,,,,,,,,,,,,,,,,,images/exp1b_trial_89_colour3_distractors4_r.png,r,2,002,001,2021-04-11_14h29.53.598,searchDisc4,2020.2.10,Win32,60,,,space,0.24427,1,0,0.886435,,0,273,273,203,1,1b,89,3,4,
,,,,,,,,,,,,,,,,,,,,,,,,,,images/exp1b_trial_56_colour1_distractors1_l.png,l,1,002,001,2021-04-11_14h29.53.598,searchDisc4,2020.2.10,Win32,60,,,space,1.223755,1,1,0.772,,0,274,274,170,1,1b,56,1,1,
,,,,,,,,,,,,,,,,,,,,,,,,,,images/exp2a_trial_107_colour3_distractors4_l.png,l,1,002,001,2021-04-11_14h29.53.598,searchDisc4,2020.2.10,Win32,60,,,space,0.268325,1,1,0.577165,,0,275,275,335,1,2a,107,3,4,
,,,,,,,,,,,,,,,,,,,,,,,,,,images/exp1a_trial_83_colour2_distractors4_r.png,r,2,002,001,2021-04-11_14h29.53.598,searchDisc4,2020.2.10,Win32,60,,,space,0.32877,2,1,0.94166,,0,276,276,83,1,1a,83,2,4,
,,,,,,,,,,,,,,,,,,,,,,,,,,images/exp2a_trial_53_colour3_distractors19_r.png,r,2,002,001,2021-04-11_14h29.53.598,searchDisc4,2020.2.10,Win32,60,,,space,0.25001,2,1,0.43,,0,277,277,281,1,2a,53,3,19,
,,,,,,,,,,,,,,,,,,,,,,,,,,images/exp2c_trial_6_colour2_distractors1_r.png,r,2,002,001,2021-04-11_14h29.53.598,searchDisc4,2020.2.10,Win32,60,,,space,0.28992,2,1,0.92695,,0,278,278,462,1,2c,6,2,1,
,,,,,,,,,,,,,,,,,,,,,,,,,,images/exp1b_trial_22_colour1_distractors31_l.png,l,1,002,001,2021-04-11_14h29.53.598,searchDisc4,2020.2.10,Win32,60,,,space,0.222395,1,1,0.94572,,0,279,279,136,1,1b,22,1,31,
,,,,,,,,,,,,,,,,,,,,,,,,,,images/exp2b_trial_7_colour2_distractors4_r.png,r,2,002,001,2021-04-11_14h29.53.598,searchDisc4,2020.2.10,Win32,60,,,space,0.200835,2,1,0.664565,,0,280,280,349,1,2b,7,2,4,
,,,,,,,,,,,,,,,,,,,,,,,,,,images/exp2a_trial_61_colour1_distractors43_l.png,l,1,002,001,2021-04-11_14h29.53.598,searchDisc4,2020.2.10,Win32,60,,,space,0.30589,1,1,1.143395,,0,281,281,289,1,2a,61,1,43,
,,,,,,,,,,,,,,,,,,,,,,,,,,images/exp2c_trial_94_colour1_distractors1_l.png,l,1,002,001,2021-04-11_14h29.53.598,searchDisc4,2020.2.10,Win32,60,,,space,0.269935,1,1,0.670415,,0,282,282,550,1,2c,94,1,1,
,,,,,,,,,,,,,,,,,,,,,,,,,,images/exp1b_trial_84_colour2_distractors9_r.png,r,2,002,001,2021-04-11_14h29.53.598,searchDisc4,2020.2.10,Win32,60,,,space,0.33194,2,1,0.863705,,0,283,283,198,1,1b,84,2,9,
,,,,,,,,,,,,,,,,,,,,,,,,,,images/exp2c_trial_90_colour3_distractors9_r.png,r,2,002,001,2021-04-11_14h29.53.598,searchDisc4,2020.2.10,Win32,60,,,space,0.209695,2,1,0.59734,,0,284,284,546,1,2c,90,3,9,
,,,,,,,,,,,,,,,,,,,,,,,,,,images/exp2b_trial_27_colour2_distractors19_l.png,l,1,002,001,2021-04-11_14h29.53.598,searchDisc4,2020.2.10,Win32,60,,,space,0.272985,1,1,0.634315,,0,285,285,369,1,2b,27,2,19,
,,,,,,,,,,,,,,,,,,,,,,,,,,images/exp1b_trial_36_colour0_distractors0_r.png,r,2,002,001,2021-04-11_14h29.53.598,searchDisc4,2020.2.10,Win32,60,,,space,0.291145,2,1,0.657175,,0,286,286,150,1,1b,36,0,0,
,,,,,,,,,,,,,,,,,,,,,,,,,,images/exp2b_trial_32_colour3_distractors9_l.png,l,1,002,001,2021-04-11_14h29.53.598,searchDisc4,2020.2.10,Win32,60,,,space,0.333485,1,1,0.821265,,0,287,287,374,1,2b,32,3,9,
,,,,,,,,,,,,,,,,,,,,,,,,,,images/exp1a_trial_54_colour3_distractors31_r.png,r,2,002,001,2021-04-11_14h29.53.598,searchDisc4,2020.2.10,Win32,60,,,space,0.310815,2,1,0.61329,,0,288,288,54,1,1a,54,3,31,
,,,,,,,,,,,,,,,,,,,,,,,,,,images/exp2c_trial_35_colour3_distractors43_l.png,l,1,002,001,2021-04-11_14h29.53.598,searchDisc4,2020.2.10,Win32,60,,,space,0.30577,1,1,0.486705,,0,289,289,491,1,2c,35,3,43,
,,,,,,,,,,,,,,,,,,,,,,,,,,images/exp2b_trial_35_colour3_distractors43_l.png,l,1,002,001,2021-04-11_14h29.53.598,searchDisc4,2020.2.10,Win32,60,,,space,0.33228,1,1,0.800575,,0,290,290,377,1,2b,35,3,43,
,,,,,,,,,,,,,,,,,,,,,,,,,,images/exp2c_trial_73_colour3_distractors43_l.png,l,1,002,001,2021-04-11_14h29.53.598,searchDisc4,2020.2.10,Win32,60,,,space,0.307515,2,0,0.508405,,0,291,291,529,1,2c,73,3,43,
,,,,,,,,,,,,,,,,,,,,,,,,,,images/exp2a_trial_55_colour3_distractors43_r.png,r,2,002,001,2021-04-11_14h29.53.598,searchDisc4,2020.2.10,Win32,60,,,space,0.868035,2,1,0.69805,,0,292,292,283,1,2a,55,3,43,
,,,,,,,,,,,,,,,,,,,,,,,,,,images/exp2a_trial_2_colour1_distractors9_r.png,r,2,002,001,2021-04-11_14h29.53.598,searchDisc4,2020.2.10,Win32,60,,,space,0.310775,2,1,1.35136,,0,293,293,230,1,2a,2,1,9,
,,,,,,,,,,,,,,,,,,,,,,,,,,images/exp1a_trial_108_colour3_distractors9_l.png,l,1,002,001,2021-04-11_14h29.53.598,searchDisc4,2020.2.10,Win32,60,,,space,0.768,1,1,0.591405,,0,294,294,108,1,1a,108,3,9,
,,,,,,,,,,,,,,,,,,,,,,,,,,images/exp2a_trial_100_colour2_distractors1_l.png,l,1,002,001,2021-04-11_14h29.53.598,searchDisc4,2020.2.10,Win32,60,,,space,0.23887,1,1,0.6872,,0,295,295,328,1,2a,100,2,1,
,,,,,,,,,,,,,,,,,,,,,,,,,,images/exp2a_trial_48_colour2_distractors31_r.png,r,2,002,001,2021-04-11_14h29.53.598,searchDisc4,2020.2.10,Win32,60,,,space,0.31265,2,1,0.69757,,0,296,296,276,1,2a,48,2,31,
,,,,,,,,,,,,,,,,,,,,,,,,,,images/exp1a_trial_76_colour1_distractors1_r.png,r,2,002,001,2021-04-11_14h29.53.598,searchDisc4,2020.2.10,Win32,60,,,space,0.27165,2,1,0.759025,,0,297,297,76,1,1a,76,1,1,
,,,,,,,,,,,,,,,,,,,,,,,,,,images/exp1a_trial_67_colour2_distractors43_l.png,l,1,002,001,2021-04-11_14h29.53.598,searchDisc4,2020.2.10,Win32,60,,,space,0.303195,1,1,0.67553,,0,298,298,67,1,1a,67,2,43,
,,,,,,,,,,,,,,,,,,,,,,,,,,images/exp1b_trial_63_colour2_distractors4_l.png,l,1,002,001,2021-04-11_14h29.53.598,searchDisc4,2020.2.10,Win32,60,,,space,0.22867,1,1,0.713125,space,0,299,299,177,1,1b,63,2,4,5.82056
,,,,,,,,,,,,,,,,,,,,,,,,,,images/exp2c_trial_53_colour3_distractors19_r.png,r,2,002,001,2021-04-11_14h29.53.598,searchDisc4,2020.2.10,Win32,60,,,space,0.649625,1,0,0.54646,,0,300,300,509,1,2c,53,3,19,
,,,,,,,,,,,,,,,,,,,,,,,,,,images/exp2b_trial_69_colour3_distractors4_l.png,l,1,002,001,2021-04-11_14h29.53.598,searchDisc4,2020.2.10,Win32,60,,,space,0.693805,1,1,0.65254,,0,301,301,411,1,2b,69,3,4,
,,,,,,,,,,,,,,,,,,,,,,,,,,images/exp1b_trial_111_colour3_distractors43_l.png,l,1,002,001,2021-04-11_14h29.53.598,searchDisc4,2020.2.10,Win32,60,,,space,0.170785,1,1,1.35476,,0,302,302,225,1,1b,111,3,43,
,,,,,,,,,,,,,,,,,,,,,,,,,,images/exp2b_trial_110_colour3_distractors31_l.png,l,1,002,001,2021-04-11_14h29.53.598,searchDisc4,2020.2.10,Win32,60,,,space,0.194265,1,1,0.64859,,0,303,303,452,1,2b,110,3,31,
,,,,,,,,,,,,,,,,,,,,,,,,,,images/exp2b_trial_5_colour1_distractors43_r.png,r,2,002,001,2021-04-11_14h29.53.598,searchDisc4,2020.2.10,Win32,60,,,space,0.30009,2,1,0.5999,,0,304,304,347,1,2b,5,1,43,
,,,,,,,,,,,,,,,,,,,,,,,,,,images/exp1b_trial_103_colour2_distractors19_l.png,l,1,002,001,2021-04-11_14h29.53.598,searchDisc4,2020.2.10,Win32,60,,,space,0.26461,1,1,1.25206,,0,305,305,217,1,1b,103,2,19,
,,,,,,,,,,,,,,,,,,,,,,,,,,images/exp2a_trial_93_colour3_distractors43_r.png,r,2,002,001,2021-04-11_14h29.53.598,searchDisc4,2020.2.10,Win32,60,,,space,0.30462,2,1,0.768875,,0,306,306,321,1,2a,93,3,43,
,,,,,,,,,,,,,,,,,,,,,,,,,,images/exp2b_trial_20_colour1_distractors9_l.png,l,1,002,001,2021-04-11_14h29.53.598,searchDisc4,2020.2.10,Win32,60,,,space,0.28899,1,1,0.59272,,0,307,307,362,1,2b,20,1,9,
,,,,,,,,,,,,,,,,,,,,,,,,,,images/exp1a_trial_45_colour2_distractors4_r.png,r,2,002,001,2021-04-11_14h29.53.598,searchDisc4,2020.2.10,Win32,60,,,space,0.352985,2,1,0.7668,,0,308,308,45,1,1a,45,2,4,
,,,,,,,,,,,,,,,,,,,,,,,,,,images/exp2b_trial_10_colour2_distractors31_r.png,r,2,002,001,2021-04-11_14h29.53.598,searchDisc4,2020.2.10,Win32,60,,,space,0.262235,2,1,0.54456,,0,309,309,352,1,2b,10,2,31,
,,,,,,,,,,,,,,,,,,,,,,,,,,images/exp2b_trial_51_colour3_distractors4_r.png,r,2,002,001,2021-04-11_14h29.53.598,searchDisc4,2020.2.10,Win32,60,,,space,0.28775,2,1,0.8061,,0,310,310,393,1,2b,51,3,4,
,,,,,,,,,,,,,,,,,,,,,,,,,,images/exp2b_trial_29_colour2_distractors43_l.png,l,1,002,001,2021-04-11_14h29.53.598,searchDisc4,2020.2.10,Win32,60,,,space,0.29074,1,1,0.728775,,0,311,311,371,1,2b,29,2,43,
,,,,,,,,,,,,,,,,,,,,,,,,,,images/exp1a_trial_9_colour2_distractors19_r.png,r,2,002,001,2021-04-11_14h29.53.598,searchDisc4,2020.2.10,Win32,60,,,space,0.285985,2,1,0.576945,,0,312,312,9,1,1a,9,2,19,
,,,,,,,,,,,,,,,,,,,,,,,,,,images/exp2c_trial_82_colour2_distractors1_r.png,r,2,002,001,2021-04-11_14h29.53.598,searchDisc4,2020.2.10,Win32,60,,,space,0.2778,2,1,0.80362,,0,313,313,538,1,2c,82,2,1,
,,,,,,,,,,,,,,,,,,,,,,,,,,images/exp2b_trial_6_colour2_distractors1_r.png,r,2,002,001,2021-04-11_14h29.53.598,searchDisc4,2020.2.10,Win32,60,,,space,0.271885,2,1,0.507995,,0,314,314,348,1,2b,6,2,1,
,,,,,,,,,,,,,,,,,,,,,,,,,,images/exp2b_trial_80_colour1_distractors31_r.png,r,2,002,001,2021-04-11_14h29.53.598,searchDisc4,2020.2.10,Win32,60,,,space,0.23567,2,1,0.81976,,0,315,315,422,1,2b,80,1,31,
,,,,,,,,,,,,,,,,,,,,,,,,,,images/exp2a_trial_15_colour3_distractors19_r.png,r,2,002,001,2021-04-11_14h29.53.598,searchDisc4,2020.2.10,Win32,60,,,space,0.27973,2,1,0.579945,,0,316,316,243,1,2a,15,3,19,
,,,,,,,,,,,,,,,,,,,,,,,,,,images/exp2c_trial_9_colour2_distractors19_r.png,r,2,002,001,2021-04-11_14h29.53.598,searchDisc4,2020.2.10,Win32,60,,,space,0.259825,2,1,0.584885,,0,317,317,465,1,2c,9,2,19,
,,,,,,,,,,,,,,,,,,,,,,,,,,images/exp1b_trial_7_colour2_distractors4_r.png,r,2,002,001,2021-04-11_14h29.53.598,searchDisc4,2020.2.10,Win32,60,,,space,0.237755,2,1,0.63767,,0,318,318,121,1,1b,7,2,4,
,,,,,,,,,,,,,,,,,,,,,,,,,,images/exp1b_trial_18_colour1_distractors1_l.png,l,1,002,001,2021-04-11_14h29.53.598,searchDisc4,2020.2.10,Win32,60,,,space,0.303535,1,1,1.102735,,0,319,319,132,1,1b,18,1,1,
,,,,,,,,,,,,,,,,,,,,,,,,,,images/exp2b_trial_76_colour1_distractors1_r.png,r,2,002,001,2021-04-11_14h29.53.598,searchDisc4,2020.2.10,Win32,60,,,space,0.302805,2,1,0.60075,,0,320,320,418,1,2b,76,1,1,
,,,,,,,,,,,,,,,,,,,,,,,,,,images/exp1a_trial_100_colour2_distractors1_l.png,l,1,002,001,2021-04-11_14h29.53.598,searchDisc4,2020.2.10,Win32,60,,,space,0.28572,2,0,0.549035,,0,321,321,100,1,1a,100,2,1,
,,,,,,,,,,,,,,,,,,,,,,,,,,images/exp2a_trial_37_colour0_distractors0_l.png,l,1,002,001,2021-04-11_14h29.53.598,searchDisc4,2020.2.10,Win32,60,,,space,0.67301,1,1,0.606915,,0,322,322,265,1,2a,37,0,0,
,,,,,,,,,,,,,,,,,,,,,,,,,,images/exp2c_trial_26_colour2_distractors9_l.png,l,1,002,001,2021-04-11_14h29.53.598,searchDisc4,2020.2.10,Win32,60,,,space,0.328555,1,1,0.594035,,0,323,323,482,1,2c,26,2,9,
,,,,,,,,,,,,,,,,,,,,,,,,,,images/exp2c_trial_55_colour3_distractors43_r.png,r,2,002,001,2021-04-11_14h29.53.598,searchDisc4,2020.2.10,Win32,60,,,space,0.29258,2,1,0.50965,,0,324,324,511,1,2c,55,3,43,
,,,,,,,,,,,,,,,,,,,,,,,,,,images/exp1a_trial_33_colour3_distractors19_l.png,l,1,002,001,2021-04-11_14h29.53.598,searchDisc4,2020.2.10,Win32,60,,,space,0.33788,1,1,0.663025,,0,325,325,33,1,1a,33,3,19,
,,,,,,,,,,,,,,,,,,,,,,,,,,images/exp1b_trial_110_colour3_distractors31_l.png,l,1,002,001,2021-04-11_14h29.53.598,searchDisc4,2020.2.10,Win32,60,,,space,0.304665,1,1,1.797915,,0,326,326,224,1,1b,110,3,31,
,,,,,,,,,,,,,,,,,,,,,,,,,,images/exp2b_trial_85_colour2_distractors19_r.png,r,2,002,001,2021-04-11_14h29.53.598,searchDisc4,2020.2.10,Win32,60,,,space,0.18093,2,1,0.632015,,0,327,327,427,1,2b,85,2,19,
,,,,,,,,,,,,,,,,,,,,,,,,,,images/exp2c_trial_100_colour2_distractors1_l.png,l,1,002,001,2021-04-11_14h29.53.598,searchDisc4,2020.2.10,Win32,60,,,space,0.29936,1,1,0.70434,,0,328,328,556,1,2c,100,2,1,
,,,,,,,,,,,,,,,,,,,,,,,,,,images/exp1b_trial_68_colour3_distractors1_l.png,l,1,002,001,2021-04-11_14h29.53.598,searchDisc4,2020.2.10,Win32,60,,,space,0.29182,1,1,0.529845,,0,329,329,182,1,1b,68,3,1,
,,,,,,,,,,,,,,,,,,,,,,,,,,images/exp2c_trial_78_colour1_distractors9_r.png,r,2,002,001,2021-04-11_14h29.53.598,searchDisc4,2020.2.10,Win32,60,,,space,0.32239,2,1,0.58037,,0,330,330,534,1,2c,78,1,9,
,,,,,,,,,,,,,,,,,,,,,,,,,,images/exp2a_trial_14_colour3_distractors9_r.png,r,2,002,001,2021-04-11_14h29.53.598,searchDisc4,2020.2.10,Win32,60,,,space,0.40984,1,0,0.645725,,0,331,331,242,1,2a,14,3,9,
,,,,,,,,,,,,,,,,,,,,,,,,,,images/exp2b_trial_24_colour2_distractors1_l.png,l,1,002,001,2021-04-11_14h29.53.598,searchDisc4,2020.2.10,Win32,60,,,space,0.673815,1,1,0.859765,,0,332,332,366,1,2b,24,2,1,
,,,,,,,,,,,,,,,,,,,,,,,,,,images/exp2a_trial_18_colour1_distractors1_l.png,l,1,002,001,2021-04-11_14h29.53.598,searchDisc4,2020.2.10,Win32,60,,,space,0.27589,1,1,0.47293,,0,333,333,246,1,2a,18,1,1,
,,,,,,,,,,,,,,,,,,,,,,,,,,images/exp1a_trial_28_colour2_distractors31_l.png,l,1,002,001,2021-04-11_14h29.53.598,searchDisc4,2020.2.10,Win32,60,,,space,0.29444,1,1,0.84653,,0,334,334,28,1,1a,28,2,31,
,,,,,,,,,,,,,,,,,,,,,,,,,,images/exp2b_trial_108_colour3_distractors9_l.png,l,1,002,001,2021-04-11_14h29.53.598,searchDisc4,2020.2.10,Win32,60,,,space,0.291945,1,1,0.60319,,0,335,335,450,1,2b,108,3,9,
,,,,,,,,,,,,,,,,,,,,,,,,,,images/exp1b_trial_87_colour2_distractors43_r.png,r,2,002,001,2021-04-11_14h29.53.598,searchDisc4,2020.2.10,Win32,60,,,space,0.286585,2,1,0.95217,,0,336,336,201,1,1b,87,2,43,
,,,,,,,,,,,,,,,,,,,,,,,,,,images/exp2b_trial_88_colour3_distractors1_r.png,r,2,002,001,2021-04-11_14h29.53.598,searchDisc4,2020.2.10,Win32,60,,,space,0.25239,2,1,0.785645,,0,337,337,430,1,2b,88,3,1,
,,,,,,,,,,,,,,,,,,,,,,,,,,images/exp2b_trial_64_colour2_distractors9_l.png,l,1,002,001,2021-04-11_14h29.53.598,searchDisc4,2020.2.10,Win32,60,,,space,0.31913,1,1,0.688375,,0,338,338,406,1,2b,64,2,9,
,,,,,,,,,,,,,,,,,,,,,,,,,,images/exp2a_trial_19_colour1_distractors4_l.png,l,1,002,001,2021-04-11_14h29.53.598,searchDisc4,2020.2.10,Win32,60,,,space,0.300665,1,1,0.64063,,0,339,339,247,1,2a,19,1,4,
,,,,,,,,,,,,,,,,,,,,,,,,,,images/exp1b_trial_109_colour3_distractors19_l.png,l,1,002,001,2021-04-11_14h29.53.598,searchDisc4,2020.2.10,Win32,60,,,space,0.304945,1,1,1.552035,,0,340,340,223,1,1b,109,3,19,
,,,,,,,,,,,,,,,,,,,,,,,,,,images/exp2a_trial_24_colour2_distractors1_l.png,l,1,002,001,2021-04-11_14h29.53.598,searchDisc4,2020.2.10,Win32,60,,,space,0.23631,1,1,0.661315,,0,341,341,252,1,2a,24,2,1,
,,,,,,,,,,,,,,,,,,,,,,,,,,images/exp1a_trial_105_colour2_distractors43_l.png,l,1,002,001,2021-04-11_14h29.53.598,searchDisc4,2020.2.10,Win32,60,,,space,0.202065,1,1,0.5576,,0,342,342,105,1,1a,105,2,43,
,,,,,,,,,,,,,,,,,,,,,,,,,,images/exp2a_trial_56_colour1_distractors1_l.png,l,1,002,001,2021-04-11_14h29.53.598,searchDisc4,2020.2.10,Win32,60,,,space,0.284245,1,1,0.61596,,0,343,343,284,1,2a,56,1,1,
,,,,,,,,,,,,,,,,,,,,,,,,,,images/exp1b_trial_90_colour3_distractors9_r.png,r,2,002,001,2021-04-11_14h29.53.598,searchDisc4,2020.2.10,Win32,60,,,space,0.218495,2,1,0.684635,,0,344,344,204,1,1b,90,3,9,
,,,,,,,,,,,,,,,,,,,,,,,,,,images/exp2a_trial_52_colour3_distractors9_r.png,r,2,002,001,2021-04-11_14h29.53.598,searchDisc4,2020.2.10,Win32,60,,,space,0.287225,2,1,0.645045,,0,345,345,280,1,2a,52,3,9,
,,,,,,,,,,,,,,,,,,,,,,,,,,images/exp1b_trial_60_colour1_distractors31_l.png,l,1,002,001,2021-04-11_14h29.53.598,searchDisc4,2020.2.10,Win32,60,,,space,0.229325,1,1,0.861565,,0,346,346,174,1,1b,60,1,31,
,,,,,,,,,,,,,,,,,,,,,,,,,,images/exp2a_trial_9_colour2_distractors19_r.png,r,2,002,001,2021-04-11_14h29.53.598,searchDisc4,2020.2.10,Win32,60,,,space,0.23655,2,1,0.57726,,0,347,347,237,1,2a,9,2,19,
,,,,,,,,,,,,,,,,,,,,,,,,,,images/exp2b_trial_71_colour3_distractors19_l.png,l,1,002,001,2021-04-11_14h29.53.598,searchDisc4,2020.2.10,Win32,60,,,space,0.29007,1,1,0.55159,,0,348,348,413,1,2b,71,3,19,
,,,,,,,,,,,,,,,,,,,,,,,,,,images/exp1b_trial_113_colour0_distractors0_l.png,l,1,002,001,2021-04-11_14h29.53.598,searchDisc4,2020.2.10,Win32,60,,,space,0.298805,1,1,0.582735,,0,349,349,227,1,1b,113,0,0,
,,,,,,,,,,,,,,,,,,,,,,,,,,images/exp2b_trial_28_colour2_distractors31_l.png,l,1,002,001,2021-04-11_14h29.53.598,searchDisc4,2020.2.10,Win32,60,,,space,0.40615,1,1,0.600435,,0,350,350,370,1,2b,28,2,31,
,,,,,,,,,,,,,,,,,,,,,,,,,,images/exp1b_trial_46_colour2_distractors9_r.png,r,2,002,001,2021-04-11_14h29.53.598,searchDisc4,2020.2.10,Win32,60,,,space,0.361415,2,1,0.644325,,0,351,351,160,1,1b,46,2,9,
,,,,,,,,,,,,,,,,,,,,,,,,,,images/exp1b_trial_104_colour2_distractors31_l.png,l,1,002,001,2021-04-11_14h29.53.598,searchDisc4,2020.2.10,Win32,60,,,space,0.321745,1,1,1.02153,,0,352,352,218,1,1b,104,2,31,
,,,,,,,,,,,,,,,,,,,,,,,,,,images/exp2a_trial_12_colour3_distractors1_r.png,r,2,002,001,2021-04-11_14h29.53.598,searchDisc4,2020.2.10,Win32,60,,,space,0.410765,2,1,0.595775,,0,353,353,240,1,2a,12,3,1,
,,,,,,,,,,,,,,,,,,,,,,,,,,images/exp1b_trial_106_colour3_distractors1_l.png,l,1,002,001,2021-04-11_14h29.53.598,searchDisc4,2020.2.10,Win32,60,,,space,0.352285,1,1,0.857655,,0,354,354,220,1,1b,106,3,1,
,,,,,,,,,,,,,,,,,,,,,,,,,,images/exp1a_trial_22_colour1_distractors31_l.png,l,1,002,001,2021-04-11_14h29.53.598,searchDisc4,2020.2.10,Win32,60,,,space,0.305995,1,1,0.54974,,0,355,355,22,1,1a,22,1,31,
,,,,,,,,,,,,,,,,,,,,,,,,,,images/exp2b_trial_1_colour1_distractors4_r.png,r,2,002,001,2021-04-11_14h29.53.598,searchDisc4,2020.2.10,Win32,60,,,space,0.49334,2,1,0.583195,,0,356,356,343,1,2b,1,1,4,
,,,,,,,,,,,,,,,,,,,,,,,,,,images/exp1a_trial_16_colour3_distractors31_r.png,r,2,002,001,2021-04-11_14h29.53.598,searchDisc4,2020.2.10,Win32,60,,,space,0.28768,2,1,0.689755,,0,357,357,16,1,1a,16,3,31,
,,,,,,,,,,,,,,,,,,,,,,,,,,images/exp1a_trial_52_colour3_distractors9_r.png,r,2,002,001,2021-04-11_14h29.53.598,searchDisc4,2020.2.10,Win32,60,,,space,0.31042,2,1,3.232935,,0,358,358,52,1,1a,52,3,9,
,,,,,,,,,,,,,,,,,,,,,,,,,,images/exp1a_trial_90_colour3_distractors9_r.png,r,2,002,001,2021-04-11_14h29.53.598,searchDisc4,2020.2.10,Win32,60,,,space,0.25287,2,1,0.69345,space,0,359,359,90,1,1a,90,3,9,0.152565
,,,,,,,,,,,,,,,,,,,,,,,,,,images/exp1a_trial_102_colour2_distractors9_l.png,l,1,002,001,2021-04-11_14h29.53.598,searchDisc4,2020.2.10,Win32,60,,,space,0.9658,1,1,0.8588,,0,360,360,102,1,1a,102,2,9,
,,,,,,,,,,,,,,,,,,,,,,,,,,images/exp1b_trial_42_colour1_distractors31_r.png,r,2,002,001,2021-04-11_14h29.53.598,searchDisc4,2020.2.10,Win32,60,,,space,0.180695,2,1,0.828235,,0,361,361,156,1,1b,42,1,31,
,,,,,,,,,,,,,,,,,,,,,,,,,,images/exp1a_trial_71_colour3_distractors19_l.png,l,1,002,001,2021-04-11_14h29.53.598,searchDisc4,2020.2.10,Win32,60,,,space,0.13635,1,1,0.553435,,0,362,362,71,1,1a,71,3,19,
,,,,,,,,,,,,,,,,,,,,,,,,,,images/exp2a_trial_89_colour3_distractors4_r.png,r,2,002,001,2021-04-11_14h29.53.598,searchDisc4,2020.2.10,Win32,60,,,space,0.34618,2,1,0.874005,,0,363,363,317,1,2a,89,3,4,
,,,,,,,,,,,,,,,,,,,,,,,,,,images/exp2b_trial_54_colour3_distractors31_r.png,r,2,002,001,2021-04-11_14h29.53.598,searchDisc4,2020.2.10,Win32,60,,,space,0.30178,2,1,0.541845,,0,364,364,396,1,2b,54,3,31,
,,,,,,,,,,,,,,,,,,,,,,,,,,images/exp2c_trial_32_colour3_distractors9_l.png,l,1,002,001,2021-04-11_14h29.53.598,searchDisc4,2020.2.10,Win32,60,,,space,0.27936,1,1,0.66274,,0,365,365,488,1,2c,32,3,9,
,,,,,,,,,,,,,,,,,,,,,,,,,,images/exp2a_trial_111_colour3_distractors43_l.png,l,1,002,001,2021-04-11_14h29.53.598,searchDisc4,2020.2.10,Win32,60,,,space,0.208595,1,1,0.65316,,0,366,366,339,1,2a,111,3,43,
,,,,,,,,,,,,,,,,,,,,,,,,,,images/exp2b_trial_34_colour3_distractors31_l.png,l,1,002,001,2021-04-11_14h29.53.598,searchDisc4,2020.2.10,Win32,60,,,space,0.186505,1,1,1.639485,,0,367,367,376,1,2b,34,3,31,
,,,,,,,,,,,,,,,,,,,,,,,,,,images/exp2b_trial_48_colour2_distractors31_r.png,r,2,002,001,2021-04-11_14h29.53.598,searchDisc4,2020.2.10,Win32,60,,,space,0.152965,2,1,0.613775,,0,368,368,390,1,2b,48,2,31,
,,,,,,,,,,,,,,,,,,,,,,,,,,images/exp1a_trial_2_colour1_distractors9_r.png,r,2,002,001,2021-04-11_14h29.53.598,searchDisc4,2020.2.10,Win32,60,,,space,0.1984,2,1,0.54847,,0,369,369,2,1,1a,2,1,9,
,,,,,,,,,,,,,,,,,,,,,,,,,,images/exp1b_trial_71_colour3_distractors19_l.png,l,1,002,001,2021-04-11_14h29.53.598,searchDisc4,2020.2.10,Win32,60,,,space,0.263945,1,1,0.93644,,0,370,370,185,1,1b,71,3,19,
,,,,,,,,,,,,,,,,,,,,,,,,,,images/exp1b_trial_23_colour1_distractors43_l.png,l,1,002,001,2021-04-11_14h29.53.598,searchDisc4,2020.2.10,Win32,60,,,space,0.24335,1,1,0.86269,,0,371,371,137,1,1b,23,1,43,
,,,,,,,,,,,,,,,,,,,,,,,,,,images/exp1a_trial_8_colour2_distractors9_r.png,r,2,002,001,2021-04-11_14h29.53.598,searchDisc4,2020.2.10,Win32,60,,,space,0.280115,2,1,0.6535,,0,372,372,8,1,1a,8,2,9,
,,,,,,,,,,,,,,,,,,,,,,,,,,images/exp1a_trial_56_colour1_distractors1_l.png,l,1,002,001,2021-04-11_14h29.53.598,searchDisc4,2020.2.10,Win32,60,,,space,0.215565,1,1,0.68413,,0,373,373,56,1,1a,56,1,1,
,,,,,,,,,,,,,,,,,,,,,,,,,,images/exp2b_trial_2_colour1_distractors9_r.png,r,2,002,001,2021-04-11_14h29.53.598,searchDisc4,2020.2.10,Win32,60,,,space,0.480945,2,1,1.07061,,0,374,374,344,1,2b,2,1,9,
,,,,,,,,,,,,,,,,,,,,,,,,,,images/exp2c_trial_74_colour0_distractors0_r.png,r,2,002,001,2021-04-11_14h29.53.598,searchDisc4,2020.2.10,Win32,60,,,space,0.359045,2,1,0.572635,,0,375,375,530,1,2c,74,0,0,
,,,,,,,,,,,,,,,,,,,,,,,,,,images/exp2c_trial_5_colour1_distractors43_r.png,r,2,002,001,2021-04-11_14h29.53.598,searchDisc4,2020.2.10,Win32,60,,,space,0.320005,2,1,0.5716,,0,376,376,461,1,2c,5,1,43,
,,,,,,,,,,,,,,,,,,,,,,,,,,images/exp2c_trial_111_colour3_distractors43_l.png,l,1,002,001,2021-04-11_14h29.53.598,searchDisc4,2020.2.10,Win32,60,,,space,0.297935,1,1,0.56035,,0,377,377,567,1,2c,111,3,43,
,,,,,,,,,,,,,,,,,,,,,,,,,,images/exp1a_trial_49_colour2_distractors43_r.png,r,2,002,001,2021-04-11_14h29.53.598,searchDisc4,2020.2.10,Win32,60,,,space,0.3677,1,0,0.55912,,0,378,378,49,1,1a,49,2,43,
,,,,,,,,,,,,,,,,,,,,,,,,,,images/exp2c_trial_43_colour1_distractors43_r.png,r,2,002,001,2021-04-11_14h29.53.598,searchDisc4,2020.2.10,Win32,60,,,space,0.45196,2,1,1.44703,,0,379,379,499,1,2c,43,1,43,
,,,,,,,,,,,,,,,,,,,,,,,,,,images/exp1b_trial_59_colour1_distractors19_l.png,l,1,002,001,2021-04-11_14h29.53.598,searchDisc4,2020.2.10,Win32,60,,,space,0.366175,1,1,0.735485,,0,380,380,173,1,1b,59,1,19,
,,,,,,,,,,,,,,,,,,,,,,,,,,images/exp1a_trial_21_colour1_distractors19_l.png,l,1,002,001,2021-04-11_14h29.53.598,searchDisc4,2020.2.10,Win32,60,,,space,0.61752,1,1,0.690195,,0,381,381,21,1,1a,21,1,19,
,,,,,,,,,,,,,,,,,,,,,,,,,,images/exp2c_trial_45_colour2_distractors4_r.png,r,2,002,001,2021-04-11_14h29.53.598,searchDisc4,2020.2.10,Win32,60,,,space,0.181445,2,1,0.79763,,0,382,382,501,1,2c,45,2,4,
,,,,,,,,,,,,,,,,,,,,,,,,,,images/exp1a_trial_75_colour0_distractors0_l.png,l,1,002,001,2021-04-11_14h29.53.598,searchDisc4,2020.2.10,Win32,60,,,space,0.196345,1,1,0.71404,,0,383,383,75,1,1a,75,0,0,
,,,,,,,,,,,,,,,,,,,,,,,,,,images/exp2c_trial_24_colour2_distractors1_l.png,l,1,002,001,2021-04-11_14h29.53.598,searchDisc4,2020.2.10,Win32,60,,,space,0.288525,1,1,0.68427,,0,384,384,480,1,2c,24,2,1,
,,,,,,,,,,,,,,,,,,,,,,,,,,images/exp2b_trial_67_colour2_distractors43_l.png,l,1,002,001,2021-04-11_14h29.53.598,searchDisc4,2020.2.10,Win32,60,,,space,0.141955,1,1,0.69418,,0,385,385,409,1,2b,67,2,43,
,,,,,,,,,,,,,,,,,,,,,,,,,,images/exp2c_trial_57_colour1_distractors4_l.png,l,1,002,001,2021-04-11_14h29.53.598,searchDisc4,2020.2.10,Win32,60,,,space,0.18865,1,1,0.74356,,0,386,386,513,1,2c,57,1,4,
,,,,,,,,,,,,,,,,,,,,,,,,,,images/exp1b_trial_17_colour3_distractors43_r.png,r,2,002,001,2021-04-11_14h29.53.598,searchDisc4,2020.2.10,Win32,60,,,space,0.26818,2,1,3.290885,,0,387,387,131,1,1b,17,3,43,
,,,,,,,,,,,,,,,,,,,,,,,,,,images/exp2c_trial_99_colour1_distractors43_l.png,l,1,002,001,2021-04-11_14h29.53.598,searchDisc4,2020.2.10,Win32,60,,,space,0.34719,1,1,1.2457,,0,388,388,555,1,2c,99,1,43,
,,,,,,,,,,,,,,,,,,,,,,,,,,images/exp2c_trial_84_colour2_distractors9_r.png,r,2,002,001,2021-04-11_14h29.53.598,searchDisc4,2020.2.10,Win32,60,,,space,0.275775,2,1,0.897835,,0,389,389,540,1,2c,84,2,9,
,,,,,,,,,,,,,,,,,,,,,,,,,,images/exp1a_trial_6_colour2_distractors1_r.png,r,2,002,001,2021-04-11_14h29.53.598,searchDisc4,2020.2.10,Win32,60,,,space,0.282765,1,0,0.789715,,0,390,390,6,1,1a,6,2,1,
,,,,,,,,,,,,,,,,,,,,,,,,,,images/exp1a_trial_23_colour1_distractors43_l.png,l,1,002,001,2021-04-11_14h29.53.598,searchDisc4,2020.2.10,Win32,60,,,space,0.314,1,1,1.79568,,0,391,391,23,1,1a,23,1,43,
,,,,,,,,,,,,,,,,,,,,,,,,,,images/exp2b_trial_78_colour1_distractors9_r.png,r,2,002,001,2021-04-11_14h29.53.598,searchDisc4,2020.2.10,Win32,60,,,space,0.37562,2,1,0.76898,,0,392,392,420,1,2b,78,1,9,
,,,,,,,,,,,,,,,,,,,,,,,,,,images/exp1b_trial_82_colour2_distractors1_r.png,r,2,002,001,2021-04-11_14h29.53.598,searchDisc4,2020.2.10,Win32,60,,,space,0.25239,2,1,1.410445,,0,393,393,196,1,1b,82,2,1,
,,,,,,,,,,,,,,,,,,,,,,,,,,images/exp2a_trial_98_colour1_distractors31_l.png,l,1,002,001,2021-04-11_14h29.53.598,searchDisc4,2020.2.10,Win32,60,,,space,0.28855,1,1,1.99636,,0,394,394,326,1,2a,98,1,31,
,,,,,,,,,,,,,,,,,,,,,,,,,,images/exp2c_trial_63_colour2_distractors4_l.png,l,1,002,001,2021-04-11_14h29.53.598,searchDisc4,2020.2.10,Win32,60,,,space,0.36355,1,1,1.087545,,0,395,395,519,1,2c,63,2,4,
,,,,,,,,,,,,,,,,,,,,,,,,,,images/exp2c_trial_40_colour1_distractors9_r.png,r,2,002,001,2021-04-11_14h29.53.598,searchDisc4,2020.2.10,Win32,60,,,space,0.333515,2,1,0.750905,,0,396,396,496,1,2c,40,1,9,
,,,,,,,,,,,,,,,,,,,,,,,,,,images/exp1b_trial_26_colour2_distractors9_l.png,l,1,002,001,2021-04-11_14h29.53.598,searchDisc4,2020.2.10,Win32,60,,,space,0.34207,1,1,0.703155,,0,397,397,140,1,1b,26,2,9,
,,,,,,,,,,,,,,,,,,,,,,,,,,images/exp2b_trial_87_colour2_distractors43_r.png,r,2,002,001,2021-04-11_14h29.53.598,searchDisc4,2020.2.10,Win32,60,,,space,0.345815,2,1,0.61612,,0,398,398,429,1,2b,87,2,43,
,,,,,,,,,,,,,,,,,,,,,,,,,,images/exp1a_trial_64_colour2_distractors9_l.png,l,1,002,001,2021-04-11_14h29.53.598,searchDisc4,2020.2.10,Win32,60,,,space,0.40253,1,1,1.04184,,0,399,399,64,1,1a,64,2,9,
,,,,,,,,,,,,,,,,,,,,,,,,,,images/exp2c_trial_109_colour3_distractors19_l.png,l,1,002,001,2021-04-11_14h29.53.598,searchDisc4,2020.2.10,Win32,60,,,space,0.303855,1,1,0.633625,,0,400,400,565,1,2c,109,3,19,
,,,,,,,,,,,,,,,,,,,,,,,,,,images/exp2a_trial_70_colour3_distractors9_l.png,l,1,002,001,2021-04-11_14h29.53.598,searchDisc4,2020.2.10,Win32,60,,,space,0.37987,1,1,0.56689,,0,401,401,298,1,2a,70,3,9,
,,,,,,,,,,,,,,,,,,,,,,,,,,images/exp2c_trial_103_colour2_distractors19_l.png,l,1,002,001,2021-04-11_14h29.53.598,searchDisc4,2020.2.10,Win32,60,,,space,0.389405,1,1,0.7074,,0,402,402,559,1,2c,103,2,19,
,,,,,,,,,,,,,,,,,,,,,,,,,,images/exp2a_trial_110_colour3_distractors31_l.png,l,1,002,001,2021-04-11_14h29.53.598,searchDisc4,2020.2.10,Win32,60,,,space,0.506355,1,1,0.656915,,0,403,403,338,1,2a,110,3,31,
,,,,,,,,,,,,,,,,,,,,,,,,,,images/exp2a_trial_83_colour2_distractors4_r.png,r,2,002,001,2021-04-11_14h29.53.598,searchDisc4,2020.2.10,Win32,60,,,space,0.398355,2,1,0.931305,,0,404,404,311,1,2a,83,2,4,
,,,,,,,,,,,,,,,,,,,,,,,,,,images/exp1b_trial_34_colour3_distractors31_l.png,l,1,002,001,2021-04-11_14h29.53.598,searchDisc4,2020.2.10,Win32,60,,,space,0.349295,1,1,1.905835,,0,405,405,148,1,1b,34,3,31,
,,,,,,,,,,,,,,,,,,,,,,,,,,images/exp1a_trial_86_colour2_distractors31_r.png,r,2,002,001,2021-04-11_14h29.53.598,searchDisc4,2020.2.10,Win32,60,,,space,0.36841,2,1,0.607455,,0,406,406,86,1,1a,86,2,31,
,,,,,,,,,,,,,,,,,,,,,,,,,,images/exp2b_trial_25_colour2_distractors4_l.png,l,1,002,001,2021-04-11_14h29.53.598,searchDisc4,2020.2.10,Win32,60,,,space,0.32077,1,1,0.547435,,0,407,407,367,1,2b,25,2,4,
,,,,,,,,,,,,,,,,,,,,,,,,,,images/exp1a_trial_5_colour1_distractors43_r.png,r,2,002,001,2021-04-11_14h29.53.598,searchDisc4,2020.2.10,Win32,60,,,space,0.36777,2,1,0.811615,,0,408,408,5,1,1a,5,1,43,
,,,,,,,,,,,,,,,,,,,,,,,,,,images/exp2b_trial_98_colour1_distractors31_l.png,l,1,002,001,2021-04-11_14h29.53.598,searchDisc4,2020.2.10,Win32,60,,,space,0.27683,1,1,0.83522,,0,409,409,440,1,2b,98,1,31,
,,,,,,,,,,,,,,,,,,,,,,,,,,images/exp2a_trial_43_colour1_distractors43_r.png,r,2,002,001,2021-04-11_14h29.53.598,searchDisc4,2020.2.10,Win32,60,,,space,0.4795,2,1,0.5593,,0,410,410,271,1,2a,43,1,43,
,,,,,,,,,,,,,,,,,,,,,,,,,,images/exp1a_trial_84_colour2_distractors9_r.png,r,2,002,001,2021-04-11_14h29.53.598,searchDisc4,2020.2.10,Win32,60,,,space,0.3475,1,0,0.71332,,0,411,411,84,1,1a,84,2,9,
,,,,,,,,,,,,,,,,,,,,,,,,,,images/exp2c_trial_14_colour3_distractors9_r.png,r,2,002,001,2021-04-11_14h29.53.598,searchDisc4,2020.2.10,Win32,60,,,space,1.266455,2,1,0.57999,,0,412,412,470,1,2c,14,3,9,
,,,,,,,,,,,,,,,,,,,,,,,,,,images/exp2b_trial_83_colour2_distractors4_r.png,r,2,002,001,2021-04-11_14h29.53.598,searchDisc4,2020.2.10,Win32,60,,,space,0.34046,2,1,0.51283,,0,413,413,425,1,2b,83,2,4,
,,,,,,,,,,,,,,,,,,,,,,,,,,images/exp2a_trial_16_colour3_distractors31_r.png,r,2,002,001,2021-04-11_14h29.53.598,searchDisc4,2020.2.10,Win32,60,,,space,0.33619,2,1,0.890065,,0,414,414,244,1,2a,16,3,31,
,,,,,,,,,,,,,,,,,,,,,,,,,,images/exp2c_trial_15_colour3_distractors19_r.png,r,2,002,001,2021-04-11_14h29.53.598,searchDisc4,2020.2.10,Win32,60,,,space,0.28279,2,1,0.95449,,0,415,415,471,1,2c,15,3,19,
,,,,,,,,,,,,,,,,,,,,,,,,,,images/exp2b_trial_96_colour1_distractors9_l.png,l,1,002,001,2021-04-11_14h29.53.598,searchDisc4,2020.2.10,Win32,60,,,space,0.326765,1,1,0.548505,,0,416,416,438,1,2b,96,1,9,
,,,,,,,,,,,,,,,,,,,,,,,,,,images/exp2a_trial_105_colour2_distractors43_l.png,l,1,002,001,2021-04-11_14h29.53.598,searchDisc4,2020.2.10,Win32,60,,,space,0.315855,1,1,0.732365,,0,417,417,333,1,2a,105,2,43,
,,,,,,,,,,,,,,,,,,,,,,,,,,images/exp1a_trial_48_colour2_distractors31_r.png,r,2,002,001,2021-04-11_14h29.53.598,searchDisc4,2020.2.10,Win32,60,,,space,0.30866,2,1,0.807245,,0,418,418,48,1,1a,48,2,31,
,,,,,,,,,,,,,,,,,,,,,,,,,,images/exp1a_trial_41_colour1_distractors19_r.png,r,2,002,001,2021-04-11_14h29.53.598,searchDisc4,2020.2.10,Win32,60,,,space,0.30819,2,1,0.5152,space,0,419,419,41,1,1a,41,1,19,3.604325
,,,,,,,,,,,,,,,,,,,,,,,,,,images/exp2c_trial_48_colour2_distractors31_r.png,r,2,002,001,2021-04-11_14h29.53.598,searchDisc4,2020.2.10,Win32,60,,,space,0.70219,2,1,0.671105,,0,420,420,504,1,2c,48,2,31,
,,,,,,,,,,,,,,,,,,,,,,,,,,images/exp1a_trial_91_colour3_distractors19_r.png,r,2,002,001,2021-04-11_14h29.53.598,searchDisc4,2020.2.10,Win32,60,,,space,0.14777,2,1,0.67521,,0,421,421,91,1,1a,91,3,19,
,,,,,,,,,,,,,,,,,,,,,,,,,,images/exp2a_trial_3_colour1_distractors19_r.png,r,2,002,001,2021-04-11_14h29.53.598,searchDisc4,2020.2.10,Win32,60,,,space,0.21802,2,1,0.624365,,0,422,422,231,1,2a,3,1,19,
,,,,,,,,,,,,,,,,,,,,,,,,,,images/exp2c_trial_93_colour3_distractors43_r.png,r,2,002,001,2021-04-11_14h29.53.598,searchDisc4,2020.2.10,Win32,60,,,space,0.186015,2,1,0.583655,,0,423,423,549,1,2c,93,3,43,
,,,,,,,,,,,,,,,,,,,,,,,,,,images/exp2b_trial_47_colour2_distractors19_r.png,r,2,002,001,2021-04-11_14h29.53.598,searchDisc4,2020.2.10,Win32,60,,,space,0.32833,2,1,0.48126,,0,424,424,389,1,2b,47,2,19,
,,,,,,,,,,,,,,,,,,,,,,,,,,images/exp2c_trial_72_colour3_distractors31_l.png,l,1,002,001,2021-04-11_14h29.53.598,searchDisc4,2020.2.10,Win32,60,,,space,0.374785,2,0,0.801185,,0,425,425,528,1,2c,72,3,31,
,,,,,,,,,,,,,,,,,,,,,,,,,,images/exp2a_trial_25_colour2_distractors4_l.png,l,1,002,001,2021-04-11_14h29.53.598,searchDisc4,2020.2.10,Win32,60,,,space,0.673685,1,1,0.61015,,0,426,426,253,1,2a,25,2,4,
,,,,,,,,,,,,,,,,,,,,,,,,,,images/exp2a_trial_91_colour3_distractors19_r.png,r,2,002,001,2021-04-11_14h29.53.598,searchDisc4,2020.2.10,Win32,60,,,space,0.339315,2,1,0.53087,,0,427,427,319,1,2a,91,3,19,
,,,,,,,,,,,,,,,,,,,,,,,,,,images/exp1a_trial_50_colour3_distractors1_r.png,r,2,002,001,2021-04-11_14h29.53.598,searchDisc4,2020.2.10,Win32,60,,,space,0.30686,2,1,0.54781,,0,428,428,50,1,1a,50,3,1,
,,,,,,,,,,,,,,,,,,,,,,,,,,images/exp1a_trial_24_colour2_distractors1_l.png,l,1,002,001,2021-04-11_14h29.53.598,searchDisc4,2020.2.10,Win32,60,,,space,0.31819,1,1,0.7184,,0,429,429,24,1,1a,24,2,1,
,,,,,,,,,,,,,,,,,,,,,,,,,,images/exp2a_trial_63_colour2_distractors4_l.png,l,1,002,001,2021-04-11_14h29.53.598,searchDisc4,2020.2.10,Win32,60,,,space,0.3107,1,1,0.948345,,0,430,430,291,1,2a,63,2,4,
,,,,,,,,,,,,,,,,,,,,,,,,,,images/exp2c_trial_98_colour1_distractors31_l.png,l,1,002,001,2021-04-11_14h29.53.598,searchDisc4,2020.2.10,Win32,60,,,space,0.35648,1,1,0.58368,,0,431,431,554,1,2c,98,1,31,
,,,,,,,,,,,,,,,,,,,,,,,,,,images/exp2c_trial_101_colour2_distractors4_l.png,l,1,002,001,2021-04-11_14h29.53.598,searchDisc4,2020.2.10,Win32,60,,,space,0.373905,1,1,0.788735,,0,432,432,557,1,2c,101,2,4,
,,,,,,,,,,,,,,,,,,,,,,,,,,images/exp2c_trial_87_colour2_distractors43_r.png,r,2,002,001,2021-04-11_14h29.53.598,searchDisc4,2020.2.10,Win32,60,,,space,0.36685,2,1,1.464465,,0,433,433,543,1,2c,87,2,43,
,,,,,,,,,,,,,,,,,,,,,,,,,,images/exp1a_trial_58_colour1_distractors9_l.png,l,1,002,001,2021-04-11_14h29.53.598,searchDisc4,2020.2.10,Win32,60,,,space,0.339235,1,1,0.59731,,0,434,434,58,1,1a,58,1,9,
,,,,,,,,,,,,,,,,,,,,,,,,,,images/exp2c_trial_106_colour3_distractors1_l.png,l,1,002,001,2021-04-11_14h29.53.598,searchDisc4,2020.2.10,Win32,60,,,space,0.32621,1,1,0.547405,,0,435,435,562,1,2c,106,3,1,
,,,,,,,,,,,,,,,,,,,,,,,,,,images/exp2b_trial_111_colour3_distractors43_l.png,l,1,002,001,2021-04-11_14h29.53.598,searchDisc4,2020.2.10,Win32,60,,,space,0.317815,1,1,0.6098,,0,436,436,453,1,2b,111,3,43,
,,,,,,,,,,,,,,,,,,,,,,,,,,images/exp1a_trial_39_colour1_distractors4_r.png,r,2,002,001,2021-04-11_14h29.53.598,searchDisc4,2020.2.10,Win32,60,,,space,0.350675,2,1,0.862275,,0,437,437,39,1,1a,39,1,4,
,,,,,,,,,,,,,,,,,,,,,,,,,,images/exp2b_trial_77_colour1_distractors4_r.png,r,2,002,001,2021-04-11_14h29.53.598,searchDisc4,2020.2.10,Win32,60,,,space,0.3483,2,1,0.634535,,0,438,438,419,1,2b,77,1,4,
,,,,,,,,,,,,,,,,,,,,,,,,,,images/exp1b_trial_62_colour2_distractors1_l.png,l,1,002,001,2021-04-11_14h29.53.598,searchDisc4,2020.2.10,Win32,60,,,space,0.340445,1,1,1.443725,,0,439,439,176,1,1b,62,2,1,
,,,,,,,,,,,,,,,,,,,,,,,,,,images/exp1a_trial_25_colour2_distractors4_l.png,l,1,002,001,2021-04-11_14h29.53.598,searchDisc4,2020.2.10,Win32,60,,,space,0.31808,1,1,2.114275,,0,440,440,25,1,1a,25,2,4,
,,,,,,,,,,,,,,,,,,,,,,,,,,images/exp2c_trial_60_colour1_distractors31_l.png,l,1,002,001,2021-04-11_14h29.53.598,searchDisc4,2020.2.10,Win32,60,,,space,0.306245,1,1,0.73521,,0,441,441,516,1,2c,60,1,31,
,,,,,,,,,,,,,,,,,,,,,,,,,,images/exp2c_trial_59_colour1_distractors19_l.png,l,1,002,001,2021-04-11_14h29.53.598,searchDisc4,2020.2.10,Win32,60,,,space,0.32071,1,1,0.6214,,0,442,442,515,1,2c,59,1,19,
,,,,,,,,,,,,,,,,,,,,,,,,,,images/exp2a_trial_17_colour3_distractors43_r.png,r,2,002,001,2021-04-11_14h29.53.598,searchDisc4,2020.2.10,Win32,60,,,space,0.354505,2,1,0.6593,,0,443,443,245,1,2a,17,3,43,
,,,,,,,,,,,,,,,,,,,,,,,,,,images/exp2a_trial_90_colour3_distractors9_r.png,r,2,002,001,2021-04-11_14h29.53.598,searchDisc4,2020.2.10,Win32,60,,,space,0.326605,2,1,0.724595,,0,444,444,318,1,2a,90,3,9,
,,,,,,,,,,,,,,,,,,,,,,,,,,images/exp2c_trial_112_colour0_distractors0_r.png,r,2,002,001,2021-04-11_14h29.53.598,searchDisc4,2020.2.10,Win32,60,,,space,0.319625,2,1,0.547495,,0,445,445,568,1,2c,112,0,0,
,,,,,,,,,,,,,,,,,,,,,,,,,,images/exp2a_trial_92_colour3_distractors31_r.png,r,2,002,001,2021-04-11_14h29.53.598,searchDisc4,2020.2.10,Win32,60,,,space,0.367185,2,1,0.5719,,0,446,446,320,1,2a,92,3,31,
,,,,,,,,,,,,,,,,,,,,,,,,,,images/exp1a_trial_113_colour0_distractors0_l.png,l,1,002,001,2021-04-11_14h29.53.598,searchDisc4,2020.2.10,Win32,60,,,space,0.37305,1,1,0.557065,,0,447,447,113,1,1a,113,0,0,
,,,,,,,,,,,,,,,,,,,,,,,,,,images/exp2b_trial_70_colour3_distractors9_l.png,l,1,002,001,2021-04-11_14h29.53.598,searchDisc4,2020.2.10,Win32,60,,,space,0.35074,1,1,0.8805,,0,448,448,412,1,2b,70,3,9,
,,,,,,,,,,,,,,,,,,,,,,,,,,images/exp2b_trial_63_colour2_distractors4_l.png,l,1,002,001,2021-04-11_14h29.53.598,searchDisc4,2020.2.10,Win32,60,,,space,0.305705,1,1,0.53213,,0,449,449,405,1,2b,63,2,4,
,,,,,,,,,,,,,,,,,,,,,,,,,,images/exp1a_trial_81_colour1_distractors43_r.png,r,2,002,001,2021-04-11_14h29.53.598,searchDisc4,2020.2.10,Win32,60,,,space,0.334375,2,1,0.59011,,0,450,450,81,1,1a,81,1,43,
,,,,,,,,,,,,,,,,,,,,,,,,,,images/exp2c_trial_17_colour3_distractors43_r.png,r,2,002,001,2021-04-11_14h29.53.598,searchDisc4,2020.2.10,Win32,60,,,space,0.33498,2,1,0.826535,,0,451,451,473,1,2c,17,3,43,
,,,,,,,,,,,,,,,,,,,,,,,,,,images/exp2a_trial_108_colour3_distractors9_l.png,l,1,002,001,2021-04-11_14h29.53.598,searchDisc4,2020.2.10,Win32,60,,,space,0.30536,1,1,0.85899,,0,452,452,336,1,2a,108,3,9,
,,,,,,,,,,,,,,,,,,,,,,,,,,images/exp1b_trial_28_colour2_distractors31_l.png,l,1,002,001,2021-04-11_14h29.53.598,searchDisc4,2020.2.10,Win32,60,,,space,0.30979,1,1,0.84992,,0,453,453,142,1,1b,28,2,31,
,,,,,,,,,,,,,,,,,,,,,,,,,,images/exp2a_trial_79_colour1_distractors19_r.png,r,2,002,001,2021-04-11_14h29.53.598,searchDisc4,2020.2.10,Win32,60,,,space,0.311085,2,1,0.661365,,0,454,454,307,1,2a,79,1,19,
,,,,,,,,,,,,,,,,,,,,,,,,,,images/exp2c_trial_22_colour1_distractors31_l.png,l,1,002,001,2021-04-11_14h29.53.598,searchDisc4,2020.2.10,Win32,60,,,space,0.403445,1,1,0.77061,,0,455,455,478,1,2c,22,1,31,
,,,,,,,,,,,,,,,,,,,,,,,,,,images/exp1b_trial_6_colour2_distractors1_r.png,r,2,002,001,2021-04-11_14h29.53.598,searchDisc4,2020.2.10,Win32,60,,,space,0.34907,2,1,0.91085,,0,456,456,120,1,1b,6,2,1,
,,,,,,,,,,,,,,,,,,,,,,,,,,images/exp2b_trial_0_colour1_distractors1_r.png,r,2,002,001,2021-04-11_14h29.53.598,searchDisc4,2020.2.10,Win32,60,,,space,0.33211,2,1,0.97341,,0,457,457,342,1,2b,0,1,1,
,,,,,,,,,,,,,,,,,,,,,,,,,,images/exp1a_trial_97_colour1_distractors19_l.png,l,1,002,001,2021-04-11_14h29.53.598,searchDisc4,2020.2.10,Win32,60,,,space,0.297465,1,1,0.686265,,0,458,458,97,1,1a,97,1,19,
,,,,,,,,,,,,,,,,,,,,,,,,,,images/exp2b_trial_107_colour3_distractors4_l.png,l,1,002,001,2021-04-11_14h29.53.598,searchDisc4,2020.2.10,Win32,60,,,space,0.303835,1,1,0.558835,,0,459,459,449,1,2b,107,3,4,
,,,,,,,,,,,,,,,,,,,,,,,,,,images/exp1a_trial_51_colour3_distractors4_r.png,r,2,002,001,2021-04-11_14h29.53.598,searchDisc4,2020.2.10,Win32,60,,,space,0.34926,2,1,0.5499,,0,460,460,51,1,1a,51,3,4,
,,,,,,,,,,,,,,,,,,,,,,,,,,images/exp2b_trial_39_colour1_distractors4_r.png,r,2,002,001,2021-04-11_14h29.53.598,searchDisc4,2020.2.10,Win32,60,,,space,0.3395,2,1,0.595175,,0,461,461,381,1,2b,39,1,4,
,,,,,,,,,,,,,,,,,,,,,,,,,,images/exp2c_trial_67_colour2_distractors43_l.png,l,1,002,001,2021-04-11_14h29.53.598,searchDisc4,2020.2.10,Win32,60,,,space,0.33524,1,1,1.33607,,0,462,462,523,1,2c,67,2,43,
,,,,,,,,,,,,,,,,,,,,,,,,,,images/exp1b_trial_105_colour2_distractors43_l.png,l,1,002,001,2021-04-11_14h29.53.598,searchDisc4,2020.2.10,Win32,60,,,space,0.32472,1,1,0.93934,,0,463,463,219,1,1b,105,2,43,
,,,,,,,,,,,,,,,,,,,,,,,,,,images/exp2a_trial_60_colour1_distractors31_l.png,l,1,002,001,2021-04-11_14h29.53.598,searchDisc4,2020.2.10,Win32,60,,,space,0.34931,1,1,0.884895,,0,464,464,288,1,2a,60,1,31,
,,,,,,,,,,,,,,,,,,,,,,,,,,images/exp2c_trial_38_colour1_distractors1_r.png,r,2,002,001,2021-04-11_14h29.53.598,searchDisc4,2020.2.10,Win32,60,,,space,0.339485,2,1,0.87695,,0,465,465,494,1,2c,38,1,1,
,,,,,,,,,,,,,,,,,,,,,,,,,,images/exp1a_trial_110_colour3_distractors31_l.png,l,1,002,001,2021-04-11_14h29.53.598,searchDisc4,2020.2.10,Win32,60,,,space,0.36961,1,1,0.65837,,0,466,466,110,1,1a,110,3,31,
,,,,,,,,,,,,,,,,,,,,,,,,,,images/exp1b_trial_12_colour3_distractors1_r.png,r,2,002,001,2021-04-11_14h29.53.598,searchDisc4,2020.2.10,Win32,60,,,space,0.395225,2,1,1.60111,,0,467,467,126,1,1b,12,3,1,
,,,,,,,,,,,,,,,,,,,,,,,,,,images/exp1a_trial_38_colour1_distractors1_r.png,r,2,002,001,2021-04-11_14h29.53.598,searchDisc4,2020.2.10,Win32,60,,,space,0.31915,2,1,1.4233,,0,468,468,38,1,1a,38,1,1,
,,,,,,,,,,,,,,,,,,,,,,,,,,images/exp2a_trial_10_colour2_distractors31_r.png,r,2,002,001,2021-04-11_14h29.53.598,searchDisc4,2020.2.10,Win32,60,,,space,0.303995,2,1,0.60069,,0,469,469,238,1,2a,10,2,31,
,,,,,,,,,,,,,,,,,,,,,,,,,,images/exp2b_trial_15_colour3_distractors19_r.png,r,2,002,001,2021-04-11_14h29.53.598,searchDisc4,2020.2.10,Win32,60,,,space,0.32675,2,1,0.809055,,0,470,470,357,1,2b,15,3,19,
,,,,,,,,,,,,,,,,,,,,,,,,,,images/exp2c_trial_89_colour3_distractors4_r.png,r,2,002,001,2021-04-11_14h29.53.598,searchDisc4,2020.2.10,Win32,60,,,space,0.299375,2,1,0.58763,,0,471,471,545,1,2c,89,3,4,
,,,,,,,,,,,,,,,,,,,,,,,,,,images/exp2b_trial_57_colour1_distractors4_l.png,l,1,002,001,2021-04-11_14h29.53.598,searchDisc4,2020.2.10,Win32,60,,,space,0.32247,1,1,0.66977,,0,472,472,399,1,2b,57,1,4,
,,,,,,,,,,,,,,,,,,,,,,,,,,images/exp2c_trial_58_colour1_distractors9_l.png,l,1,002,001,2021-04-11_14h29.53.598,searchDisc4,2020.2.10,Win32,60,,,space,0.27605,1,1,0.507875,,0,473,473,514,1,2c,58,1,9,
,,,,,,,,,,,,,,,,,,,,,,,,,,images/exp2c_trial_56_colour1_distractors1_l.png,l,1,002,001,2021-04-11_14h29.53.598,searchDisc4,2020.2.10,Win32,60,,,space,0.306205,2,0,0.557595,,0,474,474,512,1,2c,56,1,1,
,,,,,,,,,,,,,,,,,,,,,,,,,,images/exp2a_trial_1_colour1_distractors4_r.png,r,2,002,001,2021-04-11_14h29.53.598,searchDisc4,2020.2.10,Win32,60,,,space,0.79081,2,1,0.63711,,0,475,475,229,1,2a,1,1,4,
,,,,,,,,,,,,,,,,,,,,,,,,,,images/exp2a_trial_96_colour1_distractors9_l.png,l,1,002,001,2021-04-11_14h29.53.598,searchDisc4,2020.2.10,Win32,60,,,space,0.284875,1,1,0.908665,,0,476,476,324,1,2a,96,1,9,
