X Scale,Y Scale,key_resp_10.keys,key_resp_10.rt,key_resp_11.keys,key_resp_11.rt,key_resp_12.keys,key_resp_12.rt,key_resp_13.keys,key_resp_13.rt,key_resp_5.keys,key_resp_5.rt,key_resp_8.keys,key_resp_8.rt,key_resp_6.keys,key_resp_6.rt,key_resp_7.keys,key_resp_7.rt,key_resp_4.keys,key_resp_4.corr,key_resp_4.rt,trials_2.thisRepN,trials_2.thisTrialN,trials_2.thisN,trials_2.thisIndex,trials_2.ran,ImageFile,targ_side,correctAnswer,participant,session,date,expName,psychopyVersion,OS,frameRate,key_resp_3.keys,key_resp_3.rt,key_resp_9.keys,key_resp_9.rt,key_resp_2.keys,key_resp_2.corr,key_resp_2.rt,key_resp.keys,trials.thisRepN,trials.thisTrialN,trials.thisN,trials.thisIndex,trials.ran,exp,trial,colour,distNo,key_resp.rt
19.7,19.9,space,17.8047,space,3.589765,space,1.163055,space,0.933875,space,7.20305,space,13.975375,space,3.907925,space,6.60881,2,1,1.667655,0,0,0,1,1,Practice arrays/exp1a_trial_3_colour1_distractors19_r.png,r,2,003,001,2021-04-11_15h08.31.668,searchDisc4,2020.2.10,Win32,60,,,,,,,,,,,,,,,,,,
,,,,,,,,,,,,,,,,space,0.79827,1,1,0.70491,0,1,1,17,1,Practice arrays/exp1a_trial_35_colour3_distractors43_l.png,l,1,003,001,2021-04-11_15h08.31.668,searchDisc4,2020.2.10,Win32,60,,,,,,,,,,,,,,,,,,
,,,,,,,,,,,,,,,,space,0.416955,2,1,0.55843,0,2,2,18,1,Practice arrays/exp1a_trial_36_colour0_distractors0_r.png,r,2,003,001,2021-04-11_15h08.31.668,searchDisc4,2020.2.10,Win32,60,,,,,,,,,,,,,,,,,,
,,,,,,,,,,,,,,,,space,0.364535,1,1,0.771415,0,3,3,9,1,Practice arrays/exp1a_trial_19_colour1_distractors4_l.png,l,1,003,001,2021-04-11_15h08.31.668,searchDisc4,2020.2.10,Win32,60,,,,,,,,,,,,,,,,,,
,,,,,,,,,,,,,,,,space,0.49526,1,1,0.635165,0,4,4,11,1,Practice arrays/exp1a_trial_21_colour1_distractors19_l.png,l,1,003,001,2021-04-11_15h08.31.668,searchDisc4,2020.2.10,Win32,60,,,,,,,,,,,,,,,,,,
,,,,,,,,,,,,,,,,space,0.68087,2,1,0.46196,0,5,5,0,1,Practice arrays/exp1a_trial_0_colour1_distractors1_r.png,r,2,003,001,2021-04-11_15h08.31.668,searchDisc4,2020.2.10,Win32,60,,,,,,,,,,,,,,,,,,
,,,,,,,,,,,,,,,,space,0.354405,2,1,0.50023,0,6,6,7,1,Practice arrays/exp1a_trial_13_colour3_distractors4_r.png,r,2,003,001,2021-04-11_15h08.31.668,searchDisc4,2020.2.10,Win32,60,,,,,,,,,,,,,,,,,,
,,,,,,,,,,,,,,,,space,0.38468,2,1,0.988865,0,7,7,5,1,Practice arrays/exp1a_trial_10_colour2_distractors31_r.png,r,2,003,001,2021-04-11_15h08.31.668,searchDisc4,2020.2.10,Win32,60,,,,,,,,,,,,,,,,,,
,,,,,,,,,,,,,,,,space,0.320315,1,1,0.537635,0,8,8,19,1,Practice arrays/exp1a_trial_37_colour0_distractors0_l.png,l,1,003,001,2021-04-11_15h08.31.668,searchDisc4,2020.2.10,Win32,60,,,,,,,,,,,,,,,,,,
,,,,,,,,,,,,,,,,space,0.680805,2,1,1.346815,0,9,9,3,1,Practice arrays/exp1a_trial_7_colour2_distractors4_r.png,r,2,003,001,2021-04-11_15h08.31.668,searchDisc4,2020.2.10,Win32,60,,,,,,,,,,,,,,,,,,
,,,,,,,,,,,,,,,,space,0.392135,2,1,0.63481,0,10,10,2,1,Practice arrays/exp1a_trial_5_colour1_distractors43_r.png,r,2,003,001,2021-04-11_15h08.31.668,searchDisc4,2020.2.10,Win32,60,,,,,,,,,,,,,,,,,,
,,,,,,,,,,,,,,,,space,0.3377,1,1,0.51714,0,11,11,14,1,Practice arrays/exp1a_trial_29_colour2_distractors43_l.png,l,1,003,001,2021-04-11_15h08.31.668,searchDisc4,2020.2.10,Win32,60,,,,,,,,,,,,,,,,,,
,,,,,,,,,,,,,,,,space,0.33359,1,1,0.66688,0,12,12,15,1,Practice arrays/exp1a_trial_32_colour3_distractors9_l.png,l,1,003,001,2021-04-11_15h08.31.668,searchDisc4,2020.2.10,Win32,60,,,,,,,,,,,,,,,,,,
,,,,,,,,,,,,,,,,space,0.314065,1,1,0.61954,0,13,13,16,1,Practice arrays/exp1a_trial_33_colour3_distractors19_l.png,l,1,003,001,2021-04-11_15h08.31.668,searchDisc4,2020.2.10,Win32,60,,,,,,,,,,,,,,,,,,
,,,,,,,,,,,,,,,,space,0.307235,1,1,0.70309,0,14,14,10,1,Practice arrays/exp1a_trial_20_colour1_distractors9_l.png,l,1,003,001,2021-04-11_15h08.31.668,searchDisc4,2020.2.10,Win32,60,,,,,,,,,,,,,,,,,,
,,,,,,,,,,,,,,,,space,0.39644,1,1,0.67513,0,15,15,13,1,Practice arrays/exp1a_trial_28_colour2_distractors31_l.png,l,1,003,001,2021-04-11_15h08.31.668,searchDisc4,2020.2.10,Win32,60,,,,,,,,,,,,,,,,,,
,,,,,,,,,,,,,,,,space,0.433685,2,1,0.597935,0,16,16,4,1,Practice arrays/exp1a_trial_8_colour2_distractors9_r.png,r,2,003,001,2021-04-11_15h08.31.668,searchDisc4,2020.2.10,Win32,60,,,,,,,,,,,,,,,,,,
,,,,,,,,,,,,,,,,space,0.323635,2,1,0.55697,0,17,17,6,1,Practice arrays/exp1a_trial_12_colour3_distractors1_r.png,r,2,003,001,2021-04-11_15h08.31.668,searchDisc4,2020.2.10,Win32,60,,,,,,,,,,,,,,,,,,
,,,,,,,,,,,,,,,,space,0.386075,2,1,0.63854,0,18,18,8,1,Practice arrays/exp1a_trial_16_colour3_distractors31_r.png,r,2,003,001,2021-04-11_15h08.31.668,searchDisc4,2020.2.10,Win32,60,,,,,,,,,,,,,,,,,,
,,,,,,,,,,,,,,,,space,0.35637,1,1,0.65452,0,19,19,12,1,Practice arrays/exp1a_trial_25_colour2_distractors4_l.png,l,1,003,001,2021-04-11_15h08.31.668,searchDisc4,2020.2.10,Win32,60,,,,,,,,,,,,,,,,,,
,,,,,,,,,,,,,,,,,,,,,,,,,,images/exp1b_trial_83_colour2_distractors4_r.png,r,2,003,001,2021-04-11_15h08.31.668,searchDisc4,2020.2.10,Win32,60,space,4.032055,space,0.558845,2,1,0.899765,,0,0,0,197,1,1b,83,2,4,
,,,,,,,,,,,,,,,,,,,,,,,,,,images/exp2b_trial_26_colour2_distractors9_l.png,l,1,003,001,2021-04-11_15h08.31.668,searchDisc4,2020.2.10,Win32,60,,,space,0.638735,1,1,0.659725,,0,1,1,368,1,2b,26,2,9,
,,,,,,,,,,,,,,,,,,,,,,,,,,images/exp2a_trial_104_colour2_distractors31_l.png,l,1,003,001,2021-04-11_15h08.31.668,searchDisc4,2020.2.10,Win32,60,,,space,0.379185,1,1,0.58402,,0,2,2,332,1,2a,104,2,31,
,,,,,,,,,,,,,,,,,,,,,,,,,,images/exp2c_trial_10_colour2_distractors31_r.png,r,2,003,001,2021-04-11_15h08.31.668,searchDisc4,2020.2.10,Win32,60,,,space,0.318335,2,1,0.610055,,0,3,3,466,1,2c,10,2,31,
,,,,,,,,,,,,,,,,,,,,,,,,,,images/exp1b_trial_54_colour3_distractors31_r.png,r,2,003,001,2021-04-11_15h08.31.668,searchDisc4,2020.2.10,Win32,60,,,space,0.31516,2,1,1.55274,,0,4,4,168,1,1b,54,3,31,
,,,,,,,,,,,,,,,,,,,,,,,,,,images/exp2a_trial_77_colour1_distractors4_r.png,r,2,003,001,2021-04-11_15h08.31.668,searchDisc4,2020.2.10,Win32,60,,,space,0.37412,2,1,0.948365,,0,5,5,305,1,2a,77,1,4,
,,,,,,,,,,,,,,,,,,,,,,,,,,images/exp2c_trial_32_colour3_distractors9_l.png,l,1,003,001,2021-04-11_15h08.31.668,searchDisc4,2020.2.10,Win32,60,,,space,0.30675,1,1,0.607795,,0,6,6,488,1,2c,32,3,9,
,,,,,,,,,,,,,,,,,,,,,,,,,,images/exp2c_trial_90_colour3_distractors9_r.png,r,2,003,001,2021-04-11_15h08.31.668,searchDisc4,2020.2.10,Win32,60,,,space,0.286205,2,1,0.733805,,0,7,7,546,1,2c,90,3,9,
,,,,,,,,,,,,,,,,,,,,,,,,,,images/exp1a_trial_38_colour1_distractors1_r.png,r,2,003,001,2021-04-11_15h08.31.668,searchDisc4,2020.2.10,Win32,60,,,space,0.22853,2,1,0.98253,,0,8,8,38,1,1a,38,1,1,
,,,,,,,,,,,,,,,,,,,,,,,,,,images/exp1a_trial_53_colour3_distractors19_r.png,r,2,003,001,2021-04-11_15h08.31.668,searchDisc4,2020.2.10,Win32,60,,,space,0.23089,2,1,0.50746,,0,9,9,53,1,1a,53,3,19,
,,,,,,,,,,,,,,,,,,,,,,,,,,images/exp2b_trial_7_colour2_distractors4_r.png,r,2,003,001,2021-04-11_15h08.31.668,searchDisc4,2020.2.10,Win32,60,,,space,0.21893,2,1,0.60227,,0,10,10,349,1,2b,7,2,4,
,,,,,,,,,,,,,,,,,,,,,,,,,,images/exp1b_trial_36_colour0_distractors0_r.png,r,2,003,001,2021-04-11_15h08.31.668,searchDisc4,2020.2.10,Win32,60,,,space,0.20142,2,1,1.05093,,0,11,11,150,1,1b,36,0,0,
,,,,,,,,,,,,,,,,,,,,,,,,,,images/exp1b_trial_103_colour2_distractors19_l.png,l,1,003,001,2021-04-11_15h08.31.668,searchDisc4,2020.2.10,Win32,60,,,space,0.21979,1,1,1.73348,,0,12,12,217,1,1b,103,2,19,
,,,,,,,,,,,,,,,,,,,,,,,,,,images/exp2c_trial_3_colour1_distractors19_r.png,r,2,003,001,2021-04-11_15h08.31.668,searchDisc4,2020.2.10,Win32,60,,,space,0.230975,2,1,0.64507,,0,13,13,459,1,2c,3,1,19,
,,,,,,,,,,,,,,,,,,,,,,,,,,images/exp1a_trial_10_colour2_distractors31_r.png,r,2,003,001,2021-04-11_15h08.31.668,searchDisc4,2020.2.10,Win32,60,,,space,0.192445,2,1,1.63657,,0,14,14,10,1,1a,10,2,31,
,,,,,,,,,,,,,,,,,,,,,,,,,,images/exp1a_trial_100_colour2_distractors1_l.png,l,1,003,001,2021-04-11_15h08.31.668,searchDisc4,2020.2.10,Win32,60,,,space,0.225535,1,1,0.87056,,0,15,15,100,1,1a,100,2,1,
,,,,,,,,,,,,,,,,,,,,,,,,,,images/exp1b_trial_88_colour3_distractors1_r.png,r,2,003,001,2021-04-11_15h08.31.668,searchDisc4,2020.2.10,Win32,60,,,space,0.211605,2,1,0.634425,,0,16,16,202,1,1b,88,3,1,
,,,,,,,,,,,,,,,,,,,,,,,,,,images/exp2c_trial_20_colour1_distractors9_l.png,l,1,003,001,2021-04-11_15h08.31.668,searchDisc4,2020.2.10,Win32,60,,,space,0.20604,1,1,0.55316,,0,17,17,476,1,2c,20,1,9,
,,,,,,,,,,,,,,,,,,,,,,,,,,images/exp1a_trial_54_colour3_distractors31_r.png,r,2,003,001,2021-04-11_15h08.31.668,searchDisc4,2020.2.10,Win32,60,,,space,0.23617,2,1,0.61254,,0,18,18,54,1,1a,54,3,31,
,,,,,,,,,,,,,,,,,,,,,,,,,,images/exp2a_trial_94_colour1_distractors1_l.png,l,1,003,001,2021-04-11_15h08.31.668,searchDisc4,2020.2.10,Win32,60,,,space,0.21748,1,1,0.517265,,0,19,19,322,1,2a,94,1,1,
,,,,,,,,,,,,,,,,,,,,,,,,,,images/exp2b_trial_82_colour2_distractors1_r.png,r,2,003,001,2021-04-11_15h08.31.668,searchDisc4,2020.2.10,Win32,60,,,space,0.17753,2,1,0.439285,,0,20,20,424,1,2b,82,2,1,
,,,,,,,,,,,,,,,,,,,,,,,,,,images/exp1a_trial_41_colour1_distractors19_r.png,r,2,003,001,2021-04-11_15h08.31.668,searchDisc4,2020.2.10,Win32,60,,,space,0.157835,2,1,0.522615,,0,21,21,41,1,1a,41,1,19,
,,,,,,,,,,,,,,,,,,,,,,,,,,images/exp2a_trial_29_colour2_distractors43_l.png,l,1,003,001,2021-04-11_15h08.31.668,searchDisc4,2020.2.10,Win32,60,,,space,0.126795,1,1,0.55214,,0,22,22,257,1,2a,29,2,43,
,,,,,,,,,,,,,,,,,,,,,,,,,,images/exp2b_trial_47_colour2_distractors19_r.png,r,2,003,001,2021-04-11_15h08.31.668,searchDisc4,2020.2.10,Win32,60,,,space,0.24469,2,1,0.662165,,0,23,23,389,1,2b,47,2,19,
,,,,,,,,,,,,,,,,,,,,,,,,,,images/exp2b_trial_93_colour3_distractors43_r.png,r,2,003,001,2021-04-11_15h08.31.668,searchDisc4,2020.2.10,Win32,60,,,space,0.146055,2,1,1.434325,,0,24,24,435,1,2b,93,3,43,
,,,,,,,,,,,,,,,,,,,,,,,,,,images/exp2b_trial_89_colour3_distractors4_r.png,r,2,003,001,2021-04-11_15h08.31.668,searchDisc4,2020.2.10,Win32,60,,,space,0.19256,2,1,0.58659,,0,25,25,431,1,2b,89,3,4,
,,,,,,,,,,,,,,,,,,,,,,,,,,images/exp2a_trial_8_colour2_distractors9_r.png,r,2,003,001,2021-04-11_15h08.31.668,searchDisc4,2020.2.10,Win32,60,,,space,0.174185,2,1,0.483545,,0,26,26,236,1,2a,8,2,9,
,,,,,,,,,,,,,,,,,,,,,,,,,,images/exp2a_trial_0_colour1_distractors1_r.png,r,2,003,001,2021-04-11_15h08.31.668,searchDisc4,2020.2.10,Win32,60,,,space,0.13691,2,1,0.54271,,0,27,27,228,1,2a,0,1,1,
,,,,,,,,,,,,,,,,,,,,,,,,,,images/exp2c_trial_42_colour1_distractors31_r.png,r,2,003,001,2021-04-11_15h08.31.668,searchDisc4,2020.2.10,Win32,60,,,space,0.1225,2,1,0.656705,,0,28,28,498,1,2c,42,1,31,
,,,,,,,,,,,,,,,,,,,,,,,,,,images/exp1b_trial_45_colour2_distractors4_r.png,r,2,003,001,2021-04-11_15h08.31.668,searchDisc4,2020.2.10,Win32,60,,,space,0.130365,2,1,1.03112,,0,29,29,159,1,1b,45,2,4,
,,,,,,,,,,,,,,,,,,,,,,,,,,images/exp1a_trial_104_colour2_distractors31_l.png,l,1,003,001,2021-04-11_15h08.31.668,searchDisc4,2020.2.10,Win32,60,,,space,0.21184,1,1,0.65694,,0,30,30,104,1,1a,104,2,31,
,,,,,,,,,,,,,,,,,,,,,,,,,,images/exp2c_trial_110_colour3_distractors31_l.png,l,1,003,001,2021-04-11_15h08.31.668,searchDisc4,2020.2.10,Win32,60,,,space,0.21332,1,1,0.60226,,0,31,31,566,1,2c,110,3,31,
,,,,,,,,,,,,,,,,,,,,,,,,,,images/exp1a_trial_88_colour3_distractors1_r.png,r,2,003,001,2021-04-11_15h08.31.668,searchDisc4,2020.2.10,Win32,60,,,space,0.25011,2,1,0.619745,,0,32,32,88,1,1a,88,3,1,
,,,,,,,,,,,,,,,,,,,,,,,,,,images/exp2c_trial_65_colour2_distractors19_l.png,l,1,003,001,2021-04-11_15h08.31.668,searchDisc4,2020.2.10,Win32,60,,,space,0.26669,1,1,0.560225,,0,33,33,521,1,2c,65,2,19,
,,,,,,,,,,,,,,,,,,,,,,,,,,images/exp2a_trial_5_colour1_distractors43_r.png,r,2,003,001,2021-04-11_15h08.31.668,searchDisc4,2020.2.10,Win32,60,,,space,0.27064,2,1,0.730045,,0,34,34,233,1,2a,5,1,43,
,,,,,,,,,,,,,,,,,,,,,,,,,,images/exp2b_trial_43_colour1_distractors43_r.png,r,2,003,001,2021-04-11_15h08.31.668,searchDisc4,2020.2.10,Win32,60,,,space,0.25131,2,1,0.53536,,0,35,35,385,1,2b,43,1,43,
,,,,,,,,,,,,,,,,,,,,,,,,,,images/exp2b_trial_73_colour3_distractors43_l.png,l,1,003,001,2021-04-11_15h08.31.668,searchDisc4,2020.2.10,Win32,60,,,space,0.15766,1,1,0.85584,,0,36,36,415,1,2b,73,3,43,
,,,,,,,,,,,,,,,,,,,,,,,,,,images/exp2b_trial_112_colour0_distractors0_r.png,r,2,003,001,2021-04-11_15h08.31.668,searchDisc4,2020.2.10,Win32,60,,,space,0.203465,2,1,0.66053,,0,37,37,454,1,2b,112,0,0,
,,,,,,,,,,,,,,,,,,,,,,,,,,images/exp2b_trial_5_colour1_distractors43_r.png,r,2,003,001,2021-04-11_15h08.31.668,searchDisc4,2020.2.10,Win32,60,,,space,0.17948,2,1,0.63716,,0,38,38,347,1,2b,5,1,43,
,,,,,,,,,,,,,,,,,,,,,,,,,,images/exp2c_trial_99_colour1_distractors43_l.png,l,1,003,001,2021-04-11_15h08.31.668,searchDisc4,2020.2.10,Win32,60,,,space,0.140415,1,1,0.552295,,0,39,39,555,1,2c,99,1,43,
,,,,,,,,,,,,,,,,,,,,,,,,,,images/exp2c_trial_4_colour1_distractors31_r.png,r,2,003,001,2021-04-11_15h08.31.668,searchDisc4,2020.2.10,Win32,60,,,space,0.224785,2,1,0.594595,,0,40,40,460,1,2c,4,1,31,
,,,,,,,,,,,,,,,,,,,,,,,,,,images/exp1a_trial_79_colour1_distractors19_r.png,r,2,003,001,2021-04-11_15h08.31.668,searchDisc4,2020.2.10,Win32,60,,,space,0.140705,2,1,0.558435,,0,41,41,79,1,1a,79,1,19,
,,,,,,,,,,,,,,,,,,,,,,,,,,images/exp2c_trial_61_colour1_distractors43_l.png,l,1,003,001,2021-04-11_15h08.31.668,searchDisc4,2020.2.10,Win32,60,,,space,0.11024,1,1,0.541975,,0,42,42,517,1,2c,61,1,43,
,,,,,,,,,,,,,,,,,,,,,,,,,,images/exp2b_trial_28_colour2_distractors31_l.png,l,1,003,001,2021-04-11_15h08.31.668,searchDisc4,2020.2.10,Win32,60,,,space,0.390345,1,1,0.708095,,0,43,43,370,1,2b,28,2,31,
,,,,,,,,,,,,,,,,,,,,,,,,,,images/exp1a_trial_76_colour1_distractors1_r.png,r,2,003,001,2021-04-11_15h08.31.668,searchDisc4,2020.2.10,Win32,60,,,space,0.24148,2,1,0.552295,,0,44,44,76,1,1a,76,1,1,
,,,,,,,,,,,,,,,,,,,,,,,,,,images/exp2b_trial_109_colour3_distractors19_l.png,l,1,003,001,2021-04-11_15h08.31.668,searchDisc4,2020.2.10,Win32,60,,,space,0.26359,1,1,0.5643,,0,45,45,451,1,2b,109,3,19,
,,,,,,,,,,,,,,,,,,,,,,,,,,images/exp2c_trial_96_colour1_distractors9_l.png,l,1,003,001,2021-04-11_15h08.31.668,searchDisc4,2020.2.10,Win32,60,,,space,0.277025,1,1,0.549535,,0,46,46,552,1,2c,96,1,9,
,,,,,,,,,,,,,,,,,,,,,,,,,,images/exp2c_trial_36_colour0_distractors0_r.png,r,2,003,001,2021-04-11_15h08.31.668,searchDisc4,2020.2.10,Win32,60,,,space,0.23019,2,1,0.546115,,0,47,47,492,1,2c,36,0,0,
,,,,,,,,,,,,,,,,,,,,,,,,,,images/exp2a_trial_64_colour2_distractors9_l.png,l,1,003,001,2021-04-11_15h08.31.668,searchDisc4,2020.2.10,Win32,60,,,space,0.262055,1,1,0.44875,,0,48,48,292,1,2a,64,2,9,
,,,,,,,,,,,,,,,,,,,,,,,,,,images/exp1b_trial_76_colour1_distractors1_r.png,r,2,003,001,2021-04-11_15h08.31.668,searchDisc4,2020.2.10,Win32,60,,,space,0.233895,2,1,0.876715,,0,49,49,190,1,1b,76,1,1,
,,,,,,,,,,,,,,,,,,,,,,,,,,images/exp2c_trial_39_colour1_distractors4_r.png,r,2,003,001,2021-04-11_15h08.31.668,searchDisc4,2020.2.10,Win32,60,,,space,0.235235,2,1,0.538325,,0,50,50,495,1,2c,39,1,4,
,,,,,,,,,,,,,,,,,,,,,,,,,,images/exp2a_trial_65_colour2_distractors19_l.png,l,1,003,001,2021-04-11_15h08.31.668,searchDisc4,2020.2.10,Win32,60,,,space,0.19536,1,1,0.563805,,0,51,51,293,1,2a,65,2,19,
,,,,,,,,,,,,,,,,,,,,,,,,,,images/exp1a_trial_78_colour1_distractors9_r.png,r,2,003,001,2021-04-11_15h08.31.668,searchDisc4,2020.2.10,Win32,60,,,space,0.19952,2,1,0.572465,,0,52,52,78,1,1a,78,1,9,
,,,,,,,,,,,,,,,,,,,,,,,,,,images/exp2b_trial_51_colour3_distractors4_r.png,r,2,003,001,2021-04-11_15h08.31.668,searchDisc4,2020.2.10,Win32,60,,,space,0.18425,2,1,0.720255,,0,53,53,393,1,2b,51,3,4,
,,,,,,,,,,,,,,,,,,,,,,,,,,images/exp1b_trial_68_colour3_distractors1_l.png,l,1,003,001,2021-04-11_15h08.31.668,searchDisc4,2020.2.10,Win32,60,,,space,0.17408,1,1,0.784005,,0,54,54,182,1,1b,68,3,1,
,,,,,,,,,,,,,,,,,,,,,,,,,,images/exp2b_trial_17_colour3_distractors43_r.png,r,2,003,001,2021-04-11_15h08.31.668,searchDisc4,2020.2.10,Win32,60,,,space,0.21079,2,1,0.608005,,0,55,55,359,1,2b,17,3,43,
,,,,,,,,,,,,,,,,,,,,,,,,,,images/exp2b_trial_8_colour2_distractors9_r.png,r,2,003,001,2021-04-11_15h08.31.668,searchDisc4,2020.2.10,Win32,60,,,space,0.186385,2,1,0.91001,,0,56,56,350,1,2b,8,2,9,
,,,,,,,,,,,,,,,,,,,,,,,,,,images/exp2a_trial_85_colour2_distractors19_r.png,r,2,003,001,2021-04-11_15h08.31.668,searchDisc4,2020.2.10,Win32,60,,,space,0.18125,2,1,0.5974,,0,57,57,313,1,2a,85,2,19,
,,,,,,,,,,,,,,,,,,,,,,,,,,images/exp2a_trial_36_colour0_distractors0_r.png,r,2,003,001,2021-04-11_15h08.31.668,searchDisc4,2020.2.10,Win32,60,,,space,0.13703,2,1,0.4595,,0,58,58,264,1,2a,36,0,0,
,,,,,,,,,,,,,,,,,,,,,,,,,,images/exp1b_trial_0_colour1_distractors1_r.png,r,2,003,001,2021-04-11_15h08.31.668,searchDisc4,2020.2.10,Win32,60,,,space,0.11623,2,1,1.027025,space,0,59,59,114,1,1b,0,1,1,0.07763
,,,,,,,,,,,,,,,,,,,,,,,,,,images/exp1a_trial_91_colour3_distractors19_r.png,r,2,003,001,2021-04-11_15h08.31.668,searchDisc4,2020.2.10,Win32,60,,,space,3.032555,2,1,0.624215,,0,60,60,91,1,1a,91,3,19,
,,,,,,,,,,,,,,,,,,,,,,,,,,images/exp2c_trial_49_colour2_distractors43_r.png,r,2,003,001,2021-04-11_15h08.31.668,searchDisc4,2020.2.10,Win32,60,,,space,0.19025,2,1,0.59762,,0,61,61,505,1,2c,49,2,43,
,,,,,,,,,,,,,,,,,,,,,,,,,,images/exp1b_trial_107_colour3_distractors4_l.png,l,1,003,001,2021-04-11_15h08.31.668,searchDisc4,2020.2.10,Win32,60,,,space,0.509525,1,1,0.946985,,0,62,62,221,1,1b,107,3,4,
,,,,,,,,,,,,,,,,,,,,,,,,,,images/exp2a_trial_98_colour1_distractors31_l.png,l,1,003,001,2021-04-11_15h08.31.668,searchDisc4,2020.2.10,Win32,60,,,space,0.222405,1,1,0.93652,,0,63,63,326,1,2a,98,1,31,
,,,,,,,,,,,,,,,,,,,,,,,,,,images/exp2c_trial_6_colour2_distractors1_r.png,r,2,003,001,2021-04-11_15h08.31.668,searchDisc4,2020.2.10,Win32,60,,,space,0.308695,2,1,0.486405,,0,64,64,462,1,2c,6,2,1,
,,,,,,,,,,,,,,,,,,,,,,,,,,images/exp2a_trial_105_colour2_distractors43_l.png,l,1,003,001,2021-04-11_15h08.31.668,searchDisc4,2020.2.10,Win32,60,,,space,0.19979,1,1,0.606245,,0,65,65,333,1,2a,105,2,43,
,,,,,,,,,,,,,,,,,,,,,,,,,,images/exp2b_trial_46_colour2_distractors9_r.png,r,2,003,001,2021-04-11_15h08.31.668,searchDisc4,2020.2.10,Win32,60,,,space,0.23662,2,1,0.61905,,0,66,66,388,1,2b,46,2,9,
,,,,,,,,,,,,,,,,,,,,,,,,,,images/exp2a_trial_54_colour3_distractors31_r.png,r,2,003,001,2021-04-11_15h08.31.668,searchDisc4,2020.2.10,Win32,60,,,space,0.18626,2,1,0.43313,,0,67,67,282,1,2a,54,3,31,
,,,,,,,,,,,,,,,,,,,,,,,,,,images/exp1b_trial_4_colour1_distractors31_r.png,r,2,003,001,2021-04-11_15h08.31.668,searchDisc4,2020.2.10,Win32,60,,,space,0.196075,2,1,0.835365,,0,68,68,118,1,1b,4,1,31,
,,,,,,,,,,,,,,,,,,,,,,,,,,images/exp2c_trial_68_colour3_distractors1_l.png,l,1,003,001,2021-04-11_15h08.31.668,searchDisc4,2020.2.10,Win32,60,,,space,0.24336,1,1,0.667215,,0,69,69,524,1,2c,68,3,1,
,,,,,,,,,,,,,,,,,,,,,,,,,,images/exp2b_trial_27_colour2_distractors19_l.png,l,1,003,001,2021-04-11_15h08.31.668,searchDisc4,2020.2.10,Win32,60,,,space,0.20429,1,1,0.640145,,0,70,70,369,1,2b,27,2,19,
,,,,,,,,,,,,,,,,,,,,,,,,,,images/exp1a_trial_23_colour1_distractors43_l.png,l,1,003,001,2021-04-11_15h08.31.668,searchDisc4,2020.2.10,Win32,60,,,space,0.188255,1,1,0.562265,,0,71,71,23,1,1a,23,1,43,
,,,,,,,,,,,,,,,,,,,,,,,,,,images/exp2b_trial_108_colour3_distractors9_l.png,l,1,003,001,2021-04-11_15h08.31.668,searchDisc4,2020.2.10,Win32,60,,,space,0.197635,1,1,0.494695,,0,72,72,450,1,2b,108,3,9,
,,,,,,,,,,,,,,,,,,,,,,,,,,images/exp2c_trial_7_colour2_distractors4_r.png,r,2,003,001,2021-04-11_15h08.31.668,searchDisc4,2020.2.10,Win32,60,,,space,0.200025,2,1,0.524765,,0,73,73,463,1,2c,7,2,4,
,,,,,,,,,,,,,,,,,,,,,,,,,,images/exp2b_trial_62_colour2_distractors1_l.png,l,1,003,001,2021-04-11_15h08.31.668,searchDisc4,2020.2.10,Win32,60,,,space,0.199075,1,1,0.781365,,0,74,74,404,1,2b,62,2,1,
,,,,,,,,,,,,,,,,,,,,,,,,,,images/exp2b_trial_79_colour1_distractors19_r.png,r,2,003,001,2021-04-11_15h08.31.668,searchDisc4,2020.2.10,Win32,60,,,space,0.236245,2,1,0.670945,,0,75,75,421,1,2b,79,1,19,
,,,,,,,,,,,,,,,,,,,,,,,,,,images/exp1a_trial_2_colour1_distractors9_r.png,r,2,003,001,2021-04-11_15h08.31.668,searchDisc4,2020.2.10,Win32,60,,,space,0.19376,2,1,0.443945,,0,76,76,2,1,1a,2,1,9,
,,,,,,,,,,,,,,,,,,,,,,,,,,images/exp2c_trial_27_colour2_distractors19_l.png,l,1,003,001,2021-04-11_15h08.31.668,searchDisc4,2020.2.10,Win32,60,,,space,0.13816,1,1,0.6009,,0,77,77,483,1,2c,27,2,19,
,,,,,,,,,,,,,,,,,,,,,,,,,,images/exp1a_trial_62_colour2_distractors1_l.png,l,1,003,001,2021-04-11_15h08.31.668,searchDisc4,2020.2.10,Win32,60,,,space,0.17244,1,1,0.480615,,0,78,78,62,1,1a,62,2,1,
,,,,,,,,,,,,,,,,,,,,,,,,,,images/exp1b_trial_113_colour0_distractors0_l.png,l,1,003,001,2021-04-11_15h08.31.668,searchDisc4,2020.2.10,Win32,60,,,space,0.119725,1,1,0.553035,,0,79,79,227,1,1b,113,0,0,
,,,,,,,,,,,,,,,,,,,,,,,,,,images/exp1a_trial_0_colour1_distractors1_r.png,r,2,003,001,2021-04-11_15h08.31.668,searchDisc4,2020.2.10,Win32,60,,,space,0.138945,1,0,0.437175,,0,80,80,0,1,1a,0,1,1,
,,,,,,,,,,,,,,,,,,,,,,,,,,images/exp2c_trial_106_colour3_distractors1_l.png,l,1,003,001,2021-04-11_15h08.31.668,searchDisc4,2020.2.10,Win32,60,,,space,0.555315,1,1,1.23761,,0,81,81,562,1,2c,106,3,1,
,,,,,,,,,,,,,,,,,,,,,,,,,,images/exp1a_trial_81_colour1_distractors43_r.png,r,2,003,001,2021-04-11_15h08.31.668,searchDisc4,2020.2.10,Win32,60,,,space,0.326045,2,1,0.73936,,0,82,82,81,1,1a,81,1,43,
,,,,,,,,,,,,,,,,,,,,,,,,,,images/exp2b_trial_63_colour2_distractors4_l.png,l,1,003,001,2021-04-11_15h08.31.668,searchDisc4,2020.2.10,Win32,60,,,space,0.203365,1,1,0.503395,,0,83,83,405,1,2b,63,2,4,
,,,,,,,,,,,,,,,,,,,,,,,,,,images/exp2c_trial_45_colour2_distractors4_r.png,r,2,003,001,2021-04-11_15h08.31.668,searchDisc4,2020.2.10,Win32,60,,,space,0.192275,2,1,0.684655,,0,84,84,501,1,2c,45,2,4,
,,,,,,,,,,,,,,,,,,,,,,,,,,images/exp2b_trial_77_colour1_distractors4_r.png,r,2,003,001,2021-04-11_15h08.31.668,searchDisc4,2020.2.10,Win32,60,,,space,0.188385,2,1,0.575395,,0,85,85,419,1,2b,77,1,4,
,,,,,,,,,,,,,,,,,,,,,,,,,,images/exp2c_trial_67_colour2_distractors43_l.png,l,1,003,001,2021-04-11_15h08.31.668,searchDisc4,2020.2.10,Win32,60,,,space,0.15862,1,1,0.909145,,0,86,86,523,1,2c,67,2,43,
,,,,,,,,,,,,,,,,,,,,,,,,,,images/exp1a_trial_68_colour3_distractors1_l.png,l,1,003,001,2021-04-11_15h08.31.668,searchDisc4,2020.2.10,Win32,60,,,space,0.13294,1,1,0.467275,,0,87,87,68,1,1a,68,3,1,
,,,,,,,,,,,,,,,,,,,,,,,,,,images/exp1b_trial_93_colour3_distractors43_r.png,r,2,003,001,2021-04-11_15h08.31.668,searchDisc4,2020.2.10,Win32,60,,,space,0.109315,2,1,2.33707,,0,88,88,207,1,1b,93,3,43,
,,,,,,,,,,,,,,,,,,,,,,,,,,images/exp2a_trial_21_colour1_distractors19_l.png,l,1,003,001,2021-04-11_15h08.31.668,searchDisc4,2020.2.10,Win32,60,,,space,0.31088,1,1,0.692225,,0,89,89,249,1,2a,21,1,19,
,,,,,,,,,,,,,,,,,,,,,,,,,,images/exp2a_trial_31_colour3_distractors4_l.png,l,1,003,001,2021-04-11_15h08.31.668,searchDisc4,2020.2.10,Win32,60,,,space,0.15586,1,1,0.54488,,0,90,90,259,1,2a,31,3,4,
,,,,,,,,,,,,,,,,,,,,,,,,,,images/exp2a_trial_83_colour2_distractors4_r.png,r,2,003,001,2021-04-11_15h08.31.668,searchDisc4,2020.2.10,Win32,60,,,space,0.09373,2,1,0.677,,0,91,91,311,1,2a,83,2,4,
,,,,,,,,,,,,,,,,,,,,,,,,,,images/exp1b_trial_62_colour2_distractors1_l.png,l,1,003,001,2021-04-11_15h08.31.668,searchDisc4,2020.2.10,Win32,60,,,space,0.107375,1,1,0.80578,,0,92,92,176,1,1b,62,2,1,
,,,,,,,,,,,,,,,,,,,,,,,,,,images/exp1a_trial_43_colour1_distractors43_r.png,r,2,003,001,2021-04-11_15h08.31.668,searchDisc4,2020.2.10,Win32,60,,,space,0.10667,2,1,0.766295,,0,93,93,43,1,1a,43,1,43,
,,,,,,,,,,,,,,,,,,,,,,,,,,images/exp1b_trial_49_colour2_distractors43_r.png,r,2,003,001,2021-04-11_15h08.31.668,searchDisc4,2020.2.10,Win32,60,,,space,0.09603,2,1,1.12227,,0,94,94,163,1,1b,49,2,43,
,,,,,,,,,,,,,,,,,,,,,,,,,,images/exp2a_trial_86_colour2_distractors31_r.png,r,2,003,001,2021-04-11_15h08.31.668,searchDisc4,2020.2.10,Win32,60,,,space,0.079345,2,1,0.604915,,0,95,95,314,1,2a,86,2,31,
,,,,,,,,,,,,,,,,,,,,,,,,,,images/exp2a_trial_100_colour2_distractors1_l.png,l,1,003,001,2021-04-11_15h08.31.668,searchDisc4,2020.2.10,Win32,60,,,space,0.07516,1,1,0.591925,,0,96,96,328,1,2a,100,2,1,
,,,,,,,,,,,,,,,,,,,,,,,,,,images/exp2a_trial_82_colour2_distractors1_r.png,r,2,003,001,2021-04-11_15h08.31.668,searchDisc4,2020.2.10,Win32,60,,,space,0.06724,2,1,0.83564,,0,97,97,310,1,2a,82,2,1,
,,,,,,,,,,,,,,,,,,,,,,,,,,images/exp2a_trial_44_colour2_distractors1_r.png,r,2,003,001,2021-04-11_15h08.31.668,searchDisc4,2020.2.10,Win32,60,,,space,0.095895,2,1,0.638335,,0,98,98,272,1,2a,44,2,1,
,,,,,,,,,,,,,,,,,,,,,,,,,,images/exp2c_trial_58_colour1_distractors9_l.png,l,1,003,001,2021-04-11_15h08.31.668,searchDisc4,2020.2.10,Win32,60,,,space,0.067945,1,1,0.6896,,0,99,99,514,1,2c,58,1,9,
,,,,,,,,,,,,,,,,,,,,,,,,,,images/exp2b_trial_15_colour3_distractors19_r.png,r,2,003,001,2021-04-11_15h08.31.668,searchDisc4,2020.2.10,Win32,60,,,space,0.05082,2,1,0.885255,,0,100,100,357,1,2b,15,3,19,
,,,,,,,,,,,,,,,,,,,,,,,,,,images/exp1a_trial_59_colour1_distractors19_l.png,l,1,003,001,2021-04-11_15h08.31.668,searchDisc4,2020.2.10,Win32,60,,,space,0.02474,1,1,0.756665,,0,101,101,59,1,1a,59,1,19,
,,,,,,,,,,,,,,,,,,,,,,,,,,images/exp2b_trial_59_colour1_distractors19_l.png,l,1,003,001,2021-04-11_15h08.31.668,searchDisc4,2020.2.10,Win32,60,,,space,0.062045,1,1,0.702385,,0,102,102,401,1,2b,59,1,19,
,,,,,,,,,,,,,,,,,,,,,,,,,,images/exp2c_trial_95_colour1_distractors4_l.png,l,1,003,001,2021-04-11_15h08.31.668,searchDisc4,2020.2.10,Win32,60,,,space,0.034885,1,1,0.634595,,0,103,103,551,1,2c,95,1,4,
,,,,,,,,,,,,,,,,,,,,,,,,,,images/exp2c_trial_76_colour1_distractors1_r.png,r,2,003,001,2021-04-11_15h08.31.668,searchDisc4,2020.2.10,Win32,60,,,space,0.991585,2,1,0.50389,,0,104,104,532,1,2c,76,1,1,
,,,,,,,,,,,,,,,,,,,,,,,,,,images/exp2b_trial_81_colour1_distractors43_r.png,r,2,003,001,2021-04-11_15h08.31.668,searchDisc4,2020.2.10,Win32,60,,,space,0.30655,2,1,0.940455,,0,105,105,423,1,2b,81,1,43,
,,,,,,,,,,,,,,,,,,,,,,,,,,images/exp2c_trial_13_colour3_distractors4_r.png,r,2,003,001,2021-04-11_15h08.31.668,searchDisc4,2020.2.10,Win32,60,,,space,0.202905,2,1,0.672015,,0,106,106,469,1,2c,13,3,4,
,,,,,,,,,,,,,,,,,,,,,,,,,,images/exp1b_trial_85_colour2_distractors19_r.png,r,2,003,001,2021-04-11_15h08.31.668,searchDisc4,2020.2.10,Win32,60,,,space,0.173765,2,1,1.01184,,0,107,107,199,1,1b,85,2,19,
,,,,,,,,,,,,,,,,,,,,,,,,,,images/exp2b_trial_74_colour0_distractors0_r.png,r,2,003,001,2021-04-11_15h08.31.668,searchDisc4,2020.2.10,Win32,60,,,space,0.19257,2,1,0.534765,,0,108,108,416,1,2b,74,0,0,
,,,,,,,,,,,,,,,,,,,,,,,,,,images/exp2b_trial_49_colour2_distractors43_r.png,r,2,003,001,2021-04-11_15h08.31.668,searchDisc4,2020.2.10,Win32,60,,,space,0.140895,2,1,0.521585,,0,109,109,391,1,2b,49,2,43,
,,,,,,,,,,,,,,,,,,,,,,,,,,images/exp1a_trial_51_colour3_distractors4_r.png,r,2,003,001,2021-04-11_15h08.31.668,searchDisc4,2020.2.10,Win32,60,,,space,0.13063,2,1,0.585015,,0,110,110,51,1,1a,51,3,4,
,,,,,,,,,,,,,,,,,,,,,,,,,,images/exp2a_trial_50_colour3_distractors1_r.png,r,2,003,001,2021-04-11_15h08.31.668,searchDisc4,2020.2.10,Win32,60,,,space,0.060995,2,1,0.412475,,0,111,111,278,1,2a,50,3,1,
,,,,,,,,,,,,,,,,,,,,,,,,,,images/exp1a_trial_16_colour3_distractors31_r.png,r,2,003,001,2021-04-11_15h08.31.668,searchDisc4,2020.2.10,Win32,60,,,space,0.0557,2,1,0.62951,,0,112,112,16,1,1a,16,3,31,
,,,,,,,,,,,,,,,,,,,,,,,,,,images/exp2c_trial_28_colour2_distractors31_l.png,l,1,003,001,2021-04-11_15h08.31.668,searchDisc4,2020.2.10,Win32,60,,,space,0.06968,1,1,0.89992,,0,113,113,484,1,2c,28,2,31,
,,,,,,,,,,,,,,,,,,,,,,,,,,images/exp2b_trial_6_colour2_distractors1_r.png,r,2,003,001,2021-04-11_15h08.31.668,searchDisc4,2020.2.10,Win32,60,,,space,0.06988,2,1,0.68242,,0,114,114,348,1,2b,6,2,1,
,,,,,,,,,,,,,,,,,,,,,,,,,,images/exp1a_trial_71_colour3_distractors19_l.png,l,1,003,001,2021-04-11_15h08.31.668,searchDisc4,2020.2.10,Win32,60,,,space,0.06416,1,1,0.680595,,0,115,115,71,1,1a,71,3,19,
,,,,,,,,,,,,,,,,,,,,,,,,,,images/exp2b_trial_104_colour2_distractors31_l.png,l,1,003,001,2021-04-11_15h08.31.668,searchDisc4,2020.2.10,Win32,60,,,space,0.06997,1,1,0.89729,,0,116,116,446,1,2b,104,2,31,
,,,,,,,,,,,,,,,,,,,,,,,,,,images/exp1b_trial_58_colour1_distractors9_l.png,l,1,003,001,2021-04-11_15h08.31.668,searchDisc4,2020.2.10,Win32,60,,,space,0.041515,1,1,1.10853,,0,117,117,172,1,1b,58,1,9,
,,,,,,,,,,,,,,,,,,,,,,,,,,images/exp2c_trial_25_colour2_distractors4_l.png,l,1,003,001,2021-04-11_15h08.31.668,searchDisc4,2020.2.10,Win32,60,,,space,0.08814,1,1,0.509905,,0,118,118,481,1,2c,25,2,4,
,,,,,,,,,,,,,,,,,,,,,,,,,,images/exp2a_trial_57_colour1_distractors4_l.png,l,1,003,001,2021-04-11_15h08.31.668,searchDisc4,2020.2.10,Win32,60,,,space,0.06919,1,1,0.55972,space,0,119,119,285,1,2a,57,1,4,0.042285
,,,,,,,,,,,,,,,,,,,,,,,,,,images/exp2a_trial_79_colour1_distractors19_r.png,r,2,003,001,2021-04-11_15h08.31.668,searchDisc4,2020.2.10,Win32,60,,,space,1.274465,2,1,0.902585,,0,120,120,307,1,2a,79,1,19,
,,,,,,,,,,,,,,,,,,,,,,,,,,images/exp2a_trial_111_colour3_distractors43_l.png,l,1,003,001,2021-04-11_15h08.31.668,searchDisc4,2020.2.10,Win32,60,,,space,0.075705,1,1,0.665065,,0,121,121,339,1,2a,111,3,43,
,,,,,,,,,,,,,,,,,,,,,,,,,,images/exp1b_trial_30_colour3_distractors1_l.png,l,1,003,001,2021-04-11_15h08.31.668,searchDisc4,2020.2.10,Win32,60,,,space,0.104515,1,1,0.70744,,0,122,122,144,1,1b,30,3,1,
,,,,,,,,,,,,,,,,,,,,,,,,,,images/exp2b_trial_97_colour1_distractors19_l.png,l,1,003,001,2021-04-11_15h08.31.668,searchDisc4,2020.2.10,Win32,60,,,space,0.13568,1,1,0.558915,,0,123,123,439,1,2b,97,1,19,
,,,,,,,,,,,,,,,,,,,,,,,,,,images/exp2a_trial_9_colour2_distractors19_r.png,r,2,003,001,2021-04-11_15h08.31.668,searchDisc4,2020.2.10,Win32,60,,,space,0.378185,2,1,0.54426,,0,124,124,237,1,2a,9,2,19,
,,,,,,,,,,,,,,,,,,,,,,,,,,images/exp1b_trial_9_colour2_distractors19_r.png,r,2,003,001,2021-04-11_15h08.31.668,searchDisc4,2020.2.10,Win32,60,,,space,0.243305,2,1,1.19858,,0,125,125,123,1,1b,9,2,19,
,,,,,,,,,,,,,,,,,,,,,,,,,,images/exp2b_trial_50_colour3_distractors1_r.png,r,2,003,001,2021-04-11_15h08.31.668,searchDisc4,2020.2.10,Win32,60,,,space,0.105655,2,1,0.76573,,0,126,126,392,1,2b,50,3,1,
,,,,,,,,,,,,,,,,,,,,,,,,,,images/exp1b_trial_35_colour3_distractors43_l.png,l,1,003,001,2021-04-11_15h08.31.668,searchDisc4,2020.2.10,Win32,60,,,space,0.089605,1,1,2.72775,,0,127,127,149,1,1b,35,3,43,
,,,,,,,,,,,,,,,,,,,,,,,,,,images/exp1a_trial_12_colour3_distractors1_r.png,r,2,003,001,2021-04-11_15h08.31.668,searchDisc4,2020.2.10,Win32,60,,,space,0.111235,2,1,0.896205,,0,128,128,12,1,1a,12,3,1,
,,,,,,,,,,,,,,,,,,,,,,,,,,images/exp2b_trial_23_colour1_distractors43_l.png,l,1,003,001,2021-04-11_15h08.31.668,searchDisc4,2020.2.10,Win32,60,,,space,0.113675,1,1,0.78717,,0,129,129,365,1,2b,23,1,43,
,,,,,,,,,,,,,,,,,,,,,,,,,,images/exp2a_trial_95_colour1_distractors4_l.png,l,1,003,001,2021-04-11_15h08.31.668,searchDisc4,2020.2.10,Win32,60,,,space,0.075675,1,1,0.66839,,0,130,130,323,1,2a,95,1,4,
,,,,,,,,,,,,,,,,,,,,,,,,,,images/exp2b_trial_38_colour1_distractors1_r.png,r,2,003,001,2021-04-11_15h08.31.668,searchDisc4,2020.2.10,Win32,60,,,space,0.10873,2,1,0.611495,,0,131,131,380,1,2b,38,1,1,
,,,,,,,,,,,,,,,,,,,,,,,,,,images/exp2b_trial_19_colour1_distractors4_l.png,l,1,003,001,2021-04-11_15h08.31.668,searchDisc4,2020.2.10,Win32,60,,,space,0.05592,1,1,0.597655,,0,132,132,361,1,2b,19,1,4,
,,,,,,,,,,,,,,,,,,,,,,,,,,images/exp2c_trial_104_colour2_distractors31_l.png,l,1,003,001,2021-04-11_15h08.31.668,searchDisc4,2020.2.10,Win32,60,,,space,0.058355,1,1,0.74233,,0,133,133,560,1,2c,104,2,31,
,,,,,,,,,,,,,,,,,,,,,,,,,,images/exp1a_trial_56_colour1_distractors1_l.png,l,1,003,001,2021-04-11_15h08.31.668,searchDisc4,2020.2.10,Win32,60,,,space,0.08905,1,1,0.57584,,0,134,134,56,1,1a,56,1,1,
,,,,,,,,,,,,,,,,,,,,,,,,,,images/exp1b_trial_71_colour3_distractors19_l.png,l,1,003,001,2021-04-11_15h08.31.668,searchDisc4,2020.2.10,Win32,60,,,space,0.084995,1,1,1.400305,,0,135,135,185,1,1b,71,3,19,
,,,,,,,,,,,,,,,,,,,,,,,,,,images/exp1b_trial_61_colour1_distractors43_l.png,l,1,003,001,2021-04-11_15h08.31.668,searchDisc4,2020.2.10,Win32,60,,,space,0.076535,1,1,1.28387,,0,136,136,175,1,1b,61,1,43,
,,,,,,,,,,,,,,,,,,,,,,,,,,images/exp2a_trial_51_colour3_distractors4_r.png,r,2,003,001,2021-04-11_15h08.31.668,searchDisc4,2020.2.10,Win32,60,,,space,0.13658,2,1,0.652145,,0,137,137,279,1,2a,51,3,4,
,,,,,,,,,,,,,,,,,,,,,,,,,,images/exp1b_trial_109_colour3_distractors19_l.png,l,1,003,001,2021-04-11_15h08.31.668,searchDisc4,2020.2.10,Win32,60,,,space,0.102865,1,1,1.24155,,0,138,138,223,1,1b,109,3,19,
,,,,,,,,,,,,,,,,,,,,,,,,,,images/exp1a_trial_72_colour3_distractors31_l.png,l,1,003,001,2021-04-11_15h08.31.668,searchDisc4,2020.2.10,Win32,60,,,space,0.275525,1,1,0.54785,,0,139,139,72,1,1a,72,3,31,
,,,,,,,,,,,,,,,,,,,,,,,,,,images/exp1b_trial_39_colour1_distractors4_r.png,r,2,003,001,2021-04-11_15h08.31.668,searchDisc4,2020.2.10,Win32,60,,,space,0.119905,2,1,0.612615,,0,140,140,153,1,1b,39,1,4,
,,,,,,,,,,,,,,,,,,,,,,,,,,images/exp2c_trial_53_colour3_distractors19_r.png,r,2,003,001,2021-04-11_15h08.31.668,searchDisc4,2020.2.10,Win32,60,,,space,0.111615,2,1,0.86097,,0,141,141,509,1,2c,53,3,19,
,,,,,,,,,,,,,,,,,,,,,,,,,,images/exp2c_trial_87_colour2_distractors43_r.png,r,2,003,001,2021-04-11_15h08.31.668,searchDisc4,2020.2.10,Win32,60,,,space,0.11182,2,1,1.67139,,0,142,142,543,1,2c,87,2,43,
,,,,,,,,,,,,,,,,,,,,,,,,,,images/exp1a_trial_37_colour0_distractors0_l.png,l,1,003,001,2021-04-11_15h08.31.668,searchDisc4,2020.2.10,Win32,60,,,space,0.10463,1,1,0.591755,,0,143,143,37,1,1a,37,0,0,
,,,,,,,,,,,,,,,,,,,,,,,,,,images/exp2b_trial_9_colour2_distractors19_r.png,r,2,003,001,2021-04-11_15h08.31.668,searchDisc4,2020.2.10,Win32,60,,,space,0.188265,2,1,0.630825,,0,144,144,351,1,2b,9,2,19,
,,,,,,,,,,,,,,,,,,,,,,,,,,images/exp1b_trial_60_colour1_distractors31_l.png,l,1,003,001,2021-04-11_15h08.31.668,searchDisc4,2020.2.10,Win32,60,,,space,0.11762,1,1,0.72933,,0,145,145,174,1,1b,60,1,31,
,,,,,,,,,,,,,,,,,,,,,,,,,,images/exp1a_trial_21_colour1_distractors19_l.png,l,1,003,001,2021-04-11_15h08.31.668,searchDisc4,2020.2.10,Win32,60,,,space,0.077895,1,1,0.546645,,0,146,146,21,1,1a,21,1,19,
,,,,,,,,,,,,,,,,,,,,,,,,,,images/exp2a_trial_4_colour1_distractors31_r.png,r,2,003,001,2021-04-11_15h08.31.668,searchDisc4,2020.2.10,Win32,60,,,space,0.07744,2,1,0.763575,,0,147,147,232,1,2a,4,1,31,
,,,,,,,,,,,,,,,,,,,,,,,,,,images/exp1b_trial_111_colour3_distractors43_l.png,l,1,003,001,2021-04-11_15h08.31.668,searchDisc4,2020.2.10,Win32,60,,,space,0.06962,1,1,0.88876,,0,148,148,225,1,1b,111,3,43,
,,,,,,,,,,,,,,,,,,,,,,,,,,images/exp2b_trial_14_colour3_distractors9_r.png,r,2,003,001,2021-04-11_15h08.31.668,searchDisc4,2020.2.10,Win32,60,,,space,0.075425,2,1,0.86026,,0,149,149,356,1,2b,14,3,9,
,,,,,,,,,,,,,,,,,,,,,,,,,,images/exp2a_trial_1_colour1_distractors4_r.png,r,2,003,001,2021-04-11_15h08.31.668,searchDisc4,2020.2.10,Win32,60,,,space,0.09559,2,1,0.51139,,0,150,150,229,1,2a,1,1,4,
,,,,,,,,,,,,,,,,,,,,,,,,,,images/exp1b_trial_87_colour2_distractors43_r.png,r,2,003,001,2021-04-11_15h08.31.668,searchDisc4,2020.2.10,Win32,60,,,space,0.047495,2,1,0.785875,,0,151,151,201,1,1b,87,2,43,
,,,,,,,,,,,,,,,,,,,,,,,,,,images/exp2a_trial_112_colour0_distractors0_r.png,r,2,003,001,2021-04-11_15h08.31.668,searchDisc4,2020.2.10,Win32,60,,,space,0.050525,2,1,0.83968,,0,152,152,340,1,2a,112,0,0,
,,,,,,,,,,,,,,,,,,,,,,,,,,images/exp2b_trial_40_colour1_distractors9_r.png,r,2,003,001,2021-04-11_15h08.31.668,searchDisc4,2020.2.10,Win32,60,,,space,0.064475,2,1,0.58631,,0,153,153,382,1,2b,40,1,9,
,,,,,,,,,,,,,,,,,,,,,,,,,,images/exp2a_trial_11_colour2_distractors43_r.png,r,2,003,001,2021-04-11_15h08.31.668,searchDisc4,2020.2.10,Win32,60,,,space,0.0632,2,1,0.5188,,0,154,154,239,1,2a,11,2,43,
,,,,,,,,,,,,,,,,,,,,,,,,,,images/exp2b_trial_64_colour2_distractors9_l.png,l,1,003,001,2021-04-11_15h08.31.668,searchDisc4,2020.2.10,Win32,60,,,space,0.056325,1,1,0.86372,,0,155,155,406,1,2b,64,2,9,
,,,,,,,,,,,,,,,,,,,,,,,,,,images/exp1a_trial_89_colour3_distractors4_r.png,r,2,003,001,2021-04-11_15h08.31.668,searchDisc4,2020.2.10,Win32,60,,,space,0.125235,2,1,0.68216,,0,156,156,89,1,1a,89,3,4,
,,,,,,,,,,,,,,,,,,,,,,,,,,images/exp1a_trial_13_colour3_distractors4_r.png,r,2,003,001,2021-04-11_15h08.31.668,searchDisc4,2020.2.10,Win32,60,,,space,0.1553,2,1,0.620485,,0,157,157,13,1,1a,13,3,4,
,,,,,,,,,,,,,,,,,,,,,,,,,,images/exp2c_trial_72_colour3_distractors31_l.png,l,1,003,001,2021-04-11_15h08.31.668,searchDisc4,2020.2.10,Win32,60,,,space,0.21534,1,1,0.61238,,0,158,158,528,1,2c,72,3,31,
,,,,,,,,,,,,,,,,,,,,,,,,,,images/exp2a_trial_26_colour2_distractors9_l.png,l,1,003,001,2021-04-11_15h08.31.668,searchDisc4,2020.2.10,Win32,60,,,space,0.211115,1,1,0.415315,,0,159,159,254,1,2a,26,2,9,
,,,,,,,,,,,,,,,,,,,,,,,,,,images/exp1b_trial_75_colour0_distractors0_l.png,l,1,003,001,2021-04-11_15h08.31.668,searchDisc4,2020.2.10,Win32,60,,,space,0.258625,1,1,0.541375,,0,160,160,189,1,1b,75,0,0,
,,,,,,,,,,,,,,,,,,,,,,,,,,images/exp2b_trial_100_colour2_distractors1_l.png,l,1,003,001,2021-04-11_15h08.31.668,searchDisc4,2020.2.10,Win32,60,,,space,0.297305,1,1,0.596185,,0,161,161,442,1,2b,100,2,1,
,,,,,,,,,,,,,,,,,,,,,,,,,,images/exp2a_trial_93_colour3_distractors43_r.png,r,2,003,001,2021-04-11_15h08.31.668,searchDisc4,2020.2.10,Win32,60,,,space,0.18062,2,1,0.57436,,0,162,162,321,1,2a,93,3,43,
,,,,,,,,,,,,,,,,,,,,,,,,,,images/exp1a_trial_95_colour1_distractors4_l.png,l,1,003,001,2021-04-11_15h08.31.668,searchDisc4,2020.2.10,Win32,60,,,space,0.180825,1,1,0.681485,,0,163,163,95,1,1a,95,1,4,
,,,,,,,,,,,,,,,,,,,,,,,,,,images/exp2a_trial_73_colour3_distractors43_l.png,l,1,003,001,2021-04-11_15h08.31.668,searchDisc4,2020.2.10,Win32,60,,,space,0.1845,1,1,0.641145,,0,164,164,301,1,2a,73,3,43,
,,,,,,,,,,,,,,,,,,,,,,,,,,images/exp2a_trial_107_colour3_distractors4_l.png,l,1,003,001,2021-04-11_15h08.31.668,searchDisc4,2020.2.10,Win32,60,,,space,0.16216,1,1,0.457415,,0,165,165,335,1,2a,107,3,4,
,,,,,,,,,,,,,,,,,,,,,,,,,,images/exp1a_trial_39_colour1_distractors4_r.png,r,2,003,001,2021-04-11_15h08.31.668,searchDisc4,2020.2.10,Win32,60,,,space,0.16292,2,1,0.62634,,0,166,166,39,1,1a,39,1,4,
,,,,,,,,,,,,,,,,,,,,,,,,,,images/exp2b_trial_29_colour2_distractors43_l.png,l,1,003,001,2021-04-11_15h08.31.668,searchDisc4,2020.2.10,Win32,60,,,space,0.18832,1,1,0.544715,,0,167,167,371,1,2b,29,2,43,
,,,,,,,,,,,,,,,,,,,,,,,,,,images/exp2c_trial_77_colour1_distractors4_r.png,r,2,003,001,2021-04-11_15h08.31.668,searchDisc4,2020.2.10,Win32,60,,,space,0.205975,2,1,0.50535,,0,168,168,533,1,2c,77,1,4,
,,,,,,,,,,,,,,,,,,,,,,,,,,images/exp2b_trial_54_colour3_distractors31_r.png,r,2,003,001,2021-04-11_15h08.31.668,searchDisc4,2020.2.10,Win32,60,,,space,0.136985,2,1,0.87666,,0,169,169,396,1,2b,54,3,31,
,,,,,,,,,,,,,,,,,,,,,,,,,,images/exp1b_trial_14_colour3_distractors9_r.png,r,2,003,001,2021-04-11_15h08.31.668,searchDisc4,2020.2.10,Win32,60,,,space,0.15994,2,1,0.81936,,0,170,170,128,1,1b,14,3,9,
,,,,,,,,,,,,,,,,,,,,,,,,,,images/exp2c_trial_8_colour2_distractors9_r.png,r,2,003,001,2021-04-11_15h08.31.668,searchDisc4,2020.2.10,Win32,60,,,space,0.12532,2,1,0.66694,,0,171,171,464,1,2c,8,2,9,
,,,,,,,,,,,,,,,,,,,,,,,,,,images/exp1a_trial_27_colour2_distractors19_l.png,l,1,003,001,2021-04-11_15h08.31.668,searchDisc4,2020.2.10,Win32,60,,,space,0.15981,1,1,0.769455,,0,172,172,27,1,1a,27,2,19,
,,,,,,,,,,,,,,,,,,,,,,,,,,images/exp1a_trial_65_colour2_distractors19_l.png,l,1,003,001,2021-04-11_15h08.31.668,searchDisc4,2020.2.10,Win32,60,,,space,0.215805,1,1,0.77455,,0,173,173,65,1,1a,65,2,19,
,,,,,,,,,,,,,,,,,,,,,,,,,,images/exp2c_trial_1_colour1_distractors4_r.png,r,2,003,001,2021-04-11_15h08.31.668,searchDisc4,2020.2.10,Win32,60,,,space,0.06581,2,1,0.94465,,0,174,174,457,1,2c,1,1,4,
,,,,,,,,,,,,,,,,,,,,,,,,,,images/exp2c_trial_47_colour2_distractors19_r.png,r,2,003,001,2021-04-11_15h08.31.668,searchDisc4,2020.2.10,Win32,60,,,space,0.085335,2,1,0.969305,,0,175,175,503,1,2c,47,2,19,
,,,,,,,,,,,,,,,,,,,,,,,,,,images/exp2a_trial_74_colour0_distractors0_r.png,r,2,003,001,2021-04-11_15h08.31.668,searchDisc4,2020.2.10,Win32,60,,,space,0.32652,2,1,0.455735,,0,176,176,302,1,2a,74,0,0,
,,,,,,,,,,,,,,,,,,,,,,,,,,images/exp2a_trial_6_colour2_distractors1_r.png,r,2,003,001,2021-04-11_15h08.31.668,searchDisc4,2020.2.10,Win32,60,,,space,0.29863,2,1,0.37428,,0,177,177,234,1,2a,6,2,1,
,,,,,,,,,,,,,,,,,,,,,,,,,,images/exp1b_trial_8_colour2_distractors9_r.png,r,2,003,001,2021-04-11_15h08.31.668,searchDisc4,2020.2.10,Win32,60,,,space,0.31463,2,1,0.620275,,0,178,178,122,1,1b,8,2,9,
,,,,,,,,,,,,,,,,,,,,,,,,,,images/exp2c_trial_84_colour2_distractors9_r.png,r,2,003,001,2021-04-11_15h08.31.668,searchDisc4,2020.2.10,Win32,60,,,space,0.26635,2,1,0.86262,space,0,179,179,540,1,2c,84,2,9,0.24779
,,,,,,,,,,,,,,,,,,,,,,,,,,images/exp2b_trial_45_colour2_distractors4_r.png,r,2,003,001,2021-04-11_15h08.31.668,searchDisc4,2020.2.10,Win32,60,,,space,1.280245,2,1,0.535995,,0,180,180,387,1,2b,45,2,4,
,,,,,,,,,,,,,,,,,,,,,,,,,,images/exp1b_trial_78_colour1_distractors9_r.png,r,2,003,001,2021-04-11_15h08.31.668,searchDisc4,2020.2.10,Win32,60,,,space,0.158425,2,1,0.633235,,0,181,181,192,1,1b,78,1,9,
,,,,,,,,,,,,,,,,,,,,,,,,,,images/exp2a_trial_66_colour2_distractors31_l.png,l,1,003,001,2021-04-11_15h08.31.668,searchDisc4,2020.2.10,Win32,60,,,space,0.098095,1,1,0.64123,,0,182,182,294,1,2a,66,2,31,
,,,,,,,,,,,,,,,,,,,,,,,,,,images/exp2c_trial_50_colour3_distractors1_r.png,r,2,003,001,2021-04-11_15h08.31.668,searchDisc4,2020.2.10,Win32,60,,,space,0.12711,2,1,0.852795,,0,183,183,506,1,2c,50,3,1,
,,,,,,,,,,,,,,,,,,,,,,,,,,images/exp2c_trial_75_colour0_distractors0_l.png,l,1,003,001,2021-04-11_15h08.31.668,searchDisc4,2020.2.10,Win32,60,,,space,0.154375,1,1,0.54498,,0,184,184,531,1,2c,75,0,0,
,,,,,,,,,,,,,,,,,,,,,,,,,,images/exp2a_trial_89_colour3_distractors4_r.png,r,2,003,001,2021-04-11_15h08.31.668,searchDisc4,2020.2.10,Win32,60,,,space,0.11548,2,1,0.86105,,0,185,185,317,1,2a,89,3,4,
,,,,,,,,,,,,,,,,,,,,,,,,,,images/exp2a_trial_45_colour2_distractors4_r.png,r,2,003,001,2021-04-11_15h08.31.668,searchDisc4,2020.2.10,Win32,60,,,space,0.166045,2,1,0.86902,,0,186,186,273,1,2a,45,2,4,
,,,,,,,,,,,,,,,,,,,,,,,,,,images/exp1a_trial_61_colour1_distractors43_l.png,l,1,003,001,2021-04-11_15h08.31.668,searchDisc4,2020.2.10,Win32,60,,,space,0.13831,1,1,0.6003,,0,187,187,61,1,1a,61,1,43,
,,,,,,,,,,,,,,,,,,,,,,,,,,images/exp2a_trial_96_colour1_distractors9_l.png,l,1,003,001,2021-04-11_15h08.31.668,searchDisc4,2020.2.10,Win32,60,,,space,0.16692,1,1,0.601855,,0,188,188,324,1,2a,96,1,9,
,,,,,,,,,,,,,,,,,,,,,,,,,,images/exp1b_trial_92_colour3_distractors31_r.png,r,2,003,001,2021-04-11_15h08.31.668,searchDisc4,2020.2.10,Win32,60,,,space,0.239315,2,1,2.23837,,0,189,189,206,1,1b,92,3,31,
,,,,,,,,,,,,,,,,,,,,,,,,,,images/exp1b_trial_26_colour2_distractors9_l.png,l,1,003,001,2021-04-11_15h08.31.668,searchDisc4,2020.2.10,Win32,60,,,space,0.23651,1,1,0.83314,,0,190,190,140,1,1b,26,2,9,
,,,,,,,,,,,,,,,,,,,,,,,,,,images/exp2b_trial_88_colour3_distractors1_r.png,r,2,003,001,2021-04-11_15h08.31.668,searchDisc4,2020.2.10,Win32,60,,,space,0.170785,2,1,0.601115,,0,191,191,430,1,2b,88,3,1,
,,,,,,,,,,,,,,,,,,,,,,,,,,images/exp2b_trial_84_colour2_distractors9_r.png,r,2,003,001,2021-04-11_15h08.31.668,searchDisc4,2020.2.10,Win32,60,,,space,0.178575,2,1,0.62035,,0,192,192,426,1,2b,84,2,9,
,,,,,,,,,,,,,,,,,,,,,,,,,,images/exp2a_trial_61_colour1_distractors43_l.png,l,1,003,001,2021-04-11_15h08.31.668,searchDisc4,2020.2.10,Win32,60,,,space,0.138455,1,1,0.79727,,0,193,193,289,1,2a,61,1,43,
,,,,,,,,,,,,,,,,,,,,,,,,,,images/exp1b_trial_1_colour1_distractors4_r.png,r,2,003,001,2021-04-11_15h08.31.668,searchDisc4,2020.2.10,Win32,60,,,space,0.20857,2,1,0.77907,,0,194,194,115,1,1b,1,1,4,
,,,,,,,,,,,,,,,,,,,,,,,,,,images/exp1b_trial_64_colour2_distractors9_l.png,l,1,003,001,2021-04-11_15h08.31.668,searchDisc4,2020.2.10,Win32,60,,,space,0.16502,1,1,0.691715,,0,195,195,178,1,1b,64,2,9,
,,,,,,,,,,,,,,,,,,,,,,,,,,images/exp1b_trial_101_colour2_distractors4_l.png,l,1,003,001,2021-04-11_15h08.31.668,searchDisc4,2020.2.10,Win32,60,,,space,0.14719,1,1,0.606365,,0,196,196,215,1,1b,101,2,4,
,,,,,,,,,,,,,,,,,,,,,,,,,,images/exp1a_trial_57_colour1_distractors4_l.png,l,1,003,001,2021-04-11_15h08.31.668,searchDisc4,2020.2.10,Win32,60,,,space,0.110705,1,1,0.489585,,0,197,197,57,1,1a,57,1,4,
,,,,,,,,,,,,,,,,,,,,,,,,,,images/exp1b_trial_56_colour1_distractors1_l.png,l,1,003,001,2021-04-11_15h08.31.668,searchDisc4,2020.2.10,Win32,60,,,space,0.13735,1,1,0.52713,,0,198,198,170,1,1b,56,1,1,
,,,,,,,,,,,,,,,,,,,,,,,,,,images/exp1a_trial_6_colour2_distractors1_r.png,r,2,003,001,2021-04-11_15h08.31.668,searchDisc4,2020.2.10,Win32,60,,,space,0.08153,2,1,0.783045,,0,199,199,6,1,1a,6,2,1,
,,,,,,,,,,,,,,,,,,,,,,,,,,images/exp2c_trial_86_colour2_distractors31_r.png,r,2,003,001,2021-04-11_15h08.31.668,searchDisc4,2020.2.10,Win32,60,,,space,0.22253,2,1,0.62158,,0,200,200,542,1,2c,86,2,31,
,,,,,,,,,,,,,,,,,,,,,,,,,,images/exp1b_trial_84_colour2_distractors9_r.png,r,2,003,001,2021-04-11_15h08.31.668,searchDisc4,2020.2.10,Win32,60,,,space,0.18184,2,1,0.610175,,0,201,201,198,1,1b,84,2,9,
,,,,,,,,,,,,,,,,,,,,,,,,,,images/exp1a_trial_30_colour3_distractors1_l.png,l,1,003,001,2021-04-11_15h08.31.668,searchDisc4,2020.2.10,Win32,60,,,space,0.259395,1,1,0.486125,,0,202,202,30,1,1a,30,3,1,
,,,,,,,,,,,,,,,,,,,,,,,,,,images/exp2b_trial_4_colour1_distractors31_r.png,r,2,003,001,2021-04-11_15h08.31.668,searchDisc4,2020.2.10,Win32,60,,,space,0.20404,2,1,0.61064,,0,203,203,346,1,2b,4,1,31,
,,,,,,,,,,,,,,,,,,,,,,,,,,images/exp2b_trial_55_colour3_distractors43_r.png,r,2,003,001,2021-04-11_15h08.31.668,searchDisc4,2020.2.10,Win32,60,,,space,0.157135,2,1,0.4726,,0,204,204,397,1,2b,55,3,43,
,,,,,,,,,,,,,,,,,,,,,,,,,,images/exp2b_trial_80_colour1_distractors31_r.png,r,2,003,001,2021-04-11_15h08.31.668,searchDisc4,2020.2.10,Win32,60,,,space,0.245875,2,1,0.640105,,0,205,205,422,1,2b,80,1,31,
,,,,,,,,,,,,,,,,,,,,,,,,,,images/exp1b_trial_105_colour2_distractors43_l.png,l,1,003,001,2021-04-11_15h08.31.668,searchDisc4,2020.2.10,Win32,60,,,space,0.16685,1,1,1.11418,,0,206,206,219,1,1b,105,2,43,
,,,,,,,,,,,,,,,,,,,,,,,,,,images/exp1b_trial_82_colour2_distractors1_r.png,r,2,003,001,2021-04-11_15h08.31.668,searchDisc4,2020.2.10,Win32,60,,,space,0.719765,2,1,0.755335,,0,207,207,196,1,1b,82,2,1,
,,,,,,,,,,,,,,,,,,,,,,,,,,images/exp1b_trial_18_colour1_distractors1_l.png,l,1,003,001,2021-04-11_15h08.31.668,searchDisc4,2020.2.10,Win32,60,,,space,0.28354,1,1,0.69851,,0,208,208,132,1,1b,18,1,1,
,,,,,,,,,,,,,,,,,,,,,,,,,,images/exp1a_trial_110_colour3_distractors31_l.png,l,1,003,001,2021-04-11_15h08.31.668,searchDisc4,2020.2.10,Win32,60,,,space,0.141425,1,1,0.72803,,0,209,209,110,1,1a,110,3,31,
,,,,,,,,,,,,,,,,,,,,,,,,,,images/exp2c_trial_12_colour3_distractors1_r.png,r,2,003,001,2021-04-11_15h08.31.668,searchDisc4,2020.2.10,Win32,60,,,space,0.187925,2,1,0.69272,,0,210,210,468,1,2c,12,3,1,
,,,,,,,,,,,,,,,,,,,,,,,,,,images/exp2b_trial_32_colour3_distractors9_l.png,l,1,003,001,2021-04-11_15h08.31.668,searchDisc4,2020.2.10,Win32,60,,,space,0.18652,1,1,0.664915,,0,211,211,374,1,2b,32,3,9,
,,,,,,,,,,,,,,,,,,,,,,,,,,images/exp2b_trial_110_colour3_distractors31_l.png,l,1,003,001,2021-04-11_15h08.31.668,searchDisc4,2020.2.10,Win32,60,,,space,0.20561,1,1,0.542255,,0,212,212,452,1,2b,110,3,31,
,,,,,,,,,,,,,,,,,,,,,,,,,,images/exp2b_trial_67_colour2_distractors43_l.png,l,1,003,001,2021-04-11_15h08.31.668,searchDisc4,2020.2.10,Win32,60,,,space,0.23197,1,1,0.437815,,0,213,213,409,1,2b,67,2,43,
,,,,,,,,,,,,,,,,,,,,,,,,,,images/exp2c_trial_89_colour3_distractors4_r.png,r,2,003,001,2021-04-11_15h08.31.668,searchDisc4,2020.2.10,Win32,60,,,space,0.241075,2,1,0.67346,,0,214,214,545,1,2c,89,3,4,
,,,,,,,,,,,,,,,,,,,,,,,,,,images/exp1a_trial_52_colour3_distractors9_r.png,r,2,003,001,2021-04-11_15h08.31.668,searchDisc4,2020.2.10,Win32,60,,,space,0.2084,2,1,0.4925,,0,215,215,52,1,1a,52,3,9,
,,,,,,,,,,,,,,,,,,,,,,,,,,images/exp2b_trial_48_colour2_distractors31_r.png,r,2,003,001,2021-04-11_15h08.31.668,searchDisc4,2020.2.10,Win32,60,,,space,0.1187,2,1,0.482105,,0,216,216,390,1,2b,48,2,31,
,,,,,,,,,,,,,,,,,,,,,,,,,,images/exp2a_trial_3_colour1_distractors19_r.png,r,2,003,001,2021-04-11_15h08.31.668,searchDisc4,2020.2.10,Win32,60,,,space,0.25759,2,1,0.57525,,0,217,217,231,1,2a,3,1,19,
,,,,,,,,,,,,,,,,,,,,,,,,,,images/exp2a_trial_18_colour1_distractors1_l.png,l,1,003,001,2021-04-11_15h08.31.668,searchDisc4,2020.2.10,Win32,60,,,space,1.06972,1,1,0.487125,,0,218,218,246,1,2a,18,1,1,
,,,,,,,,,,,,,,,,,,,,,,,,,,images/exp1a_trial_113_colour0_distractors0_l.png,l,1,003,001,2021-04-11_15h08.31.668,searchDisc4,2020.2.10,Win32,60,,,space,0.277475,1,1,0.45408,,0,219,219,113,1,1a,113,0,0,
,,,,,,,,,,,,,,,,,,,,,,,,,,images/exp2a_trial_28_colour2_distractors31_l.png,l,1,003,001,2021-04-11_15h08.31.668,searchDisc4,2020.2.10,Win32,60,,,space,0.246275,1,1,0.413425,,0,220,220,256,1,2a,28,2,31,
,,,,,,,,,,,,,,,,,,,,,,,,,,images/exp2c_trial_73_colour3_distractors43_l.png,l,1,003,001,2021-04-11_15h08.31.668,searchDisc4,2020.2.10,Win32,60,,,space,0.2058,1,1,0.640965,,0,221,221,529,1,2c,73,3,43,
,,,,,,,,,,,,,,,,,,,,,,,,,,images/exp1a_trial_93_colour3_distractors43_r.png,r,2,003,001,2021-04-11_15h08.31.668,searchDisc4,2020.2.10,Win32,60,,,space,0.21465,2,1,0.60757,,0,222,222,93,1,1a,93,3,43,
,,,,,,,,,,,,,,,,,,,,,,,,,,images/exp2a_trial_97_colour1_distractors19_l.png,l,1,003,001,2021-04-11_15h08.31.668,searchDisc4,2020.2.10,Win32,60,,,space,0.148895,1,1,0.72063,,0,223,223,325,1,2a,97,1,19,
,,,,,,,,,,,,,,,,,,,,,,,,,,images/exp2a_trial_42_colour1_distractors31_r.png,r,2,003,001,2021-04-11_15h08.31.668,searchDisc4,2020.2.10,Win32,60,,,space,0.182335,2,1,0.95882,,0,224,224,270,1,2a,42,1,31,
,,,,,,,,,,,,,,,,,,,,,,,,,,images/exp2a_trial_19_colour1_distractors4_l.png,l,1,003,001,2021-04-11_15h08.31.668,searchDisc4,2020.2.10,Win32,60,,,space,0.23509,1,1,0.51591,,0,225,225,247,1,2a,19,1,4,
,,,,,,,,,,,,,,,,,,,,,,,,,,images/exp1a_trial_77_colour1_distractors4_r.png,r,2,003,001,2021-04-11_15h08.31.668,searchDisc4,2020.2.10,Win32,60,,,space,0.19475,2,1,0.52335,,0,226,226,77,1,1a,77,1,4,
,,,,,,,,,,,,,,,,,,,,,,,,,,images/exp1a_trial_36_colour0_distractors0_r.png,r,2,003,001,2021-04-11_15h08.31.668,searchDisc4,2020.2.10,Win32,60,,,space,0.174155,2,1,0.674935,,0,227,227,36,1,1a,36,0,0,
,,,,,,,,,,,,,,,,,,,,,,,,,,images/exp1a_trial_86_colour2_distractors31_r.png,r,2,003,001,2021-04-11_15h08.31.668,searchDisc4,2020.2.10,Win32,60,,,space,0.186745,2,1,0.6247,,0,228,228,86,1,1a,86,2,31,
,,,,,,,,,,,,,,,,,,,,,,,,,,images/exp2b_trial_22_colour1_distractors31_l.png,l,1,003,001,2021-04-11_15h08.31.668,searchDisc4,2020.2.10,Win32,60,,,space,0.17647,1,1,0.53141,,0,229,229,364,1,2b,22,1,31,
,,,,,,,,,,,,,,,,,,,,,,,,,,images/exp1a_trial_32_colour3_distractors9_l.png,l,1,003,001,2021-04-11_15h08.31.668,searchDisc4,2020.2.10,Win32,60,,,space,0.190045,1,1,0.38084,,0,230,230,32,1,1a,32,3,9,
,,,,,,,,,,,,,,,,,,,,,,,,,,images/exp1b_trial_41_colour1_distractors19_r.png,r,2,003,001,2021-04-11_15h08.31.668,searchDisc4,2020.2.10,Win32,60,,,space,0.200045,2,1,0.74494,,0,231,231,155,1,1b,41,1,19,
,,,,,,,,,,,,,,,,,,,,,,,,,,images/exp1b_trial_25_colour2_distractors4_l.png,l,1,003,001,2021-04-11_15h08.31.668,searchDisc4,2020.2.10,Win32,60,,,space,0.236275,1,1,0.70202,,0,232,232,139,1,1b,25,2,4,
,,,,,,,,,,,,,,,,,,,,,,,,,,images/exp2c_trial_19_colour1_distractors4_l.png,l,1,003,001,2021-04-11_15h08.31.668,searchDisc4,2020.2.10,Win32,60,,,space,0.235675,1,1,0.47224,,0,233,233,475,1,2c,19,1,4,
,,,,,,,,,,,,,,,,,,,,,,,,,,images/exp2b_trial_21_colour1_distractors19_l.png,l,1,003,001,2021-04-11_15h08.31.668,searchDisc4,2020.2.10,Win32,60,,,space,0.24201,1,1,0.61262,,0,234,234,363,1,2b,21,1,19,
,,,,,,,,,,,,,,,,,,,,,,,,,,images/exp2a_trial_53_colour3_distractors19_r.png,r,2,003,001,2021-04-11_15h08.31.668,searchDisc4,2020.2.10,Win32,60,,,space,0.229015,2,1,0.590075,,0,235,235,281,1,2a,53,3,19,
,,,,,,,,,,,,,,,,,,,,,,,,,,images/exp2b_trial_36_colour0_distractors0_r.png,r,2,003,001,2021-04-11_15h08.31.668,searchDisc4,2020.2.10,Win32,60,,,space,0.217615,2,1,0.55652,,0,236,236,378,1,2b,36,0,0,
,,,,,,,,,,,,,,,,,,,,,,,,,,images/exp1b_trial_2_colour1_distractors9_r.png,r,2,003,001,2021-04-11_15h08.31.668,searchDisc4,2020.2.10,Win32,60,,,space,0.18441,2,1,0.584485,,0,237,237,116,1,1b,2,1,9,
,,,,,,,,,,,,,,,,,,,,,,,,,,images/exp2c_trial_66_colour2_distractors31_l.png,l,1,003,001,2021-04-11_15h08.31.668,searchDisc4,2020.2.10,Win32,60,,,space,0.26106,1,1,0.51985,,0,238,238,522,1,2c,66,2,31,
,,,,,,,,,,,,,,,,,,,,,,,,,,images/exp1b_trial_110_colour3_distractors31_l.png,l,1,003,001,2021-04-11_15h08.31.668,searchDisc4,2020.2.10,Win32,60,,,space,0.20692,1,1,2.965535,space,0,239,239,224,1,1b,110,3,31,0.192615
,,,,,,,,,,,,,,,,,,,,,,,,,,images/exp1b_trial_15_colour3_distractors19_r.png,r,2,003,001,2021-04-11_15h08.31.668,searchDisc4,2020.2.10,Win32,60,,,space,0.96699,2,1,0.746525,,0,240,240,129,1,1b,15,3,19,
,,,,,,,,,,,,,,,,,,,,,,,,,,images/exp1a_trial_3_colour1_distractors19_r.png,r,2,003,001,2021-04-11_15h08.31.668,searchDisc4,2020.2.10,Win32,60,,,space,0.17279,2,1,0.53526,,0,241,241,3,1,1a,3,1,19,
,,,,,,,,,,,,,,,,,,,,,,,,,,images/exp2c_trial_74_colour0_distractors0_r.png,r,2,003,001,2021-04-11_15h08.31.668,searchDisc4,2020.2.10,Win32,60,,,space,0.102585,2,1,0.441995,,0,242,242,530,1,2c,74,0,0,
,,,,,,,,,,,,,,,,,,,,,,,,,,images/exp1a_trial_66_colour2_distractors31_l.png,l,1,003,001,2021-04-11_15h08.31.668,searchDisc4,2020.2.10,Win32,60,,,space,0.25156,1,1,0.704335,,0,243,243,66,1,1a,66,2,31,
,,,,,,,,,,,,,,,,,,,,,,,,,,images/exp1b_trial_10_colour2_distractors31_r.png,r,2,003,001,2021-04-11_15h08.31.668,searchDisc4,2020.2.10,Win32,60,,,space,0.16477,2,1,0.63337,,0,244,244,124,1,1b,10,2,31,
,,,,,,,,,,,,,,,,,,,,,,,,,,images/exp1b_trial_51_colour3_distractors4_r.png,r,2,003,001,2021-04-11_15h08.31.668,searchDisc4,2020.2.10,Win32,60,,,space,0.18678,2,1,0.67159,,0,245,245,165,1,1b,51,3,4,
,,,,,,,,,,,,,,,,,,,,,,,,,,images/exp2b_trial_2_colour1_distractors9_r.png,r,2,003,001,2021-04-11_15h08.31.668,searchDisc4,2020.2.10,Win32,60,,,space,0.13186,2,1,0.488655,,0,246,246,344,1,2b,2,1,9,
,,,,,,,,,,,,,,,,,,,,,,,,,,images/exp1b_trial_72_colour3_distractors31_l.png,l,1,003,001,2021-04-11_15h08.31.668,searchDisc4,2020.2.10,Win32,60,,,space,0.207005,1,1,0.789255,,0,247,247,186,1,1b,72,3,31,
,,,,,,,,,,,,,,,,,,,,,,,,,,images/exp2c_trial_44_colour2_distractors1_r.png,r,2,003,001,2021-04-11_15h08.31.668,searchDisc4,2020.2.10,Win32,60,,,space,0.20171,2,1,0.615865,,0,248,248,500,1,2c,44,2,1,
,,,,,,,,,,,,,,,,,,,,,,,,,,images/exp2a_trial_72_colour3_distractors31_l.png,l,1,003,001,2021-04-11_15h08.31.668,searchDisc4,2020.2.10,Win32,60,,,space,0.171845,1,1,0.60864,,0,249,249,300,1,2a,72,3,31,
,,,,,,,,,,,,,,,,,,,,,,,,,,images/exp2a_trial_33_colour3_distractors19_l.png,l,1,003,001,2021-04-11_15h08.31.668,searchDisc4,2020.2.10,Win32,60,,,space,0.2278,1,1,0.49389,,0,250,250,261,1,2a,33,3,19,
,,,,,,,,,,,,,,,,,,,,,,,,,,images/exp2c_trial_108_colour3_distractors9_l.png,l,1,003,001,2021-04-11_15h08.31.668,searchDisc4,2020.2.10,Win32,60,,,space,0.229265,1,1,0.670905,,0,251,251,564,1,2c,108,3,9,
,,,,,,,,,,,,,,,,,,,,,,,,,,images/exp2b_trial_95_colour1_distractors4_l.png,l,1,003,001,2021-04-11_15h08.31.668,searchDisc4,2020.2.10,Win32,60,,,space,0.21542,1,1,0.50483,,0,252,252,437,1,2b,95,1,4,
,,,,,,,,,,,,,,,,,,,,,,,,,,images/exp2c_trial_59_colour1_distractors19_l.png,l,1,003,001,2021-04-11_15h08.31.668,searchDisc4,2020.2.10,Win32,60,,,space,0.20892,1,1,0.472265,,0,253,253,515,1,2c,59,1,19,
,,,,,,,,,,,,,,,,,,,,,,,,,,images/exp2a_trial_80_colour1_distractors31_r.png,r,2,003,001,2021-04-11_15h08.31.668,searchDisc4,2020.2.10,Win32,60,,,space,0.21297,2,1,0.668365,,0,254,254,308,1,2a,80,1,31,
,,,,,,,,,,,,,,,,,,,,,,,,,,images/exp1b_trial_50_colour3_distractors1_r.png,r,2,003,001,2021-04-11_15h08.31.668,searchDisc4,2020.2.10,Win32,60,,,space,0.18309,2,1,1.11107,,0,255,255,164,1,1b,50,3,1,
,,,,,,,,,,,,,,,,,,,,,,,,,,images/exp1a_trial_7_colour2_distractors4_r.png,r,2,003,001,2021-04-11_15h08.31.668,searchDisc4,2020.2.10,Win32,60,,,space,0.193985,2,1,0.604265,,0,256,256,7,1,1a,7,2,4,
,,,,,,,,,,,,,,,,,,,,,,,,,,images/exp2a_trial_102_colour2_distractors9_l.png,l,1,003,001,2021-04-11_15h08.31.668,searchDisc4,2020.2.10,Win32,60,,,space,0.18072,1,1,0.538195,,0,257,257,330,1,2a,102,2,9,
,,,,,,,,,,,,,,,,,,,,,,,,,,images/exp2b_trial_39_colour1_distractors4_r.png,r,2,003,001,2021-04-11_15h08.31.668,searchDisc4,2020.2.10,Win32,60,,,space,0.21,2,1,0.507705,,0,258,258,381,1,2b,39,1,4,
,,,,,,,,,,,,,,,,,,,,,,,,,,images/exp2b_trial_111_colour3_distractors43_l.png,l,1,003,001,2021-04-11_15h08.31.668,searchDisc4,2020.2.10,Win32,60,,,space,0.23784,1,1,0.693055,,0,259,259,453,1,2b,111,3,43,
,,,,,,,,,,,,,,,,,,,,,,,,,,images/exp2c_trial_69_colour3_distractors4_l.png,l,1,003,001,2021-04-11_15h08.31.668,searchDisc4,2020.2.10,Win32,60,,,space,0.22208,1,1,0.545995,,0,260,260,525,1,2c,69,3,4,
,,,,,,,,,,,,,,,,,,,,,,,,,,images/exp1b_trial_106_colour3_distractors1_l.png,l,1,003,001,2021-04-11_15h08.31.668,searchDisc4,2020.2.10,Win32,60,,,space,0.222415,1,1,0.586035,,0,261,261,220,1,1b,106,3,1,
,,,,,,,,,,,,,,,,,,,,,,,,,,images/exp2a_trial_38_colour1_distractors1_r.png,r,2,003,001,2021-04-11_15h08.31.668,searchDisc4,2020.2.10,Win32,60,,,space,0.205635,2,1,0.5833,,0,262,262,266,1,2a,38,1,1,
,,,,,,,,,,,,,,,,,,,,,,,,,,images/exp2b_trial_10_colour2_distractors31_r.png,r,2,003,001,2021-04-11_15h08.31.668,searchDisc4,2020.2.10,Win32,60,,,space,0.172765,2,1,0.573595,,0,263,263,352,1,2b,10,2,31,
,,,,,,,,,,,,,,,,,,,,,,,,,,images/exp2a_trial_59_colour1_distractors19_l.png,l,1,003,001,2021-04-11_15h08.31.668,searchDisc4,2020.2.10,Win32,60,,,space,0.201725,1,1,0.55196,,0,264,264,287,1,2a,59,1,19,
,,,,,,,,,,,,,,,,,,,,,,,,,,images/exp2a_trial_70_colour3_distractors9_l.png,l,1,003,001,2021-04-11_15h08.31.668,searchDisc4,2020.2.10,Win32,60,,,space,0.193025,1,1,0.41539,,0,265,265,298,1,2a,70,3,9,
,,,,,,,,,,,,,,,,,,,,,,,,,,images/exp1b_trial_48_colour2_distractors31_r.png,r,2,003,001,2021-04-11_15h08.31.668,searchDisc4,2020.2.10,Win32,60,,,space,0.20678,2,1,0.600435,,0,266,266,162,1,1b,48,2,31,
,,,,,,,,,,,,,,,,,,,,,,,,,,images/exp2c_trial_15_colour3_distractors19_r.png,r,2,003,001,2021-04-11_15h08.31.668,searchDisc4,2020.2.10,Win32,60,,,space,0.19295,2,1,0.558945,,0,267,267,471,1,2c,15,3,19,
,,,,,,,,,,,,,,,,,,,,,,,,,,images/exp1b_trial_102_colour2_distractors9_l.png,l,1,003,001,2021-04-11_15h08.31.668,searchDisc4,2020.2.10,Win32,60,,,space,0.166775,1,1,0.578825,,0,268,268,216,1,1b,102,2,9,
,,,,,,,,,,,,,,,,,,,,,,,,,,images/exp1a_trial_103_colour2_distractors19_l.png,l,1,003,001,2021-04-11_15h08.31.668,searchDisc4,2020.2.10,Win32,60,,,space,0.209265,1,1,1.239445,,0,269,269,103,1,1a,103,2,19,
,,,,,,,,,,,,,,,,,,,,,,,,,,images/exp1a_trial_98_colour1_distractors31_l.png,l,1,003,001,2021-04-11_15h08.31.668,searchDisc4,2020.2.10,Win32,60,,,space,0.20308,1,1,0.775145,,0,270,270,98,1,1a,98,1,31,
,,,,,,,,,,,,,,,,,,,,,,,,,,images/exp2b_trial_33_colour3_distractors19_l.png,l,1,003,001,2021-04-11_15h08.31.668,searchDisc4,2020.2.10,Win32,60,,,space,0.1814,1,1,0.611605,,0,271,271,375,1,2b,33,3,19,
,,,,,,,,,,,,,,,,,,,,,,,,,,images/exp2a_trial_39_colour1_distractors4_r.png,r,2,003,001,2021-04-11_15h08.31.668,searchDisc4,2020.2.10,Win32,60,,,space,0.20156,2,1,0.61816,,0,272,272,267,1,2a,39,1,4,
,,,,,,,,,,,,,,,,,,,,,,,,,,images/exp2a_trial_110_colour3_distractors31_l.png,l,1,003,001,2021-04-11_15h08.31.668,searchDisc4,2020.2.10,Win32,60,,,space,0.19629,1,1,0.62996,,0,273,273,338,1,2a,110,3,31,
,,,,,,,,,,,,,,,,,,,,,,,,,,images/exp1b_trial_89_colour3_distractors4_r.png,r,2,003,001,2021-04-11_15h08.31.668,searchDisc4,2020.2.10,Win32,60,,,space,0.35419,2,1,0.873705,,0,274,274,203,1,1b,89,3,4,
,,,,,,,,,,,,,,,,,,,,,,,,,,images/exp2c_trial_52_colour3_distractors9_r.png,r,2,003,001,2021-04-11_15h08.31.668,searchDisc4,2020.2.10,Win32,60,,,space,0.21543,2,1,1.479445,,0,275,275,508,1,2c,52,3,9,
,,,,,,,,,,,,,,,,,,,,,,,,,,images/exp1a_trial_63_colour2_distractors4_l.png,l,1,003,001,2021-04-11_15h08.31.668,searchDisc4,2020.2.10,Win32,60,,,space,0.22617,1,1,0.736805,,0,276,276,63,1,1a,63,2,4,
,,,,,,,,,,,,,,,,,,,,,,,,,,images/exp2c_trial_105_colour2_distractors43_l.png,l,1,003,001,2021-04-11_15h08.31.668,searchDisc4,2020.2.10,Win32,60,,,space,0.18755,1,1,0.753915,,0,277,277,561,1,2c,105,2,43,
,,,,,,,,,,,,,,,,,,,,,,,,,,images/exp1b_trial_86_colour2_distractors31_r.png,r,2,003,001,2021-04-11_15h08.31.668,searchDisc4,2020.2.10,Win32,60,,,space,0.158365,2,1,1.13048,,0,278,278,200,1,1b,86,2,31,
,,,,,,,,,,,,,,,,,,,,,,,,,,images/exp2c_trial_23_colour1_distractors43_l.png,l,1,003,001,2021-04-11_15h08.31.668,searchDisc4,2020.2.10,Win32,60,,,space,0.188445,1,1,0.527625,,0,279,279,479,1,2c,23,1,43,
,,,,,,,,,,,,,,,,,,,,,,,,,,images/exp2a_trial_14_colour3_distractors9_r.png,r,2,003,001,2021-04-11_15h08.31.668,searchDisc4,2020.2.10,Win32,60,,,space,0.202565,2,1,0.61341,,0,280,280,242,1,2a,14,3,9,
,,,,,,,,,,,,,,,,,,,,,,,,,,images/exp2b_trial_91_colour3_distractors19_r.png,r,2,003,001,2021-04-11_15h08.31.668,searchDisc4,2020.2.10,Win32,60,,,space,0.178805,2,1,0.51793,,0,281,281,433,1,2b,91,3,19,
,,,,,,,,,,,,,,,,,,,,,,,,,,images/exp2a_trial_88_colour3_distractors1_r.png,r,2,003,001,2021-04-11_15h08.31.668,searchDisc4,2020.2.10,Win32,60,,,space,0.21297,2,1,0.423445,,0,282,282,316,1,2a,88,3,1,
,,,,,,,,,,,,,,,,,,,,,,,,,,images/exp2c_trial_17_colour3_distractors43_r.png,r,2,003,001,2021-04-11_15h08.31.668,searchDisc4,2020.2.10,Win32,60,,,space,0.172135,2,1,0.61911,,0,283,283,473,1,2c,17,3,43,
,,,,,,,,,,,,,,,,,,,,,,,,,,images/exp1b_trial_21_colour1_distractors19_l.png,l,1,003,001,2021-04-11_15h08.31.668,searchDisc4,2020.2.10,Win32,60,,,space,0.19017,1,1,0.868595,,0,284,284,135,1,1b,21,1,19,
,,,,,,,,,,,,,,,,,,,,,,,,,,images/exp2a_trial_58_colour1_distractors9_l.png,l,1,003,001,2021-04-11_15h08.31.668,searchDisc4,2020.2.10,Win32,60,,,space,0.283275,1,1,0.58931,,0,285,285,286,1,2a,58,1,9,
,,,,,,,,,,,,,,,,,,,,,,,,,,images/exp2c_trial_29_colour2_distractors43_l.png,l,1,003,001,2021-04-11_15h08.31.668,searchDisc4,2020.2.10,Win32,60,,,space,0.24602,1,1,0.480745,,0,286,286,485,1,2c,29,2,43,
,,,,,,,,,,,,,,,,,,,,,,,,,,images/exp2b_trial_31_colour3_distractors4_l.png,l,1,003,001,2021-04-11_15h08.31.668,searchDisc4,2020.2.10,Win32,60,,,space,0.182325,1,1,0.642015,,0,287,287,373,1,2b,31,3,4,
,,,,,,,,,,,,,,,,,,,,,,,,,,images/exp2b_trial_75_colour0_distractors0_l.png,l,1,003,001,2021-04-11_15h08.31.668,searchDisc4,2020.2.10,Win32,60,,,space,0.24488,1,1,0.493535,,0,288,288,417,1,2b,75,0,0,
,,,,,,,,,,,,,,,,,,,,,,,,,,images/exp2b_trial_106_colour3_distractors1_l.png,l,1,003,001,2021-04-11_15h08.31.668,searchDisc4,2020.2.10,Win32,60,,,space,0.201035,1,1,0.56564,,0,289,289,448,1,2b,106,3,1,
,,,,,,,,,,,,,,,,,,,,,,,,,,images/exp2a_trial_69_colour3_distractors4_l.png,l,1,003,001,2021-04-11_15h08.31.668,searchDisc4,2020.2.10,Win32,60,,,space,0.168995,1,1,0.489855,,0,290,290,297,1,2a,69,3,4,
,,,,,,,,,,,,,,,,,,,,,,,,,,images/exp1b_trial_11_colour2_distractors43_r.png,r,2,003,001,2021-04-11_15h08.31.668,searchDisc4,2020.2.10,Win32,60,,,space,0.137315,2,1,0.642455,,0,291,291,125,1,1b,11,2,43,
,,,,,,,,,,,,,,,,,,,,,,,,,,images/exp2a_trial_23_colour1_distractors43_l.png,l,1,003,001,2021-04-11_15h08.31.668,searchDisc4,2020.2.10,Win32,60,,,space,0.1821,1,1,0.67643,,0,292,292,251,1,2a,23,1,43,
,,,,,,,,,,,,,,,,,,,,,,,,,,images/exp2b_trial_102_colour2_distractors9_l.png,l,1,003,001,2021-04-11_15h08.31.668,searchDisc4,2020.2.10,Win32,60,,,space,0.21598,1,1,0.56955,,0,293,293,444,1,2b,102,2,9,
,,,,,,,,,,,,,,,,,,,,,,,,,,images/exp2a_trial_48_colour2_distractors31_r.png,r,2,003,001,2021-04-11_15h08.31.668,searchDisc4,2020.2.10,Win32,60,,,space,0.263275,2,1,0.70906,,0,294,294,276,1,2a,48,2,31,
,,,,,,,,,,,,,,,,,,,,,,,,,,images/exp2b_trial_34_colour3_distractors31_l.png,l,1,003,001,2021-04-11_15h08.31.668,searchDisc4,2020.2.10,Win32,60,,,space,0.18515,1,1,0.65151,,0,295,295,376,1,2b,34,3,31,
,,,,,,,,,,,,,,,,,,,,,,,,,,images/exp1a_trial_49_colour2_distractors43_r.png,r,2,003,001,2021-04-11_15h08.31.668,searchDisc4,2020.2.10,Win32,60,,,space,0.19506,2,1,0.745975,,0,296,296,49,1,1a,49,2,43,
,,,,,,,,,,,,,,,,,,,,,,,,,,images/exp2c_trial_41_colour1_distractors19_r.png,r,2,003,001,2021-04-11_15h08.31.668,searchDisc4,2020.2.10,Win32,60,,,space,0.14786,2,1,0.470055,,0,297,297,497,1,2c,41,1,19,
,,,,,,,,,,,,,,,,,,,,,,,,,,images/exp2b_trial_42_colour1_distractors31_r.png,r,2,003,001,2021-04-11_15h08.31.668,searchDisc4,2020.2.10,Win32,60,,,space,0.31383,2,1,0.628205,,0,298,298,384,1,2b,42,1,31,
,,,,,,,,,,,,,,,,,,,,,,,,,,images/exp1b_trial_97_colour1_distractors19_l.png,l,1,003,001,2021-04-11_15h08.31.668,searchDisc4,2020.2.10,Win32,60,,,space,0.18595,1,1,0.573535,space,0,299,299,211,1,1b,97,1,19,0.215295
,,,,,,,,,,,,,,,,,,,,,,,,,,images/exp1b_trial_13_colour3_distractors4_r.png,r,2,003,001,2021-04-11_15h08.31.668,searchDisc4,2020.2.10,Win32,60,,,space,0.87543,2,1,0.648875,,0,300,300,127,1,1b,13,3,4,
,,,,,,,,,,,,,,,,,,,,,,,,,,images/exp2a_trial_81_colour1_distractors43_r.png,r,2,003,001,2021-04-11_15h08.31.668,searchDisc4,2020.2.10,Win32,60,,,space,0.15943,2,1,0.59958,,0,301,301,309,1,2a,81,1,43,
,,,,,,,,,,,,,,,,,,,,,,,,,,images/exp1a_trial_111_colour3_distractors43_l.png,l,1,003,001,2021-04-11_15h08.31.668,searchDisc4,2020.2.10,Win32,60,,,space,0.199505,1,1,0.57247,,0,302,302,111,1,1a,111,3,43,
,,,,,,,,,,,,,,,,,,,,,,,,,,images/exp2b_trial_69_colour3_distractors4_l.png,l,1,003,001,2021-04-11_15h08.31.668,searchDisc4,2020.2.10,Win32,60,,,space,0.20646,1,1,1.057985,,0,303,303,411,1,2b,69,3,4,
,,,,,,,,,,,,,,,,,,,,,,,,,,images/exp1b_trial_91_colour3_distractors19_r.png,r,2,003,001,2021-04-11_15h08.31.668,searchDisc4,2020.2.10,Win32,60,,,space,0.12873,2,1,0.82533,,0,304,304,205,1,1b,91,3,19,
,,,,,,,,,,,,,,,,,,,,,,,,,,images/exp1b_trial_40_colour1_distractors9_r.png,r,2,003,001,2021-04-11_15h08.31.668,searchDisc4,2020.2.10,Win32,60,,,space,0.13552,2,1,0.932245,,0,305,305,154,1,1b,40,1,9,
,,,,,,,,,,,,,,,,,,,,,,,,,,images/exp2b_trial_35_colour3_distractors43_l.png,l,1,003,001,2021-04-11_15h08.31.668,searchDisc4,2020.2.10,Win32,60,,,space,0.208895,1,1,0.52344,,0,306,306,377,1,2b,35,3,43,
,,,,,,,,,,,,,,,,,,,,,,,,,,images/exp2c_trial_71_colour3_distractors19_l.png,l,1,003,001,2021-04-11_15h08.31.668,searchDisc4,2020.2.10,Win32,60,,,space,0.202835,1,1,0.459815,,0,307,307,527,1,2c,71,3,19,
,,,,,,,,,,,,,,,,,,,,,,,,,,images/exp2c_trial_30_colour3_distractors1_l.png,l,1,003,001,2021-04-11_15h08.31.668,searchDisc4,2020.2.10,Win32,60,,,space,0.21551,2,0,0.566075,,0,308,308,486,1,2c,30,3,1,
,,,,,,,,,,,,,,,,,,,,,,,,,,images/exp1a_trial_73_colour3_distractors43_l.png,l,1,003,001,2021-04-11_15h08.31.668,searchDisc4,2020.2.10,Win32,60,,,space,0.555295,1,1,0.711225,,0,309,309,73,1,1a,73,3,43,
,,,,,,,,,,,,,,,,,,,,,,,,,,images/exp2c_trial_113_colour0_distractors0_l.png,l,1,003,001,2021-04-11_15h08.31.668,searchDisc4,2020.2.10,Win32,60,,,space,0.215565,1,1,0.48412,,0,310,310,569,1,2c,113,0,0,
,,,,,,,,,,,,,,,,,,,,,,,,,,images/exp1b_trial_12_colour3_distractors1_r.png,r,2,003,001,2021-04-11_15h08.31.668,searchDisc4,2020.2.10,Win32,60,,,space,0.235475,2,1,0.604615,,0,311,311,126,1,1b,12,3,1,
,,,,,,,,,,,,,,,,,,,,,,,,,,images/exp2a_trial_106_colour3_distractors1_l.png,l,1,003,001,2021-04-11_15h08.31.668,searchDisc4,2020.2.10,Win32,60,,,space,0.1876,1,1,0.4978,,0,312,312,334,1,2a,106,3,1,
,,,,,,,,,,,,,,,,,,,,,,,,,,images/exp1a_trial_19_colour1_distractors4_l.png,l,1,003,001,2021-04-11_15h08.31.668,searchDisc4,2020.2.10,Win32,60,,,space,0.16372,1,1,0.500155,,0,313,313,19,1,1a,19,1,4,
,,,,,,,,,,,,,,,,,,,,,,,,,,images/exp2b_trial_53_colour3_distractors19_r.png,r,2,003,001,2021-04-11_15h08.31.668,searchDisc4,2020.2.10,Win32,60,,,space,0.326515,2,1,0.72979,,0,314,314,395,1,2b,53,3,19,
,,,,,,,,,,,,,,,,,,,,,,,,,,images/exp1a_trial_50_colour3_distractors1_r.png,r,2,003,001,2021-04-11_15h08.31.668,searchDisc4,2020.2.10,Win32,60,,,space,0.21783,2,1,0.608995,,0,315,315,50,1,1a,50,3,1,
,,,,,,,,,,,,,,,,,,,,,,,,,,images/exp2b_trial_56_colour1_distractors1_l.png,l,1,003,001,2021-04-11_15h08.31.668,searchDisc4,2020.2.10,Win32,60,,,space,0.20137,1,1,0.48147,,0,316,316,398,1,2b,56,1,1,
,,,,,,,,,,,,,,,,,,,,,,,,,,images/exp1a_trial_99_colour1_distractors43_l.png,l,1,003,001,2021-04-11_15h08.31.668,searchDisc4,2020.2.10,Win32,60,,,space,0.19972,1,1,0.453385,,0,317,317,99,1,1a,99,1,43,
,,,,,,,,,,,,,,,,,,,,,,,,,,images/exp1b_trial_24_colour2_distractors1_l.png,l,1,003,001,2021-04-11_15h08.31.668,searchDisc4,2020.2.10,Win32,60,,,space,0.20138,1,1,0.46471,,0,318,318,138,1,1b,24,2,1,
,,,,,,,,,,,,,,,,,,,,,,,,,,images/exp1b_trial_16_colour3_distractors31_r.png,r,2,003,001,2021-04-11_15h08.31.668,searchDisc4,2020.2.10,Win32,60,,,space,0.25873,2,1,1.01633,,0,319,319,130,1,1b,16,3,31,
,,,,,,,,,,,,,,,,,,,,,,,,,,images/exp2c_trial_48_colour2_distractors31_r.png,r,2,003,001,2021-04-11_15h08.31.668,searchDisc4,2020.2.10,Win32,60,,,space,0.21898,2,1,0.64345,,0,320,320,504,1,2c,48,2,31,
,,,,,,,,,,,,,,,,,,,,,,,,,,images/exp2b_trial_83_colour2_distractors4_r.png,r,2,003,001,2021-04-11_15h08.31.668,searchDisc4,2020.2.10,Win32,60,,,space,0.283285,2,1,0.613535,,0,321,321,425,1,2b,83,2,4,
,,,,,,,,,,,,,,,,,,,,,,,,,,images/exp1a_trial_42_colour1_distractors31_r.png,r,2,003,001,2021-04-11_15h08.31.668,searchDisc4,2020.2.10,Win32,60,,,space,0.23235,2,1,0.47245,,0,322,322,42,1,1a,42,1,31,
,,,,,,,,,,,,,,,,,,,,,,,,,,images/exp2a_trial_75_colour0_distractors0_l.png,l,1,003,001,2021-04-11_15h08.31.668,searchDisc4,2020.2.10,Win32,60,,,space,0.239845,1,1,0.5245,,0,323,323,303,1,2a,75,0,0,
,,,,,,,,,,,,,,,,,,,,,,,,,,images/exp2c_trial_70_colour3_distractors9_l.png,l,1,003,001,2021-04-11_15h08.31.668,searchDisc4,2020.2.10,Win32,60,,,space,0.260235,1,1,0.53918,,0,324,324,526,1,2c,70,3,9,
,,,,,,,,,,,,,,,,,,,,,,,,,,images/exp2c_trial_54_colour3_distractors31_r.png,r,2,003,001,2021-04-11_15h08.31.668,searchDisc4,2020.2.10,Win32,60,,,space,0.236135,2,1,0.60346,,0,325,325,510,1,2c,54,3,31,
,,,,,,,,,,,,,,,,,,,,,,,,,,images/exp1b_trial_57_colour1_distractors4_l.png,l,1,003,001,2021-04-11_15h08.31.668,searchDisc4,2020.2.10,Win32,60,,,space,0.30128,1,1,0.86203,,0,326,326,171,1,1b,57,1,4,
,,,,,,,,,,,,,,,,,,,,,,,,,,images/exp2c_trial_35_colour3_distractors43_l.png,l,1,003,001,2021-04-11_15h08.31.668,searchDisc4,2020.2.10,Win32,60,,,space,0.274795,1,1,0.57713,,0,327,327,491,1,2c,35,3,43,
,,,,,,,,,,,,,,,,,,,,,,,,,,images/exp1a_trial_4_colour1_distractors31_r.png,r,2,003,001,2021-04-11_15h08.31.668,searchDisc4,2020.2.10,Win32,60,,,space,0.21559,2,1,0.62127,,0,328,328,4,1,1a,4,1,31,
,,,,,,,,,,,,,,,,,,,,,,,,,,images/exp2a_trial_101_colour2_distractors4_l.png,l,1,003,001,2021-04-11_15h08.31.668,searchDisc4,2020.2.10,Win32,60,,,space,0.23276,1,1,0.55859,,0,329,329,329,1,2a,101,2,4,
,,,,,,,,,,,,,,,,,,,,,,,,,,images/exp1b_trial_22_colour1_distractors31_l.png,l,1,003,001,2021-04-11_15h08.31.668,searchDisc4,2020.2.10,Win32,60,,,space,0.22963,1,1,0.837295,,0,330,330,136,1,1b,22,1,31,
,,,,,,,,,,,,,,,,,,,,,,,,,,images/exp2a_trial_113_colour0_distractors0_l.png,l,1,003,001,2021-04-11_15h08.31.668,searchDisc4,2020.2.10,Win32,60,,,space,0.19142,1,1,0.576925,,0,331,331,341,1,2a,113,0,0,
,,,,,,,,,,,,,,,,,,,,,,,,,,images/exp1a_trial_67_colour2_distractors43_l.png,l,1,003,001,2021-04-11_15h08.31.668,searchDisc4,2020.2.10,Win32,60,,,space,0.202545,1,1,0.868505,,0,332,332,67,1,1a,67,2,43,
,,,,,,,,,,,,,,,,,,,,,,,,,,images/exp2c_trial_33_colour3_distractors19_l.png,l,1,003,001,2021-04-11_15h08.31.668,searchDisc4,2020.2.10,Win32,60,,,space,0.245955,1,1,0.70517,,0,333,333,489,1,2c,33,3,19,
,,,,,,,,,,,,,,,,,,,,,,,,,,images/exp2c_trial_92_colour3_distractors31_r.png,r,2,003,001,2021-04-11_15h08.31.668,searchDisc4,2020.2.10,Win32,60,,,space,0.18781,2,1,0.75766,,0,334,334,548,1,2c,92,3,31,
,,,,,,,,,,,,,,,,,,,,,,,,,,images/exp1b_trial_34_colour3_distractors31_l.png,l,1,003,001,2021-04-11_15h08.31.668,searchDisc4,2020.2.10,Win32,60,,,space,0.20291,1,1,0.62811,,0,335,335,148,1,1b,34,3,31,
,,,,,,,,,,,,,,,,,,,,,,,,,,images/exp1b_trial_81_colour1_distractors43_r.png,r,2,003,001,2021-04-11_15h08.31.668,searchDisc4,2020.2.10,Win32,60,,,space,0.211505,2,1,0.91181,,0,336,336,195,1,1b,81,1,43,
,,,,,,,,,,,,,,,,,,,,,,,,,,images/exp2b_trial_18_colour1_distractors1_l.png,l,1,003,001,2021-04-11_15h08.31.668,searchDisc4,2020.2.10,Win32,60,,,space,0.215605,1,1,0.620215,,0,337,337,360,1,2b,18,1,1,
,,,,,,,,,,,,,,,,,,,,,,,,,,images/exp2a_trial_62_colour2_distractors1_l.png,l,1,003,001,2021-04-11_15h08.31.668,searchDisc4,2020.2.10,Win32,60,,,space,0.21328,1,1,0.534805,,0,338,338,290,1,2a,62,2,1,
,,,,,,,,,,,,,,,,,,,,,,,,,,images/exp1b_trial_98_colour1_distractors31_l.png,l,1,003,001,2021-04-11_15h08.31.668,searchDisc4,2020.2.10,Win32,60,,,space,0.270335,1,1,0.78076,,0,339,339,212,1,1b,98,1,31,
,,,,,,,,,,,,,,,,,,,,,,,,,,images/exp1a_trial_48_colour2_distractors31_r.png,r,2,003,001,2021-04-11_15h08.31.668,searchDisc4,2020.2.10,Win32,60,,,space,0.22256,2,1,0.73452,,0,340,340,48,1,1a,48,2,31,
,,,,,,,,,,,,,,,,,,,,,,,,,,images/exp1a_trial_105_colour2_distractors43_l.png,l,1,003,001,2021-04-11_15h08.31.668,searchDisc4,2020.2.10,Win32,60,,,space,0.18506,1,1,0.73946,,0,341,341,105,1,1a,105,2,43,
,,,,,,,,,,,,,,,,,,,,,,,,,,images/exp2b_trial_25_colour2_distractors4_l.png,l,1,003,001,2021-04-11_15h08.31.668,searchDisc4,2020.2.10,Win32,60,,,space,0.168475,1,1,0.49952,,0,342,342,367,1,2b,25,2,4,
,,,,,,,,,,,,,,,,,,,,,,,,,,images/exp2c_trial_94_colour1_distractors1_l.png,l,1,003,001,2021-04-11_15h08.31.668,searchDisc4,2020.2.10,Win32,60,,,space,0.22739,1,1,0.603435,,0,343,343,550,1,2c,94,1,1,
,,,,,,,,,,,,,,,,,,,,,,,,,,images/exp2c_trial_97_colour1_distractors19_l.png,l,1,003,001,2021-04-11_15h08.31.668,searchDisc4,2020.2.10,Win32,60,,,space,0.207515,1,1,0.54568,,0,344,344,553,1,2c,97,1,19,
,,,,,,,,,,,,,,,,,,,,,,,,,,images/exp1b_trial_6_colour2_distractors1_r.png,r,2,003,001,2021-04-11_15h08.31.668,searchDisc4,2020.2.10,Win32,60,,,space,0.225565,2,1,0.68095,,0,345,345,120,1,1b,6,2,1,
,,,,,,,,,,,,,,,,,,,,,,,,,,images/exp2b_trial_0_colour1_distractors1_r.png,r,2,003,001,2021-04-11_15h08.31.668,searchDisc4,2020.2.10,Win32,60,,,space,0.24849,2,1,0.57373,,0,346,346,342,1,2b,0,1,1,
,,,,,,,,,,,,,,,,,,,,,,,,,,images/exp1b_trial_100_colour2_distractors1_l.png,l,1,003,001,2021-04-11_15h08.31.668,searchDisc4,2020.2.10,Win32,60,,,space,0.47927,1,1,0.560545,,0,347,347,214,1,1b,100,2,1,
,,,,,,,,,,,,,,,,,,,,,,,,,,images/exp1a_trial_70_colour3_distractors9_l.png,l,1,003,001,2021-04-11_15h08.31.668,searchDisc4,2020.2.10,Win32,60,,,space,0.24202,1,1,0.55974,,0,348,348,70,1,1a,70,3,9,
,,,,,,,,,,,,,,,,,,,,,,,,,,images/exp2c_trial_31_colour3_distractors4_l.png,l,1,003,001,2021-04-11_15h08.31.668,searchDisc4,2020.2.10,Win32,60,,,space,0.22295,1,1,0.468875,,0,349,349,487,1,2c,31,3,4,
,,,,,,,,,,,,,,,,,,,,,,,,,,images/exp2c_trial_0_colour1_distractors1_r.png,r,2,003,001,2021-04-11_15h08.31.668,searchDisc4,2020.2.10,Win32,60,,,space,0.15986,2,1,0.436905,,0,350,350,456,1,2c,0,1,1,
,,,,,,,,,,,,,,,,,,,,,,,,,,images/exp2a_trial_7_colour2_distractors4_r.png,r,2,003,001,2021-04-11_15h08.31.668,searchDisc4,2020.2.10,Win32,60,,,space,0.17779,2,1,0.47914,,0,351,351,235,1,2a,7,2,4,
,,,,,,,,,,,,,,,,,,,,,,,,,,images/exp2a_trial_87_colour2_distractors43_r.png,r,2,003,001,2021-04-11_15h08.31.668,searchDisc4,2020.2.10,Win32,60,,,space,0.280305,2,1,0.57127,,0,352,352,315,1,2a,87,2,43,
,,,,,,,,,,,,,,,,,,,,,,,,,,images/exp1b_trial_70_colour3_distractors9_l.png,l,1,003,001,2021-04-11_15h08.31.668,searchDisc4,2020.2.10,Win32,60,,,space,0.342655,1,1,0.79211,,0,353,353,184,1,1b,70,3,9,
,,,,,,,,,,,,,,,,,,,,,,,,,,images/exp1a_trial_94_colour1_distractors1_l.png,l,1,003,001,2021-04-11_15h08.31.668,searchDisc4,2020.2.10,Win32,60,,,space,0.29881,2,0,0.56198,,0,354,354,94,1,1a,94,1,1,
,,,,,,,,,,,,,,,,,,,,,,,,,,images/exp1a_trial_69_colour3_distractors4_l.png,l,1,003,001,2021-04-11_15h08.31.668,searchDisc4,2020.2.10,Win32,60,,,space,0.54789,1,1,0.824535,,0,355,355,69,1,1a,69,3,4,
,,,,,,,,,,,,,,,,,,,,,,,,,,images/exp1a_trial_84_colour2_distractors9_r.png,r,2,003,001,2021-04-11_15h08.31.668,searchDisc4,2020.2.10,Win32,60,,,space,0.39917,2,1,0.66332,,0,356,356,84,1,1a,84,2,9,
,,,,,,,,,,,,,,,,,,,,,,,,,,images/exp1b_trial_31_colour3_distractors4_l.png,l,1,003,001,2021-04-11_15h08.31.668,searchDisc4,2020.2.10,Win32,60,,,space,0.292135,1,1,0.78631,,0,357,357,145,1,1b,31,3,4,
,,,,,,,,,,,,,,,,,,,,,,,,,,images/exp2a_trial_91_colour3_distractors19_r.png,r,2,003,001,2021-04-11_15h08.31.668,searchDisc4,2020.2.10,Win32,60,,,space,0.233235,2,1,0.501175,,0,358,358,319,1,2a,91,3,19,
,,,,,,,,,,,,,,,,,,,,,,,,,,images/exp2a_trial_41_colour1_distractors19_r.png,r,2,003,001,2021-04-11_15h08.31.668,searchDisc4,2020.2.10,Win32,60,,,space,0.158015,2,1,0.804395,space,0,359,359,269,1,2a,41,1,19,6.024105
,,,,,,,,,,,,,,,,,,,,,,,,,,images/exp1a_trial_44_colour2_distractors1_r.png,r,2,003,001,2021-04-11_15h08.31.668,searchDisc4,2020.2.10,Win32,60,,,space,0.794865,2,1,0.74992,,0,360,360,44,1,1a,44,2,1,
,,,,,,,,,,,,,,,,,,,,,,,,,,images/exp2b_trial_72_colour3_distractors31_l.png,l,1,003,001,2021-04-11_15h08.31.668,searchDisc4,2020.2.10,Win32,60,,,space,0.18407,1,1,1.056235,,0,361,361,414,1,2b,72,3,31,
,,,,,,,,,,,,,,,,,,,,,,,,,,images/exp2b_trial_60_colour1_distractors31_l.png,l,1,003,001,2021-04-11_15h08.31.668,searchDisc4,2020.2.10,Win32,60,,,space,0.23796,1,1,0.53705,,0,362,362,402,1,2b,60,1,31,
,,,,,,,,,,,,,,,,,,,,,,,,,,images/exp1a_trial_83_colour2_distractors4_r.png,r,2,003,001,2021-04-11_15h08.31.668,searchDisc4,2020.2.10,Win32,60,,,space,0.20783,2,1,0.62098,,0,363,363,83,1,1a,83,2,4,
,,,,,,,,,,,,,,,,,,,,,,,,,,images/exp2b_trial_105_colour2_distractors43_l.png,l,1,003,001,2021-04-11_15h08.31.668,searchDisc4,2020.2.10,Win32,60,,,space,0.270555,1,1,0.627605,,0,364,364,447,1,2b,105,2,43,
,,,,,,,,,,,,,,,,,,,,,,,,,,images/exp2b_trial_11_colour2_distractors43_r.png,r,2,003,001,2021-04-11_15h08.31.668,searchDisc4,2020.2.10,Win32,60,,,space,0.250325,2,1,0.55496,,0,365,365,353,1,2b,11,2,43,
,,,,,,,,,,,,,,,,,,,,,,,,,,images/exp1a_trial_64_colour2_distractors9_l.png,l,1,003,001,2021-04-11_15h08.31.668,searchDisc4,2020.2.10,Win32,60,,,space,0.22864,1,1,0.773565,,0,366,366,64,1,1a,64,2,9,
,,,,,,,,,,,,,,,,,,,,,,,,,,images/exp2c_trial_88_colour3_distractors1_r.png,r,2,003,001,2021-04-11_15h08.31.668,searchDisc4,2020.2.10,Win32,60,,,space,0.272235,2,1,0.68728,,0,367,367,544,1,2c,88,3,1,
,,,,,,,,,,,,,,,,,,,,,,,,,,images/exp2c_trial_16_colour3_distractors31_r.png,r,2,003,001,2021-04-11_15h08.31.668,searchDisc4,2020.2.10,Win32,60,,,space,0.263655,2,1,0.494825,,0,368,368,472,1,2c,16,3,31,
,,,,,,,,,,,,,,,,,,,,,,,,,,images/exp2c_trial_63_colour2_distractors4_l.png,l,1,003,001,2021-04-11_15h08.31.668,searchDisc4,2020.2.10,Win32,60,,,space,0.220055,1,1,0.64133,,0,369,369,519,1,2c,63,2,4,
,,,,,,,,,,,,,,,,,,,,,,,,,,images/exp1a_trial_87_colour2_distractors43_r.png,r,2,003,001,2021-04-11_15h08.31.668,searchDisc4,2020.2.10,Win32,60,,,space,0.23627,2,1,0.84598,,0,370,370,87,1,1a,87,2,43,
,,,,,,,,,,,,,,,,,,,,,,,,,,images/exp2a_trial_2_colour1_distractors9_r.png,r,2,003,001,2021-04-11_15h08.31.668,searchDisc4,2020.2.10,Win32,60,,,space,0.305035,2,1,0.74425,,0,371,371,230,1,2a,2,1,9,
,,,,,,,,,,,,,,,,,,,,,,,,,,images/exp1a_trial_97_colour1_distractors19_l.png,l,1,003,001,2021-04-11_15h08.31.668,searchDisc4,2020.2.10,Win32,60,,,space,0.167535,1,1,0.57654,,0,372,372,97,1,1a,97,1,19,
,,,,,,,,,,,,,,,,,,,,,,,,,,images/exp2a_trial_34_colour3_distractors31_l.png,l,1,003,001,2021-04-11_15h08.31.668,searchDisc4,2020.2.10,Win32,60,,,space,0.217355,1,1,0.46483,,0,373,373,262,1,2a,34,3,31,
,,,,,,,,,,,,,,,,,,,,,,,,,,images/exp1a_trial_58_colour1_distractors9_l.png,l,1,003,001,2021-04-11_15h08.31.668,searchDisc4,2020.2.10,Win32,60,,,space,0.21914,1,1,0.5279,,0,374,374,58,1,1a,58,1,9,
,,,,,,,,,,,,,,,,,,,,,,,,,,images/exp2b_trial_94_colour1_distractors1_l.png,l,1,003,001,2021-04-11_15h08.31.668,searchDisc4,2020.2.10,Win32,60,,,space,0.23336,1,1,0.446315,,0,375,375,436,1,2b,94,1,1,
,,,,,,,,,,,,,,,,,,,,,,,,,,images/exp2b_trial_12_colour3_distractors1_r.png,r,2,003,001,2021-04-11_15h08.31.668,searchDisc4,2020.2.10,Win32,60,,,space,0.231215,2,1,0.701425,,0,376,376,354,1,2b,12,3,1,
,,,,,,,,,,,,,,,,,,,,,,,,,,images/exp2a_trial_76_colour1_distractors1_r.png,r,2,003,001,2021-04-11_15h08.31.668,searchDisc4,2020.2.10,Win32,60,,,space,0.229405,2,1,0.52745,,0,377,377,304,1,2a,76,1,1,
,,,,,,,,,,,,,,,,,,,,,,,,,,images/exp2b_trial_16_colour3_distractors31_r.png,r,2,003,001,2021-04-11_15h08.31.668,searchDisc4,2020.2.10,Win32,60,,,space,0.243665,2,1,0.848545,,0,378,378,358,1,2b,16,3,31,
,,,,,,,,,,,,,,,,,,,,,,,,,,images/exp1b_trial_63_colour2_distractors4_l.png,l,1,003,001,2021-04-11_15h08.31.668,searchDisc4,2020.2.10,Win32,60,,,space,0.3764,1,1,0.569045,,0,379,379,177,1,1b,63,2,4,
,,,,,,,,,,,,,,,,,,,,,,,,,,images/exp1b_trial_38_colour1_distractors1_r.png,r,2,003,001,2021-04-11_15h08.31.668,searchDisc4,2020.2.10,Win32,60,,,space,0.220235,2,1,0.64369,,0,380,380,152,1,1b,38,1,1,
,,,,,,,,,,,,,,,,,,,,,,,,,,images/exp2c_trial_26_colour2_distractors9_l.png,l,1,003,001,2021-04-11_15h08.31.668,searchDisc4,2020.2.10,Win32,60,,,space,0.29421,1,1,0.4803,,0,381,381,482,1,2c,26,2,9,
,,,,,,,,,,,,,,,,,,,,,,,,,,images/exp2a_trial_46_colour2_distractors9_r.png,r,2,003,001,2021-04-11_15h08.31.668,searchDisc4,2020.2.10,Win32,60,,,space,0.189225,2,1,0.604535,,0,382,382,274,1,2a,46,2,9,
,,,,,,,,,,,,,,,,,,,,,,,,,,images/exp2a_trial_24_colour2_distractors1_l.png,l,1,003,001,2021-04-11_15h08.31.668,searchDisc4,2020.2.10,Win32,60,,,space,0.2253,1,1,0.455845,,0,383,383,252,1,2a,24,2,1,
,,,,,,,,,,,,,,,,,,,,,,,,,,images/exp2c_trial_101_colour2_distractors4_l.png,l,1,003,001,2021-04-11_15h08.31.668,searchDisc4,2020.2.10,Win32,60,,,space,0.18074,1,1,0.62446,,0,384,384,557,1,2c,101,2,4,
,,,,,,,,,,,,,,,,,,,,,,,,,,images/exp2a_trial_68_colour3_distractors1_l.png,l,1,003,001,2021-04-11_15h08.31.668,searchDisc4,2020.2.10,Win32,60,,,space,0.312005,1,1,0.473885,,0,385,385,296,1,2a,68,3,1,
,,,,,,,,,,,,,,,,,,,,,,,,,,images/exp2b_trial_71_colour3_distractors19_l.png,l,1,003,001,2021-04-11_15h08.31.668,searchDisc4,2020.2.10,Win32,60,,,space,0.22278,1,1,0.447385,,0,386,386,413,1,2b,71,3,19,
,,,,,,,,,,,,,,,,,,,,,,,,,,images/exp2c_trial_5_colour1_distractors43_r.png,r,2,003,001,2021-04-11_15h08.31.668,searchDisc4,2020.2.10,Win32,60,,,space,0.18031,2,1,0.472825,,0,387,387,461,1,2c,5,1,43,
,,,,,,,,,,,,,,,,,,,,,,,,,,images/exp2b_trial_30_colour3_distractors1_l.png,l,1,003,001,2021-04-11_15h08.31.668,searchDisc4,2020.2.10,Win32,60,,,space,0.292325,2,0,0.625565,,0,388,388,372,1,2b,30,3,1,
,,,,,,,,,,,,,,,,,,,,,,,,,,images/exp2a_trial_20_colour1_distractors9_l.png,l,1,003,001,2021-04-11_15h08.31.668,searchDisc4,2020.2.10,Win32,60,,,space,0.733085,1,1,0.582775,,0,389,389,248,1,2a,20,1,9,
,,,,,,,,,,,,,,,,,,,,,,,,,,images/exp2a_trial_56_colour1_distractors1_l.png,l,1,003,001,2021-04-11_15h08.31.668,searchDisc4,2020.2.10,Win32,60,,,space,0.229315,1,1,0.570835,,0,390,390,284,1,2a,56,1,1,
,,,,,,,,,,,,,,,,,,,,,,,,,,images/exp2a_trial_27_colour2_distractors19_l.png,l,1,003,001,2021-04-11_15h08.31.668,searchDisc4,2020.2.10,Win32,60,,,space,0.23387,1,1,0.448015,,0,391,391,255,1,2a,27,2,19,
,,,,,,,,,,,,,,,,,,,,,,,,,,images/exp1a_trial_102_colour2_distractors9_l.png,l,1,003,001,2021-04-11_15h08.31.668,searchDisc4,2020.2.10,Win32,60,,,space,0.182425,1,1,0.746395,,0,392,392,102,1,1a,102,2,9,
,,,,,,,,,,,,,,,,,,,,,,,,,,images/exp1b_trial_29_colour2_distractors43_l.png,l,1,003,001,2021-04-11_15h08.31.668,searchDisc4,2020.2.10,Win32,60,,,space,0.285635,1,1,1.305275,,0,393,393,143,1,1b,29,2,43,
,,,,,,,,,,,,,,,,,,,,,,,,,,images/exp2a_trial_25_colour2_distractors4_l.png,l,1,003,001,2021-04-11_15h08.31.668,searchDisc4,2020.2.10,Win32,60,,,space,0.256455,1,1,0.57311,,0,394,394,253,1,2a,25,2,4,
,,,,,,,,,,,,,,,,,,,,,,,,,,images/exp2c_trial_40_colour1_distractors9_r.png,r,2,003,001,2021-04-11_15h08.31.668,searchDisc4,2020.2.10,Win32,60,,,space,0.25709,2,1,0.52458,,0,395,395,496,1,2c,40,1,9,
,,,,,,,,,,,,,,,,,,,,,,,,,,images/exp1b_trial_44_colour2_distractors1_r.png,r,2,003,001,2021-04-11_15h08.31.668,searchDisc4,2020.2.10,Win32,60,,,space,0.245445,2,1,0.652565,,0,396,396,158,1,1b,44,2,1,
,,,,,,,,,,,,,,,,,,,,,,,,,,images/exp2c_trial_37_colour0_distractors0_l.png,l,1,003,001,2021-04-11_15h08.31.668,searchDisc4,2020.2.10,Win32,60,,,space,0.268355,1,1,0.54638,,0,397,397,493,1,2c,37,0,0,
,,,,,,,,,,,,,,,,,,,,,,,,,,images/exp1b_trial_55_colour3_distractors43_r.png,r,2,003,001,2021-04-11_15h08.31.668,searchDisc4,2020.2.10,Win32,60,,,space,0.29353,2,1,1.8878,,0,398,398,169,1,1b,55,3,43,
,,,,,,,,,,,,,,,,,,,,,,,,,,images/exp2c_trial_64_colour2_distractors9_l.png,l,1,003,001,2021-04-11_15h08.31.668,searchDisc4,2020.2.10,Win32,60,,,space,0.249745,1,1,0.61347,,0,399,399,520,1,2c,64,2,9,
,,,,,,,,,,,,,,,,,,,,,,,,,,images/exp1a_trial_40_colour1_distractors9_r.png,r,2,003,001,2021-04-11_15h08.31.668,searchDisc4,2020.2.10,Win32,60,,,space,0.26419,2,1,0.663365,,0,400,400,40,1,1a,40,1,9,
,,,,,,,,,,,,,,,,,,,,,,,,,,images/exp1a_trial_26_colour2_distractors9_l.png,l,1,003,001,2021-04-11_15h08.31.668,searchDisc4,2020.2.10,Win32,60,,,space,0.229295,1,1,0.87528,,0,401,401,26,1,1a,26,2,9,
,,,,,,,,,,,,,,,,,,,,,,,,,,images/exp1b_trial_65_colour2_distractors19_l.png,l,1,003,001,2021-04-11_15h08.31.668,searchDisc4,2020.2.10,Win32,60,,,space,0.215885,1,1,1.06415,,0,402,402,179,1,1b,65,2,19,
,,,,,,,,,,,,,,,,,,,,,,,,,,images/exp2b_trial_13_colour3_distractors4_r.png,r,2,003,001,2021-04-11_15h08.31.668,searchDisc4,2020.2.10,Win32,60,,,space,0.25693,2,1,0.63404,,0,403,403,355,1,2b,13,3,4,
,,,,,,,,,,,,,,,,,,,,,,,,,,images/exp1b_trial_5_colour1_distractors43_r.png,r,2,003,001,2021-04-11_15h08.31.668,searchDisc4,2020.2.10,Win32,60,,,space,0.216085,2,1,0.809485,,0,404,404,119,1,1b,5,1,43,
,,,,,,,,,,,,,,,,,,,,,,,,,,images/exp1a_trial_107_colour3_distractors4_l.png,l,1,003,001,2021-04-11_15h08.31.668,searchDisc4,2020.2.10,Win32,60,,,space,0.25028,1,1,0.74909,,0,405,405,107,1,1a,107,3,4,
,,,,,,,,,,,,,,,,,,,,,,,,,,images/exp1a_trial_74_colour0_distractors0_r.png,r,2,003,001,2021-04-11_15h08.31.668,searchDisc4,2020.2.10,Win32,60,,,space,0.23091,2,1,0.60709,,0,406,406,74,1,1a,74,0,0,
,,,,,,,,,,,,,,,,,,,,,,,,,,images/exp2b_trial_61_colour1_distractors43_l.png,l,1,003,001,2021-04-11_15h08.31.668,searchDisc4,2020.2.10,Win32,60,,,space,0.241155,1,1,0.61552,,0,407,407,403,1,2b,61,1,43,
,,,,,,,,,,,,,,,,,,,,,,,,,,images/exp2b_trial_96_colour1_distractors9_l.png,l,1,003,001,2021-04-11_15h08.31.668,searchDisc4,2020.2.10,Win32,60,,,space,0.23645,1,1,0.63896,,0,408,408,438,1,2b,96,1,9,
,,,,,,,,,,,,,,,,,,,,,,,,,,images/exp2c_trial_57_colour1_distractors4_l.png,l,1,003,001,2021-04-11_15h08.31.668,searchDisc4,2020.2.10,Win32,60,,,space,0.239455,1,1,0.49655,,0,409,409,513,1,2c,57,1,4,
,,,,,,,,,,,,,,,,,,,,,,,,,,images/exp1a_trial_11_colour2_distractors43_r.png,r,2,003,001,2021-04-11_15h08.31.668,searchDisc4,2020.2.10,Win32,60,,,space,0.216225,2,1,0.62555,,0,410,410,11,1,1a,11,2,43,
,,,,,,,,,,,,,,,,,,,,,,,,,,images/exp1b_trial_77_colour1_distractors4_r.png,r,2,003,001,2021-04-11_15h08.31.668,searchDisc4,2020.2.10,Win32,60,,,space,0.179025,2,1,0.68009,,0,411,411,191,1,1b,77,1,4,
,,,,,,,,,,,,,,,,,,,,,,,,,,images/exp2b_trial_65_colour2_distractors19_l.png,l,1,003,001,2021-04-11_15h08.31.668,searchDisc4,2020.2.10,Win32,60,,,space,0.1935,1,1,0.571035,,0,412,412,407,1,2b,65,2,19,
,,,,,,,,,,,,,,,,,,,,,,,,,,images/exp2c_trial_91_colour3_distractors19_r.png,r,2,003,001,2021-04-11_15h08.31.668,searchDisc4,2020.2.10,Win32,60,,,space,0.21261,2,1,0.575405,,0,413,413,547,1,2c,91,3,19,
,,,,,,,,,,,,,,,,,,,,,,,,,,images/exp2c_trial_2_colour1_distractors9_r.png,r,2,003,001,2021-04-11_15h08.31.668,searchDisc4,2020.2.10,Win32,60,,,space,0.216895,2,1,0.76131,,0,414,414,458,1,2c,2,1,9,
,,,,,,,,,,,,,,,,,,,,,,,,,,images/exp2b_trial_3_colour1_distractors19_r.png,r,2,003,001,2021-04-11_15h08.31.668,searchDisc4,2020.2.10,Win32,60,,,space,0.20974,2,1,0.433365,,0,415,415,345,1,2b,3,1,19,
,,,,,,,,,,,,,,,,,,,,,,,,,,images/exp2a_trial_92_colour3_distractors31_r.png,r,2,003,001,2021-04-11_15h08.31.668,searchDisc4,2020.2.10,Win32,60,,,space,0.20568,2,1,0.556985,,0,416,416,320,1,2a,92,3,31,
,,,,,,,,,,,,,,,,,,,,,,,,,,images/exp2a_trial_52_colour3_distractors9_r.png,r,2,003,001,2021-04-11_15h08.31.668,searchDisc4,2020.2.10,Win32,60,,,space,0.240555,2,1,0.44752,,0,417,417,280,1,2a,52,3,9,
,,,,,,,,,,,,,,,,,,,,,,,,,,images/exp1a_trial_5_colour1_distractors43_r.png,r,2,003,001,2021-04-11_15h08.31.668,searchDisc4,2020.2.10,Win32,60,,,space,0.25017,2,1,0.545125,,0,418,418,5,1,1a,5,1,43,
,,,,,,,,,,,,,,,,,,,,,,,,,,images/exp1a_trial_14_colour3_distractors9_r.png,r,2,003,001,2021-04-11_15h08.31.668,searchDisc4,2020.2.10,Win32,60,,,space,0.237055,2,1,0.43383,space,0,419,419,14,1,1a,14,3,9,0.22317
,,,,,,,,,,,,,,,,,,,,,,,,,,images/exp2a_trial_63_colour2_distractors4_l.png,l,1,003,001,2021-04-11_15h08.31.668,searchDisc4,2020.2.10,Win32,60,,,space,0.84078,1,1,0.5102,,0,420,420,291,1,2a,63,2,4,
,,,,,,,,,,,,,,,,,,,,,,,,,,images/exp2b_trial_113_colour0_distractors0_l.png,l,1,003,001,2021-04-11_15h08.31.668,searchDisc4,2020.2.10,Win32,60,,,space,0.23644,1,1,0.449965,,0,421,421,455,1,2b,113,0,0,
,,,,,,,,,,,,,,,,,,,,,,,,,,images/exp1b_trial_90_colour3_distractors9_r.png,r,2,003,001,2021-04-11_15h08.31.668,searchDisc4,2020.2.10,Win32,60,,,space,0.202365,2,1,0.69066,,0,422,422,204,1,1b,90,3,9,
,,,,,,,,,,,,,,,,,,,,,,,,,,images/exp1a_trial_45_colour2_distractors4_r.png,r,2,003,001,2021-04-11_15h08.31.668,searchDisc4,2020.2.10,Win32,60,,,space,0.22147,2,1,0.703655,,0,423,423,45,1,1a,45,2,4,
,,,,,,,,,,,,,,,,,,,,,,,,,,images/exp2a_trial_13_colour3_distractors4_r.png,r,2,003,001,2021-04-11_15h08.31.668,searchDisc4,2020.2.10,Win32,60,,,space,0.335665,2,1,0.557655,,0,424,424,241,1,2a,13,3,4,
,,,,,,,,,,,,,,,,,,,,,,,,,,images/exp1a_trial_101_colour2_distractors4_l.png,l,1,003,001,2021-04-11_15h08.31.668,searchDisc4,2020.2.10,Win32,60,,,space,0.23709,1,1,0.47877,,0,425,425,101,1,1a,101,2,4,
,,,,,,,,,,,,,,,,,,,,,,,,,,images/exp2b_trial_101_colour2_distractors4_l.png,l,1,003,001,2021-04-11_15h08.31.668,searchDisc4,2020.2.10,Win32,60,,,space,0.271675,1,1,0.42375,,0,426,426,443,1,2b,101,2,4,
,,,,,,,,,,,,,,,,,,,,,,,,,,images/exp1a_trial_47_colour2_distractors19_r.png,r,2,003,001,2021-04-11_15h08.31.668,searchDisc4,2020.2.10,Win32,60,,,space,0.29124,2,1,0.57173,,0,427,427,47,1,1a,47,2,19,
,,,,,,,,,,,,,,,,,,,,,,,,,,images/exp1a_trial_25_colour2_distractors4_l.png,l,1,003,001,2021-04-11_15h08.31.668,searchDisc4,2020.2.10,Win32,60,,,space,0.21341,1,1,0.60484,,0,428,428,25,1,1a,25,2,4,
,,,,,,,,,,,,,,,,,,,,,,,,,,images/exp2c_trial_112_colour0_distractors0_r.png,r,2,003,001,2021-04-11_15h08.31.668,searchDisc4,2020.2.10,Win32,60,,,space,0.24656,2,1,0.45173,,0,429,429,568,1,2c,112,0,0,
,,,,,,,,,,,,,,,,,,,,,,,,,,images/exp1b_trial_52_colour3_distractors9_r.png,r,2,003,001,2021-04-11_15h08.31.668,searchDisc4,2020.2.10,Win32,60,,,space,0.243695,2,1,1.126535,,0,430,430,166,1,1b,52,3,9,
,,,,,,,,,,,,,,,,,,,,,,,,,,images/exp2b_trial_90_colour3_distractors9_r.png,r,2,003,001,2021-04-11_15h08.31.668,searchDisc4,2020.2.10,Win32,60,,,space,0.27287,1,0,0.53358,,0,431,431,432,1,2b,90,3,9,
,,,,,,,,,,,,,,,,,,,,,,,,,,images/exp1a_trial_24_colour2_distractors1_l.png,l,1,003,001,2021-04-11_15h08.31.668,searchDisc4,2020.2.10,Win32,60,,,space,0.457675,1,1,0.583315,,0,432,432,24,1,1a,24,2,1,
,,,,,,,,,,,,,,,,,,,,,,,,,,images/exp2a_trial_32_colour3_distractors9_l.png,l,1,003,001,2021-04-11_15h08.31.668,searchDisc4,2020.2.10,Win32,60,,,space,0.260275,1,1,0.614585,,0,433,433,260,1,2a,32,3,9,
,,,,,,,,,,,,,,,,,,,,,,,,,,images/exp1b_trial_67_colour2_distractors43_l.png,l,1,003,001,2021-04-11_15h08.31.668,searchDisc4,2020.2.10,Win32,60,,,space,0.231385,1,1,1.073115,,0,434,434,181,1,1b,67,2,43,
,,,,,,,,,,,,,,,,,,,,,,,,,,images/exp2a_trial_47_colour2_distractors19_r.png,r,2,003,001,2021-04-11_15h08.31.668,searchDisc4,2020.2.10,Win32,60,,,space,0.23847,2,1,0.623415,,0,435,435,275,1,2a,47,2,19,
,,,,,,,,,,,,,,,,,,,,,,,,,,images/exp1a_trial_20_colour1_distractors9_l.png,l,1,003,001,2021-04-11_15h08.31.668,searchDisc4,2020.2.10,Win32,60,,,space,0.215655,1,1,0.68093,,0,436,436,20,1,1a,20,1,9,
,,,,,,,,,,,,,,,,,,,,,,,,,,images/exp1a_trial_55_colour3_distractors43_r.png,r,2,003,001,2021-04-11_15h08.31.668,searchDisc4,2020.2.10,Win32,60,,,space,0.2143,2,1,0.590615,,0,437,437,55,1,1a,55,3,43,
,,,,,,,,,,,,,,,,,,,,,,,,,,images/exp1b_trial_46_colour2_distractors9_r.png,r,2,003,001,2021-04-11_15h08.31.668,searchDisc4,2020.2.10,Win32,60,,,space,0.22788,2,1,0.671545,,0,438,438,160,1,1b,46,2,9,
,,,,,,,,,,,,,,,,,,,,,,,,,,images/exp2b_trial_44_colour2_distractors1_r.png,r,2,003,001,2021-04-11_15h08.31.668,searchDisc4,2020.2.10,Win32,60,,,space,0.21542,2,1,0.781295,,0,439,439,386,1,2b,44,2,1,
,,,,,,,,,,,,,,,,,,,,,,,,,,images/exp2b_trial_76_colour1_distractors1_r.png,r,2,003,001,2021-04-11_15h08.31.668,searchDisc4,2020.2.10,Win32,60,,,space,0.22262,2,1,0.555285,,0,440,440,418,1,2b,76,1,1,
,,,,,,,,,,,,,,,,,,,,,,,,,,images/exp2c_trial_9_colour2_distractors19_r.png,r,2,003,001,2021-04-11_15h08.31.668,searchDisc4,2020.2.10,Win32,60,,,space,0.22939,2,1,0.66755,,0,441,441,465,1,2c,9,2,19,
,,,,,,,,,,,,,,,,,,,,,,,,,,images/exp2a_trial_15_colour3_distractors19_r.png,r,2,003,001,2021-04-11_15h08.31.668,searchDisc4,2020.2.10,Win32,60,,,space,0.236705,2,1,0.48011,,0,442,442,243,1,2a,15,3,19,
,,,,,,,,,,,,,,,,,,,,,,,,,,images/exp2a_trial_49_colour2_distractors43_r.png,r,2,003,001,2021-04-11_15h08.31.668,searchDisc4,2020.2.10,Win32,60,,,space,0.258335,2,1,0.536685,,0,443,443,277,1,2a,49,2,43,
,,,,,,,,,,,,,,,,,,,,,,,,,,images/exp2a_trial_103_colour2_distractors19_l.png,l,1,003,001,2021-04-11_15h08.31.668,searchDisc4,2020.2.10,Win32,60,,,space,0.23205,1,1,0.55215,,0,444,444,331,1,2a,103,2,19,
,,,,,,,,,,,,,,,,,,,,,,,,,,images/exp1b_trial_47_colour2_distractors19_r.png,r,2,003,001,2021-04-11_15h08.31.668,searchDisc4,2020.2.10,Win32,60,,,space,0.24464,2,1,0.716435,,0,445,445,161,1,1b,47,2,19,
,,,,,,,,,,,,,,,,,,,,,,,,,,images/exp1b_trial_28_colour2_distractors31_l.png,l,1,003,001,2021-04-11_15h08.31.668,searchDisc4,2020.2.10,Win32,60,,,space,0.248335,1,1,0.63906,,0,446,446,142,1,1b,28,2,31,
,,,,,,,,,,,,,,,,,,,,,,,,,,images/exp2c_trial_98_colour1_distractors31_l.png,l,1,003,001,2021-04-11_15h08.31.668,searchDisc4,2020.2.10,Win32,60,,,space,0.24209,1,1,0.45298,,0,447,447,554,1,2c,98,1,31,
,,,,,,,,,,,,,,,,,,,,,,,,,,images/exp2c_trial_81_colour1_distractors43_r.png,r,2,003,001,2021-04-11_15h08.31.668,searchDisc4,2020.2.10,Win32,60,,,space,0.34957,2,1,0.489585,,0,448,448,537,1,2c,81,1,43,
,,,,,,,,,,,,,,,,,,,,,,,,,,images/exp2b_trial_99_colour1_distractors43_l.png,l,1,003,001,2021-04-11_15h08.31.668,searchDisc4,2020.2.10,Win32,60,,,space,0.25338,2,0,0.388955,,0,449,449,441,1,2b,99,1,43,
,,,,,,,,,,,,,,,,,,,,,,,,,,images/exp2b_trial_85_colour2_distractors19_r.png,r,2,003,001,2021-04-11_15h08.31.668,searchDisc4,2020.2.10,Win32,60,,,space,0.42539,2,1,0.439715,,0,450,450,427,1,2b,85,2,19,
,,,,,,,,,,,,,,,,,,,,,,,,,,images/exp2c_trial_93_colour3_distractors43_r.png,r,2,003,001,2021-04-11_15h08.31.668,searchDisc4,2020.2.10,Win32,60,,,space,0.24474,2,1,0.644835,,0,451,451,549,1,2c,93,3,43,
,,,,,,,,,,,,,,,,,,,,,,,,,,images/exp1b_trial_23_colour1_distractors43_l.png,l,1,003,001,2021-04-11_15h08.31.668,searchDisc4,2020.2.10,Win32,60,,,space,0.230385,1,1,0.791565,,0,452,452,137,1,1b,23,1,43,
,,,,,,,,,,,,,,,,,,,,,,,,,,images/exp1b_trial_66_colour2_distractors31_l.png,l,1,003,001,2021-04-11_15h08.31.668,searchDisc4,2020.2.10,Win32,60,,,space,0.304815,1,1,0.54465,,0,453,453,180,1,1b,66,2,31,
,,,,,,,,,,,,,,,,,,,,,,,,,,images/exp1a_trial_75_colour0_distractors0_l.png,l,1,003,001,2021-04-11_15h08.31.668,searchDisc4,2020.2.10,Win32,60,,,space,0.306015,1,1,0.46378,,0,454,454,75,1,1a,75,0,0,
,,,,,,,,,,,,,,,,,,,,,,,,,,images/exp2a_trial_78_colour1_distractors9_r.png,r,2,003,001,2021-04-11_15h08.31.668,searchDisc4,2020.2.10,Win32,60,,,space,0.2437,2,1,0.703635,,0,455,455,306,1,2a,78,1,9,
,,,,,,,,,,,,,,,,,,,,,,,,,,images/exp1b_trial_79_colour1_distractors19_r.png,r,2,003,001,2021-04-11_15h08.31.668,searchDisc4,2020.2.10,Win32,60,,,space,0.220005,2,1,0.548515,,0,456,456,193,1,1b,79,1,19,
,,,,,,,,,,,,,,,,,,,,,,,,,,images/exp2c_trial_83_colour2_distractors4_r.png,r,2,003,001,2021-04-11_15h08.31.668,searchDisc4,2020.2.10,Win32,60,,,space,0.262675,2,1,0.501375,,0,457,457,539,1,2c,83,2,4,
,,,,,,,,,,,,,,,,,,,,,,,,,,images/exp2b_trial_37_colour0_distractors0_l.png,l,1,003,001,2021-04-11_15h08.31.668,searchDisc4,2020.2.10,Win32,60,,,space,0.22832,1,1,0.74533,,0,458,458,379,1,2b,37,0,0,
,,,,,,,,,,,,,,,,,,,,,,,,,,images/exp2a_trial_55_colour3_distractors43_r.png,r,2,003,001,2021-04-11_15h08.31.668,searchDisc4,2020.2.10,Win32,60,,,space,0.22929,2,1,0.64088,,0,459,459,283,1,2a,55,3,43,
,,,,,,,,,,,,,,,,,,,,,,,,,,images/exp2a_trial_16_colour3_distractors31_r.png,r,2,003,001,2021-04-11_15h08.31.668,searchDisc4,2020.2.10,Win32,60,,,space,0.23441,2,1,0.68064,,0,460,460,244,1,2a,16,3,31,
,,,,,,,,,,,,,,,,,,,,,,,,,,images/exp1b_trial_42_colour1_distractors31_r.png,r,2,003,001,2021-04-11_15h08.31.668,searchDisc4,2020.2.10,Win32,60,,,space,0.25086,2,1,0.76233,,0,461,461,156,1,1b,42,1,31,
,,,,,,,,,,,,,,,,,,,,,,,,,,images/exp1b_trial_96_colour1_distractors9_l.png,l,1,003,001,2021-04-11_15h08.31.668,searchDisc4,2020.2.10,Win32,60,,,space,0.217715,1,1,0.621845,,0,462,462,210,1,1b,96,1,9,
,,,,,,,,,,,,,,,,,,,,,,,,,,images/exp1a_trial_46_colour2_distractors9_r.png,r,2,003,001,2021-04-11_15h08.31.668,searchDisc4,2020.2.10,Win32,60,,,space,0.246755,2,1,0.548945,,0,463,463,46,1,1a,46,2,9,
,,,,,,,,,,,,,,,,,,,,,,,,,,images/exp2c_trial_51_colour3_distractors4_r.png,r,2,003,001,2021-04-11_15h08.31.668,searchDisc4,2020.2.10,Win32,60,,,space,0.24932,2,1,0.536275,,0,464,464,507,1,2c,51,3,4,
,,,,,,,,,,,,,,,,,,,,,,,,,,images/exp1a_trial_112_colour0_distractors0_r.png,r,2,003,001,2021-04-11_15h08.31.668,searchDisc4,2020.2.10,Win32,60,,,space,0.21386,2,1,0.456405,,0,465,465,112,1,1a,112,0,0,
,,,,,,,,,,,,,,,,,,,,,,,,,,images/exp2c_trial_21_colour1_distractors19_l.png,l,1,003,001,2021-04-11_15h08.31.668,searchDisc4,2020.2.10,Win32,60,,,space,0.2441,2,0,0.406025,,0,466,466,477,1,2c,21,1,19,
,,,,,,,,,,,,,,,,,,,,,,,,,,images/exp1a_trial_8_colour2_distractors9_r.png,r,2,003,001,2021-04-11_15h08.31.668,searchDisc4,2020.2.10,Win32,60,,,space,0.300335,2,1,0.6141,,0,467,467,8,1,1a,8,2,9,
,,,,,,,,,,,,,,,,,,,,,,,,,,images/exp1a_trial_85_colour2_distractors19_r.png,r,2,003,001,2021-04-11_15h08.31.668,searchDisc4,2020.2.10,Win32,60,,,space,0.19872,2,1,0.74377,,0,468,468,85,1,1a,85,2,19,
,,,,,,,,,,,,,,,,,,,,,,,,,,images/exp1b_trial_7_colour2_distractors4_r.png,r,2,003,001,2021-04-11_15h08.31.668,searchDisc4,2020.2.10,Win32,60,,,space,0.224495,2,1,0.88333,,0,469,469,121,1,1b,7,2,4,
,,,,,,,,,,,,,,,,,,,,,,,,,,images/exp2a_trial_43_colour1_distractors43_r.png,r,2,003,001,2021-04-11_15h08.31.668,searchDisc4,2020.2.10,Win32,60,,,space,0.180535,2,1,0.581135,,0,470,470,271,1,2a,43,1,43,
,,,,,,,,,,,,,,,,,,,,,,,,,,images/exp1a_trial_28_colour2_distractors31_l.png,l,1,003,001,2021-04-11_15h08.31.668,searchDisc4,2020.2.10,Win32,60,,,space,0.180985,1,1,0.87577,,0,471,471,28,1,1a,28,2,31,
,,,,,,,,,,,,,,,,,,,,,,,,,,images/exp1a_trial_92_colour3_distractors31_r.png,r,2,003,001,2021-04-11_15h08.31.668,searchDisc4,2020.2.10,Win32,60,,,space,0.2073,2,1,0.791335,,0,472,472,92,1,1a,92,3,31,
,,,,,,,,,,,,,,,,,,,,,,,,,,images/exp1b_trial_74_colour0_distractors0_r.png,r,2,003,001,2021-04-11_15h08.31.668,searchDisc4,2020.2.10,Win32,60,,,space,0.20642,2,1,0.72301,,0,473,473,188,1,1b,74,0,0,
,,,,,,,,,,,,,,,,,,,,,,,,,,images/exp2a_trial_12_colour3_distractors1_r.png,r,2,003,001,2021-04-11_15h08.31.668,searchDisc4,2020.2.10,Win32,60,,,space,0.14604,2,1,0.62989,,0,474,474,240,1,2a,12,3,1,
,,,,,,,,,,,,,,,,,,,,,,,,,,images/exp2a_trial_40_colour1_distractors9_r.png,r,2,003,001,2021-04-11_15h08.31.668,searchDisc4,2020.2.10,Win32,60,,,space,0.3351,2,1,0.632915,,0,475,475,268,1,2a,40,1,9,
,,,,,,,,,,,,,,,,,,,,,,,,,,images/exp1a_trial_35_colour3_distractors43_l.png,l,1,003,001,2021-04-11_15h08.31.668,searchDisc4,2020.2.10,Win32,60,,,space,0.301365,1,1,0.67455,,0,476,476,35,1,1a,35,3,43,
