X Scale,Y Scale,key_resp_10.keys,key_resp_10.rt,key_resp_11.keys,key_resp_11.rt,key_resp_12.keys,key_resp_12.rt,key_resp_13.keys,key_resp_13.rt,key_resp_5.keys,key_resp_5.rt,key_resp_8.keys,key_resp_8.rt,key_resp_6.keys,key_resp_6.rt,key_resp_7.keys,key_resp_7.rt,key_resp_4.keys,key_resp_4.corr,key_resp_4.rt,trials_2.thisRepN,trials_2.thisTrialN,trials_2.thisN,trials_2.thisIndex,trials_2.ran,ImageFile,targ_side,correctAnswer,participant,session,date,expName,psychopyVersion,OS,frameRate,key_resp_3.keys,key_resp_3.rt,key_resp_9.keys,key_resp_9.rt,key_resp_2.keys,key_resp_2.corr,key_resp_2.rt,key_resp.keys,trials.thisRepN,trials.thisTrialN,trials.thisN,trials.thisIndex,trials.ran,exp,trial,colour,distNo,key_resp.rt
34.3,34.6,space,6.19,space,10.182,space,9.999,space,1.596,space,139.731,space,8.688,space,0.447,space,2.984,1,1,0.794,0,0,0,10,1,Practice arrays/exp1a_trial_20_colour1_distractors9_l.png,l,1,004,001,2021-04-13_16h34.16.267,searchDisc4,2020.2.10,MacIntel,60,,,,,,,,,,,,,,,,,,
,,,,,,,,,,,,,,,,space,0.681,2,1,0.637,0,1,1,2,1,Practice arrays/exp1a_trial_5_colour1_distractors43_r.png,r,2,004,001,2021-04-13_16h34.16.267,searchDisc4,2020.2.10,MacIntel,60,,,,,,,,,,,,,,,,,,
,,,,,,,,,,,,,,,,space,1.407,2,1,0.901,0,2,2,7,1,Practice arrays/exp1a_trial_13_colour3_distractors4_r.png,r,2,004,001,2021-04-13_16h34.16.267,searchDisc4,2020.2.10,MacIntel,60,,,,,,,,,,,,,,,,,,
,,,,,,,,,,,,,,,,space,0.267,2,1,0.678,0,3,3,5,1,Practice arrays/exp1a_trial_10_colour2_distractors31_r.png,r,2,004,001,2021-04-13_16h34.16.267,searchDisc4,2020.2.10,MacIntel,60,,,,,,,,,,,,,,,,,,
,,,,,,,,,,,,,,,,space,0.199,2,1,0.606,0,4,4,1,1,Practice arrays/exp1a_trial_3_colour1_distractors19_r.png,r,2,004,001,2021-04-13_16h34.16.267,searchDisc4,2020.2.10,MacIntel,60,,,,,,,,,,,,,,,,,,
,,,,,,,,,,,,,,,,space,0.436,2,1,0.598,0,5,5,3,1,Practice arrays/exp1a_trial_7_colour2_distractors4_r.png,r,2,004,001,2021-04-13_16h34.16.267,searchDisc4,2020.2.10,MacIntel,60,,,,,,,,,,,,,,,,,,
,,,,,,,,,,,,,,,,space,0.5,2,1,0.488,0,6,6,18,1,Practice arrays/exp1a_trial_36_colour0_distractors0_r.png,r,2,004,001,2021-04-13_16h34.16.267,searchDisc4,2020.2.10,MacIntel,60,,,,,,,,,,,,,,,,,,
,,,,,,,,,,,,,,,,space,1.735,1,1,0.531,0,7,7,14,1,Practice arrays/exp1a_trial_29_colour2_distractors43_l.png,l,1,004,001,2021-04-13_16h34.16.267,searchDisc4,2020.2.10,MacIntel,60,,,,,,,,,,,,,,,,,,
,,,,,,,,,,,,,,,,space,0.369,2,1,0.474,0,8,8,4,1,Practice arrays/exp1a_trial_8_colour2_distractors9_r.png,r,2,004,001,2021-04-13_16h34.16.267,searchDisc4,2020.2.10,MacIntel,60,,,,,,,,,,,,,,,,,,
,,,,,,,,,,,,,,,,space,0.442,2,1,0.538,0,9,9,8,1,Practice arrays/exp1a_trial_16_colour3_distractors31_r.png,r,2,004,001,2021-04-13_16h34.16.267,searchDisc4,2020.2.10,MacIntel,60,,,,,,,,,,,,,,,,,,
,,,,,,,,,,,,,,,,space,0.7,1,1,0.621,0,10,10,19,1,Practice arrays/exp1a_trial_37_colour0_distractors0_l.png,l,1,004,001,2021-04-13_16h34.16.267,searchDisc4,2020.2.10,MacIntel,60,,,,,,,,,,,,,,,,,,
,,,,,,,,,,,,,,,,space,0.677,1,1,1.042,0,11,11,15,1,Practice arrays/exp1a_trial_32_colour3_distractors9_l.png,l,1,004,001,2021-04-13_16h34.16.267,searchDisc4,2020.2.10,MacIntel,60,,,,,,,,,,,,,,,,,,
,,,,,,,,,,,,,,,,space,0.472,1,1,0.509,0,12,12,9,1,Practice arrays/exp1a_trial_19_colour1_distractors4_l.png,l,1,004,001,2021-04-13_16h34.16.267,searchDisc4,2020.2.10,MacIntel,60,,,,,,,,,,,,,,,,,,
,,,,,,,,,,,,,,,,space,0.433,2,1,0.668,0,13,13,6,1,Practice arrays/exp1a_trial_12_colour3_distractors1_r.png,r,2,004,001,2021-04-13_16h34.16.267,searchDisc4,2020.2.10,MacIntel,60,,,,,,,,,,,,,,,,,,
,,,,,,,,,,,,,,,,space,0.565,1,1,0.634,0,14,14,17,1,Practice arrays/exp1a_trial_35_colour3_distractors43_l.png,l,1,004,001,2021-04-13_16h34.16.267,searchDisc4,2020.2.10,MacIntel,60,,,,,,,,,,,,,,,,,,
,,,,,,,,,,,,,,,,space,0.44,1,1,0.549,0,15,15,11,1,Practice arrays/exp1a_trial_21_colour1_distractors19_l.png,l,1,004,001,2021-04-13_16h34.16.267,searchDisc4,2020.2.10,MacIntel,60,,,,,,,,,,,,,,,,,,
,,,,,,,,,,,,,,,,space,0.366,1,1,0.638,0,16,16,13,1,Practice arrays/exp1a_trial_28_colour2_distractors31_l.png,l,1,004,001,2021-04-13_16h34.16.267,searchDisc4,2020.2.10,MacIntel,60,,,,,,,,,,,,,,,,,,
,,,,,,,,,,,,,,,,space,0.782,1,1,0.602,0,17,17,12,1,Practice arrays/exp1a_trial_25_colour2_distractors4_l.png,l,1,004,001,2021-04-13_16h34.16.267,searchDisc4,2020.2.10,MacIntel,60,,,,,,,,,,,,,,,,,,
,,,,,,,,,,,,,,,,space,0.339,1,1,0.779,0,18,18,16,1,Practice arrays/exp1a_trial_33_colour3_distractors19_l.png,l,1,004,001,2021-04-13_16h34.16.267,searchDisc4,2020.2.10,MacIntel,60,,,,,,,,,,,,,,,,,,
,,,,,,,,,,,,,,,,space,0.572,2,1,0.813,0,19,19,0,1,Practice arrays/exp1a_trial_0_colour1_distractors1_r.png,r,2,004,001,2021-04-13_16h34.16.267,searchDisc4,2020.2.10,MacIntel,60,,,,,,,,,,,,,,,,,,
,,,,,,,,,,,,,,,,,,,,,,,,,,images/exp2c_trial_12_colour3_distractors1_r.png,r,2,004,001,2021-04-13_16h34.16.267,searchDisc4,2020.2.10,MacIntel,60,space,3.415,space,3.477,2,1,0.522,,0,0,0,468,1,2c,12,3,1,
,,,,,,,,,,,,,,,,,,,,,,,,,,images/exp2c_trial_4_colour1_distractors31_r.png,r,2,004,001,2021-04-13_16h34.16.267,searchDisc4,2020.2.10,MacIntel,60,,,space,0.597,2,1,0.563,,0,1,1,460,1,2c,4,1,31,
,,,,,,,,,,,,,,,,,,,,,,,,,,images/exp2c_trial_19_colour1_distractors4_l.png,l,1,004,001,2021-04-13_16h34.16.267,searchDisc4,2020.2.10,MacIntel,60,,,space,0.547,1,1,0.502,,0,2,2,475,1,2c,19,1,4,
,,,,,,,,,,,,,,,,,,,,,,,,,,images/exp2b_trial_17_colour3_distractors43_r.png,r,2,004,001,2021-04-13_16h34.16.267,searchDisc4,2020.2.10,MacIntel,60,,,space,0.565,1,0,0.605,,0,3,3,359,1,2b,17,3,43,
,,,,,,,,,,,,,,,,,,,,,,,,,,images/exp2b_trial_57_colour1_distractors4_l.png,l,1,004,001,2021-04-13_16h34.16.267,searchDisc4,2020.2.10,MacIntel,60,,,space,0.597,1,1,0.58,,0,4,4,399,1,2b,57,1,4,
,,,,,,,,,,,,,,,,,,,,,,,,,,images/exp2a_trial_56_colour1_distractors1_l.png,l,1,004,001,2021-04-13_16h34.16.267,searchDisc4,2020.2.10,MacIntel,60,,,space,0.569,1,1,0.571,,0,5,5,284,1,2a,56,1,1,
,,,,,,,,,,,,,,,,,,,,,,,,,,images/exp2b_trial_88_colour3_distractors1_r.png,r,2,004,001,2021-04-13_16h34.16.267,searchDisc4,2020.2.10,MacIntel,60,,,space,0.565,2,1,0.544,,0,6,6,430,1,2b,88,3,1,
,,,,,,,,,,,,,,,,,,,,,,,,,,images/exp2a_trial_105_colour2_distractors43_l.png,l,1,004,001,2021-04-13_16h34.16.267,searchDisc4,2020.2.10,MacIntel,60,,,space,0.563,1,1,0.773,,0,7,7,333,1,2a,105,2,43,
,,,,,,,,,,,,,,,,,,,,,,,,,,images/exp2b_trial_100_colour2_distractors1_l.png,l,1,004,001,2021-04-13_16h34.16.267,searchDisc4,2020.2.10,MacIntel,60,,,space,0.532,1,1,0.612,,0,8,8,442,1,2b,100,2,1,
,,,,,,,,,,,,,,,,,,,,,,,,,,images/exp2a_trial_28_colour2_distractors31_l.png,l,1,004,001,2021-04-13_16h34.16.267,searchDisc4,2020.2.10,MacIntel,60,,,space,0.466,1,1,0.512,,0,9,9,256,1,2a,28,2,31,
,,,,,,,,,,,,,,,,,,,,,,,,,,images/exp2a_trial_104_colour2_distractors31_l.png,l,1,004,001,2021-04-13_16h34.16.267,searchDisc4,2020.2.10,MacIntel,60,,,space,0.564,1,1,0.66,,0,10,10,332,1,2a,104,2,31,
,,,,,,,,,,,,,,,,,,,,,,,,,,images/exp2a_trial_83_colour2_distractors4_r.png,r,2,004,001,2021-04-13_16h34.16.267,searchDisc4,2020.2.10,MacIntel,60,,,space,0.73,2,1,0.533,,0,11,11,311,1,2a,83,2,4,
,,,,,,,,,,,,,,,,,,,,,,,,,,images/exp1a_trial_36_colour0_distractors0_r.png,r,2,004,001,2021-04-13_16h34.16.267,searchDisc4,2020.2.10,MacIntel,60,,,space,0.633,2,1,0.537,,0,12,12,36,1,1a,36,0,0,
,,,,,,,,,,,,,,,,,,,,,,,,,,images/exp1a_trial_98_colour1_distractors31_l.png,l,1,004,001,2021-04-13_16h34.16.267,searchDisc4,2020.2.10,MacIntel,60,,,space,0.6,1,1,0.769,,0,13,13,98,1,1a,98,1,31,
,,,,,,,,,,,,,,,,,,,,,,,,,,images/exp2a_trial_5_colour1_distractors43_r.png,r,2,004,001,2021-04-13_16h34.16.267,searchDisc4,2020.2.10,MacIntel,60,,,space,0.574,2,1,0.695,,0,14,14,233,1,2a,5,1,43,
,,,,,,,,,,,,,,,,,,,,,,,,,,images/exp1b_trial_25_colour2_distractors4_l.png,l,1,004,001,2021-04-13_16h34.16.267,searchDisc4,2020.2.10,MacIntel,60,,,space,0.577,1,1,0.708,,0,15,15,139,1,1b,25,2,4,
,,,,,,,,,,,,,,,,,,,,,,,,,,images/exp2b_trial_66_colour2_distractors31_l.png,l,1,004,001,2021-04-13_16h34.16.267,searchDisc4,2020.2.10,MacIntel,60,,,space,0.598,1,1,0.743,,0,16,16,408,1,2b,66,2,31,
,,,,,,,,,,,,,,,,,,,,,,,,,,images/exp1a_trial_84_colour2_distractors9_r.png,r,2,004,001,2021-04-13_16h34.16.267,searchDisc4,2020.2.10,MacIntel,60,,,space,0.572,2,1,0.611,,0,17,17,84,1,1a,84,2,9,
,,,,,,,,,,,,,,,,,,,,,,,,,,images/exp2c_trial_28_colour2_distractors31_l.png,l,1,004,001,2021-04-13_16h34.16.267,searchDisc4,2020.2.10,MacIntel,60,,,space,0.576,1,1,0.782,,0,18,18,484,1,2c,28,2,31,
,,,,,,,,,,,,,,,,,,,,,,,,,,images/exp1b_trial_92_colour3_distractors31_r.png,r,2,004,001,2021-04-13_16h34.16.267,searchDisc4,2020.2.10,MacIntel,60,,,space,0.533,2,1,1.707,,0,19,19,206,1,1b,92,3,31,
,,,,,,,,,,,,,,,,,,,,,,,,,,images/exp2c_trial_83_colour2_distractors4_r.png,r,2,004,001,2021-04-13_16h34.16.267,searchDisc4,2020.2.10,MacIntel,60,,,space,0.531,2,1,0.566,,0,20,20,539,1,2c,83,2,4,
,,,,,,,,,,,,,,,,,,,,,,,,,,images/exp1a_trial_65_colour2_distractors19_l.png,l,1,004,001,2021-04-13_16h34.16.267,searchDisc4,2020.2.10,MacIntel,60,,,space,0.598,1,1,0.643,,0,21,21,65,1,1a,65,2,19,
,,,,,,,,,,,,,,,,,,,,,,,,,,images/exp2c_trial_71_colour3_distractors19_l.png,l,1,004,001,2021-04-13_16h34.16.267,searchDisc4,2020.2.10,MacIntel,60,,,space,0.537,1,1,0.611,,0,22,22,527,1,2c,71,3,19,
,,,,,,,,,,,,,,,,,,,,,,,,,,images/exp1a_trial_62_colour2_distractors1_l.png,l,1,004,001,2021-04-13_16h34.16.267,searchDisc4,2020.2.10,MacIntel,60,,,space,0.562,1,1,0.631,,0,23,23,62,1,1a,62,2,1,
,,,,,,,,,,,,,,,,,,,,,,,,,,images/exp2c_trial_59_colour1_distractors19_l.png,l,1,004,001,2021-04-13_16h34.16.267,searchDisc4,2020.2.10,MacIntel,60,,,space,0.515,1,1,0.613,,0,24,24,515,1,2c,59,1,19,
,,,,,,,,,,,,,,,,,,,,,,,,,,images/exp2a_trial_22_colour1_distractors31_l.png,l,1,004,001,2021-04-13_16h34.16.267,searchDisc4,2020.2.10,MacIntel,60,,,space,0.841,1,1,0.863,,0,25,25,250,1,2a,22,1,31,
,,,,,,,,,,,,,,,,,,,,,,,,,,images/exp2a_trial_33_colour3_distractors19_l.png,l,1,004,001,2021-04-13_16h34.16.267,searchDisc4,2020.2.10,MacIntel,60,,,space,0.399,1,1,0.603,,0,26,26,261,1,2a,33,3,19,
,,,,,,,,,,,,,,,,,,,,,,,,,,images/exp2b_trial_85_colour2_distractors19_r.png,r,2,004,001,2021-04-13_16h34.16.267,searchDisc4,2020.2.10,MacIntel,60,,,space,2.066,2,1,0.556,,0,27,27,427,1,2b,85,2,19,
,,,,,,,,,,,,,,,,,,,,,,,,,,images/exp2c_trial_112_colour0_distractors0_r.png,r,2,004,001,2021-04-13_16h34.16.267,searchDisc4,2020.2.10,MacIntel,60,,,space,0.574,2,1,0.613,,0,28,28,568,1,2c,112,0,0,
,,,,,,,,,,,,,,,,,,,,,,,,,,images/exp1a_trial_61_colour1_distractors43_l.png,l,1,004,001,2021-04-13_16h34.16.267,searchDisc4,2020.2.10,MacIntel,60,,,space,0.533,1,1,0.814,,0,29,29,61,1,1a,61,1,43,
,,,,,,,,,,,,,,,,,,,,,,,,,,images/exp2b_trial_58_colour1_distractors9_l.png,l,1,004,001,2021-04-13_16h34.16.267,searchDisc4,2020.2.10,MacIntel,60,,,space,0.597,1,1,0.497,,0,30,30,400,1,2b,58,1,9,
,,,,,,,,,,,,,,,,,,,,,,,,,,images/exp2b_trial_75_colour0_distractors0_l.png,l,1,004,001,2021-04-13_16h34.16.267,searchDisc4,2020.2.10,MacIntel,60,,,space,0.464,1,1,0.483,,0,31,31,417,1,2b,75,0,0,
,,,,,,,,,,,,,,,,,,,,,,,,,,images/exp2c_trial_15_colour3_distractors19_r.png,r,2,004,001,2021-04-13_16h34.16.267,searchDisc4,2020.2.10,MacIntel,60,,,space,0.53,2,1,0.66,,0,32,32,471,1,2c,15,3,19,
,,,,,,,,,,,,,,,,,,,,,,,,,,images/exp1b_trial_43_colour1_distractors43_r.png,r,2,004,001,2021-04-13_16h34.16.267,searchDisc4,2020.2.10,MacIntel,60,,,space,0.464,2,1,0.675,,0,33,33,157,1,1b,43,1,43,
,,,,,,,,,,,,,,,,,,,,,,,,,,images/exp1b_trial_51_colour3_distractors4_r.png,r,2,004,001,2021-04-13_16h34.16.267,searchDisc4,2020.2.10,MacIntel,60,,,space,0.548,2,1,0.786,,0,34,34,165,1,1b,51,3,4,
,,,,,,,,,,,,,,,,,,,,,,,,,,images/exp2c_trial_51_colour3_distractors4_r.png,r,2,004,001,2021-04-13_16h34.16.267,searchDisc4,2020.2.10,MacIntel,60,,,space,0.513,2,1,0.565,,0,35,35,507,1,2c,51,3,4,
,,,,,,,,,,,,,,,,,,,,,,,,,,images/exp2b_trial_20_colour1_distractors9_l.png,l,1,004,001,2021-04-13_16h34.16.267,searchDisc4,2020.2.10,MacIntel,60,,,space,0.465,1,1,0.573,,0,36,36,362,1,2b,20,1,9,
,,,,,,,,,,,,,,,,,,,,,,,,,,images/exp1b_trial_77_colour1_distractors4_r.png,r,2,004,001,2021-04-13_16h34.16.267,searchDisc4,2020.2.10,MacIntel,60,,,space,0.503,2,1,0.611,,0,37,37,191,1,1b,77,1,4,
,,,,,,,,,,,,,,,,,,,,,,,,,,images/exp2a_trial_16_colour3_distractors31_r.png,r,2,004,001,2021-04-13_16h34.16.267,searchDisc4,2020.2.10,MacIntel,60,,,space,0.506,2,1,0.627,,0,38,38,244,1,2a,16,3,31,
,,,,,,,,,,,,,,,,,,,,,,,,,,images/exp1b_trial_62_colour2_distractors1_l.png,l,1,004,001,2021-04-13_16h34.16.267,searchDisc4,2020.2.10,MacIntel,60,,,space,0.464,1,1,0.873,,0,39,39,176,1,1b,62,2,1,
,,,,,,,,,,,,,,,,,,,,,,,,,,images/exp1b_trial_57_colour1_distractors4_l.png,l,1,004,001,2021-04-13_16h34.16.267,searchDisc4,2020.2.10,MacIntel,60,,,space,0.536,1,1,0.867,,0,40,40,171,1,1b,57,1,4,
,,,,,,,,,,,,,,,,,,,,,,,,,,images/exp2b_trial_94_colour1_distractors1_l.png,l,1,004,001,2021-04-13_16h34.16.267,searchDisc4,2020.2.10,MacIntel,60,,,space,0.532,1,1,0.547,,0,41,41,436,1,2b,94,1,1,
,,,,,,,,,,,,,,,,,,,,,,,,,,images/exp2c_trial_3_colour1_distractors19_r.png,r,2,004,001,2021-04-13_16h34.16.267,searchDisc4,2020.2.10,MacIntel,60,,,space,0.43,2,1,0.74,,0,42,42,459,1,2c,3,1,19,
,,,,,,,,,,,,,,,,,,,,,,,,,,images/exp1b_trial_19_colour1_distractors4_l.png,l,1,004,001,2021-04-13_16h34.16.267,searchDisc4,2020.2.10,MacIntel,60,,,space,0.577,1,1,0.808,,0,43,43,133,1,1b,19,1,4,
,,,,,,,,,,,,,,,,,,,,,,,,,,images/exp1b_trial_1_colour1_distractors4_r.png,r,2,004,001,2021-04-13_16h34.16.267,searchDisc4,2020.2.10,MacIntel,60,,,space,1.231,2,1,0.575,,0,44,44,115,1,1b,1,1,4,
,,,,,,,,,,,,,,,,,,,,,,,,,,images/exp1a_trial_2_colour1_distractors9_r.png,r,2,004,001,2021-04-13_16h34.16.267,searchDisc4,2020.2.10,MacIntel,60,,,space,0.572,2,1,0.709,,0,45,45,2,1,1a,2,1,9,
,,,,,,,,,,,,,,,,,,,,,,,,,,images/exp2c_trial_38_colour1_distractors1_r.png,r,2,004,001,2021-04-13_16h34.16.267,searchDisc4,2020.2.10,MacIntel,60,,,space,0.502,2,1,0.533,,0,46,46,494,1,2c,38,1,1,
,,,,,,,,,,,,,,,,,,,,,,,,,,images/exp2b_trial_26_colour2_distractors9_l.png,l,1,004,001,2021-04-13_16h34.16.267,searchDisc4,2020.2.10,MacIntel,60,,,space,1.614,1,1,0.579,,0,47,47,368,1,2b,26,2,9,
,,,,,,,,,,,,,,,,,,,,,,,,,,images/exp1b_trial_72_colour3_distractors31_l.png,l,1,004,001,2021-04-13_16h34.16.267,searchDisc4,2020.2.10,MacIntel,60,,,space,1.179,1,1,0.707,,0,48,48,186,1,1b,72,3,31,
,,,,,,,,,,,,,,,,,,,,,,,,,,images/exp1a_trial_44_colour2_distractors1_r.png,r,2,004,001,2021-04-13_16h34.16.267,searchDisc4,2020.2.10,MacIntel,60,,,space,0.702,2,1,0.613,,0,49,49,44,1,1a,44,2,1,
,,,,,,,,,,,,,,,,,,,,,,,,,,images/exp2b_trial_50_colour3_distractors1_r.png,r,2,004,001,2021-04-13_16h34.16.267,searchDisc4,2020.2.10,MacIntel,60,,,space,6.398,2,1,0.507,,0,50,50,392,1,2b,50,3,1,
,,,,,,,,,,,,,,,,,,,,,,,,,,images/exp2b_trial_16_colour3_distractors31_r.png,r,2,004,001,2021-04-13_16h34.16.267,searchDisc4,2020.2.10,MacIntel,60,,,space,0.665,2,1,0.631,,0,51,51,358,1,2b,16,3,31,
,,,,,,,,,,,,,,,,,,,,,,,,,,images/exp1b_trial_7_colour2_distractors4_r.png,r,2,004,001,2021-04-13_16h34.16.267,searchDisc4,2020.2.10,MacIntel,60,,,space,0.63,2,1,0.609,,0,52,52,121,1,1b,7,2,4,
,,,,,,,,,,,,,,,,,,,,,,,,,,images/exp1b_trial_18_colour1_distractors1_l.png,l,1,004,001,2021-04-13_16h34.16.267,searchDisc4,2020.2.10,MacIntel,60,,,space,0.441,2,0,0.581,,0,53,53,132,1,1b,18,1,1,
,,,,,,,,,,,,,,,,,,,,,,,,,,images/exp2b_trial_76_colour1_distractors1_r.png,r,2,004,001,2021-04-13_16h34.16.267,searchDisc4,2020.2.10,MacIntel,60,,,space,0.598,2,1,0.609,,0,54,54,418,1,2b,76,1,1,
,,,,,,,,,,,,,,,,,,,,,,,,,,images/exp1b_trial_55_colour3_distractors43_r.png,r,2,004,001,2021-04-13_16h34.16.267,searchDisc4,2020.2.10,MacIntel,60,,,space,0.574,2,1,2.764,,0,55,55,169,1,1b,55,3,43,
,,,,,,,,,,,,,,,,,,,,,,,,,,images/exp2c_trial_18_colour1_distractors1_l.png,l,1,004,001,2021-04-13_16h34.16.267,searchDisc4,2020.2.10,MacIntel,60,,,space,0.601,1,1,0.616,,0,56,56,474,1,2c,18,1,1,
,,,,,,,,,,,,,,,,,,,,,,,,,,images/exp2c_trial_21_colour1_distractors19_l.png,l,1,004,001,2021-04-13_16h34.16.267,searchDisc4,2020.2.10,MacIntel,60,,,space,1.432,1,1,0.611,,0,57,57,477,1,2c,21,1,19,
,,,,,,,,,,,,,,,,,,,,,,,,,,images/exp1a_trial_91_colour3_distractors19_r.png,r,2,004,001,2021-04-13_16h34.16.267,searchDisc4,2020.2.10,MacIntel,60,,,space,0.565,2,1,0.742,,0,58,58,91,1,1a,91,3,19,
,,,,,,,,,,,,,,,,,,,,,,,,,,images/exp2a_trial_71_colour3_distractors19_l.png,l,1,004,001,2021-04-13_16h34.16.267,searchDisc4,2020.2.10,MacIntel,60,,,space,0.499,1,1,0.671,space,0,59,59,299,1,2a,71,3,19,4.088
,,,,,,,,,,,,,,,,,,,,,,,,,,images/exp2a_trial_107_colour3_distractors4_l.png,l,1,004,001,2021-04-13_16h34.16.267,searchDisc4,2020.2.10,MacIntel,60,,,space,0.535,1,1,0.573,,0,60,60,335,1,2a,107,3,4,
,,,,,,,,,,,,,,,,,,,,,,,,,,images/exp2b_trial_25_colour2_distractors4_l.png,l,1,004,001,2021-04-13_16h34.16.267,searchDisc4,2020.2.10,MacIntel,60,,,space,0.509,1,1,0.563,,0,61,61,367,1,2b,25,2,4,
,,,,,,,,,,,,,,,,,,,,,,,,,,images/exp1a_trial_34_colour3_distractors31_l.png,l,1,004,001,2021-04-13_16h34.16.267,searchDisc4,2020.2.10,MacIntel,60,,,space,0.767,1,1,0.632,,0,62,62,34,1,1a,34,3,31,
,,,,,,,,,,,,,,,,,,,,,,,,,,images/exp2b_trial_34_colour3_distractors31_l.png,l,1,004,001,2021-04-13_16h34.16.267,searchDisc4,2020.2.10,MacIntel,60,,,space,0.497,1,1,0.698,,0,63,63,376,1,2b,34,3,31,
,,,,,,,,,,,,,,,,,,,,,,,,,,images/exp2a_trial_49_colour2_distractors43_r.png,r,2,004,001,2021-04-13_16h34.16.267,searchDisc4,2020.2.10,MacIntel,60,,,space,0.54,2,1,0.615,,0,64,64,277,1,2a,49,2,43,
,,,,,,,,,,,,,,,,,,,,,,,,,,images/exp2c_trial_27_colour2_distractors19_l.png,l,1,004,001,2021-04-13_16h34.16.267,searchDisc4,2020.2.10,MacIntel,60,,,space,0.543,1,1,0.712,,0,65,65,483,1,2c,27,2,19,
,,,,,,,,,,,,,,,,,,,,,,,,,,images/exp1a_trial_105_colour2_distractors43_l.png,l,1,004,001,2021-04-13_16h34.16.267,searchDisc4,2020.2.10,MacIntel,60,,,space,0.742,1,1,0.549,,0,66,66,105,1,1a,105,2,43,
,,,,,,,,,,,,,,,,,,,,,,,,,,images/exp1b_trial_6_colour2_distractors1_r.png,r,2,004,001,2021-04-13_16h34.16.267,searchDisc4,2020.2.10,MacIntel,60,,,space,0.464,2,1,0.716,,0,67,67,120,1,1b,6,2,1,
,,,,,,,,,,,,,,,,,,,,,,,,,,images/exp1b_trial_4_colour1_distractors31_r.png,r,2,004,001,2021-04-13_16h34.16.267,searchDisc4,2020.2.10,MacIntel,60,,,space,0.797,2,1,0.732,,0,68,68,118,1,1b,4,1,31,
,,,,,,,,,,,,,,,,,,,,,,,,,,images/exp1b_trial_83_colour2_distractors4_r.png,r,2,004,001,2021-04-13_16h34.16.267,searchDisc4,2020.2.10,MacIntel,60,,,space,0.509,2,1,0.614,,0,69,69,197,1,1b,83,2,4,
,,,,,,,,,,,,,,,,,,,,,,,,,,images/exp2a_trial_8_colour2_distractors9_r.png,r,2,004,001,2021-04-13_16h34.16.267,searchDisc4,2020.2.10,MacIntel,60,,,space,0.565,2,1,0.54,,0,70,70,236,1,2a,8,2,9,
,,,,,,,,,,,,,,,,,,,,,,,,,,images/exp2c_trial_81_colour1_distractors43_r.png,r,2,004,001,2021-04-13_16h34.16.267,searchDisc4,2020.2.10,MacIntel,60,,,space,0.564,2,1,0.611,,0,71,71,537,1,2c,81,1,43,
,,,,,,,,,,,,,,,,,,,,,,,,,,images/exp2a_trial_88_colour3_distractors1_r.png,r,2,004,001,2021-04-13_16h34.16.267,searchDisc4,2020.2.10,MacIntel,60,,,space,0.505,2,1,0.61,,0,72,72,316,1,2a,88,3,1,
,,,,,,,,,,,,,,,,,,,,,,,,,,images/exp2b_trial_80_colour1_distractors31_r.png,r,2,004,001,2021-04-13_16h34.16.267,searchDisc4,2020.2.10,MacIntel,60,,,space,0.44,2,1,0.616,,0,73,73,422,1,2b,80,1,31,
,,,,,,,,,,,,,,,,,,,,,,,,,,images/exp1b_trial_78_colour1_distractors9_r.png,r,2,004,001,2021-04-13_16h34.16.267,searchDisc4,2020.2.10,MacIntel,60,,,space,0.543,2,1,0.592,,0,74,74,192,1,1b,78,1,9,
,,,,,,,,,,,,,,,,,,,,,,,,,,images/exp1a_trial_102_colour2_distractors9_l.png,l,1,004,001,2021-04-13_16h34.16.267,searchDisc4,2020.2.10,MacIntel,60,,,space,0.666,1,1,0.707,,0,75,75,102,1,1a,102,2,9,
,,,,,,,,,,,,,,,,,,,,,,,,,,images/exp2b_trial_112_colour0_distractors0_r.png,r,2,004,001,2021-04-13_16h34.16.267,searchDisc4,2020.2.10,MacIntel,60,,,space,0.471,2,1,0.73,,0,76,76,454,1,2b,112,0,0,
,,,,,,,,,,,,,,,,,,,,,,,,,,images/exp2b_trial_78_colour1_distractors9_r.png,r,2,004,001,2021-04-13_16h34.16.267,searchDisc4,2020.2.10,MacIntel,60,,,space,0.413,2,1,0.579,,0,77,77,420,1,2b,78,1,9,
,,,,,,,,,,,,,,,,,,,,,,,,,,images/exp2c_trial_33_colour3_distractors19_l.png,l,1,004,001,2021-04-13_16h34.16.267,searchDisc4,2020.2.10,MacIntel,60,,,space,0.531,2,0,0.652,,0,78,78,489,1,2c,33,3,19,
,,,,,,,,,,,,,,,,,,,,,,,,,,images/exp2c_trial_97_colour1_distractors19_l.png,l,1,004,001,2021-04-13_16h34.16.267,searchDisc4,2020.2.10,MacIntel,60,,,space,0.631,1,1,0.735,,0,79,79,553,1,2c,97,1,19,
,,,,,,,,,,,,,,,,,,,,,,,,,,images/exp2a_trial_86_colour2_distractors31_r.png,r,2,004,001,2021-04-13_16h34.16.267,searchDisc4,2020.2.10,MacIntel,60,,,space,0.537,2,1,0.639,,0,80,80,314,1,2a,86,2,31,
,,,,,,,,,,,,,,,,,,,,,,,,,,images/exp2c_trial_58_colour1_distractors9_l.png,l,1,004,001,2021-04-13_16h34.16.267,searchDisc4,2020.2.10,MacIntel,60,,,space,0.476,1,1,0.573,,0,81,81,514,1,2c,58,1,9,
,,,,,,,,,,,,,,,,,,,,,,,,,,images/exp2b_trial_95_colour1_distractors4_l.png,l,1,004,001,2021-04-13_16h34.16.267,searchDisc4,2020.2.10,MacIntel,60,,,space,0.503,1,1,0.573,,0,82,82,437,1,2b,95,1,4,
,,,,,,,,,,,,,,,,,,,,,,,,,,images/exp2b_trial_29_colour2_distractors43_l.png,l,1,004,001,2021-04-13_16h34.16.267,searchDisc4,2020.2.10,MacIntel,60,,,space,0.497,1,1,0.693,,0,83,83,371,1,2b,29,2,43,
,,,,,,,,,,,,,,,,,,,,,,,,,,images/exp2b_trial_48_colour2_distractors31_r.png,r,2,004,001,2021-04-13_16h34.16.267,searchDisc4,2020.2.10,MacIntel,60,,,space,0.566,2,1,0.612,,0,84,84,390,1,2b,48,2,31,
,,,,,,,,,,,,,,,,,,,,,,,,,,images/exp1b_trial_2_colour1_distractors9_r.png,r,2,004,001,2021-04-13_16h34.16.267,searchDisc4,2020.2.10,MacIntel,60,,,space,0.571,2,1,0.601,,0,85,85,116,1,1b,2,1,9,
,,,,,,,,,,,,,,,,,,,,,,,,,,images/exp1b_trial_100_colour2_distractors1_l.png,l,1,004,001,2021-04-13_16h34.16.267,searchDisc4,2020.2.10,MacIntel,60,,,space,0.611,1,1,0.744,,0,86,86,214,1,1b,100,2,1,
,,,,,,,,,,,,,,,,,,,,,,,,,,images/exp2b_trial_33_colour3_distractors19_l.png,l,1,004,001,2021-04-13_16h34.16.267,searchDisc4,2020.2.10,MacIntel,60,,,space,10.765,1,1,0.64,,0,87,87,375,1,2b,33,3,19,
,,,,,,,,,,,,,,,,,,,,,,,,,,images/exp1a_trial_24_colour2_distractors1_l.png,l,1,004,001,2021-04-13_16h34.16.267,searchDisc4,2020.2.10,MacIntel,60,,,space,0.47,1,1,0.703,,0,88,88,24,1,1a,24,2,1,
,,,,,,,,,,,,,,,,,,,,,,,,,,images/exp1b_trial_35_colour3_distractors43_l.png,l,1,004,001,2021-04-13_16h34.16.267,searchDisc4,2020.2.10,MacIntel,60,,,space,0.463,1,1,0.744,,0,89,89,149,1,1b,35,3,43,
,,,,,,,,,,,,,,,,,,,,,,,,,,images/exp1b_trial_27_colour2_distractors19_l.png,l,1,004,001,2021-04-13_16h34.16.267,searchDisc4,2020.2.10,MacIntel,60,,,space,0.563,1,1,0.712,,0,90,90,141,1,1b,27,2,19,
,,,,,,,,,,,,,,,,,,,,,,,,,,images/exp2b_trial_15_colour3_distractors19_r.png,r,2,004,001,2021-04-13_16h34.16.267,searchDisc4,2020.2.10,MacIntel,60,,,space,0.532,2,1,0.841,,0,91,91,357,1,2b,15,3,19,
,,,,,,,,,,,,,,,,,,,,,,,,,,images/exp2b_trial_64_colour2_distractors9_l.png,l,1,004,001,2021-04-13_16h34.16.267,searchDisc4,2020.2.10,MacIntel,60,,,space,0.536,1,1,0.935,,0,92,92,406,1,2b,64,2,9,
,,,,,,,,,,,,,,,,,,,,,,,,,,images/exp2c_trial_42_colour1_distractors31_r.png,r,2,004,001,2021-04-13_16h34.16.267,searchDisc4,2020.2.10,MacIntel,60,,,space,0.631,2,1,0.8,,0,93,93,498,1,2c,42,1,31,
,,,,,,,,,,,,,,,,,,,,,,,,,,images/exp1b_trial_76_colour1_distractors1_r.png,r,2,004,001,2021-04-13_16h34.16.267,searchDisc4,2020.2.10,MacIntel,60,,,space,0.471,2,1,0.581,,0,94,94,190,1,1b,76,1,1,
,,,,,,,,,,,,,,,,,,,,,,,,,,images/exp1b_trial_56_colour1_distractors1_l.png,l,1,004,001,2021-04-13_16h34.16.267,searchDisc4,2020.2.10,MacIntel,60,,,space,0.597,1,1,0.612,,0,95,95,170,1,1b,56,1,1,
,,,,,,,,,,,,,,,,,,,,,,,,,,images/exp2c_trial_61_colour1_distractors43_l.png,l,1,004,001,2021-04-13_16h34.16.267,searchDisc4,2020.2.10,MacIntel,60,,,space,0.41,1,1,0.746,,0,96,96,517,1,2c,61,1,43,
,,,,,,,,,,,,,,,,,,,,,,,,,,images/exp2b_trial_46_colour2_distractors9_r.png,r,2,004,001,2021-04-13_16h34.16.267,searchDisc4,2020.2.10,MacIntel,60,,,space,0.502,2,1,0.743,,0,97,97,388,1,2b,46,2,9,
,,,,,,,,,,,,,,,,,,,,,,,,,,images/exp2a_trial_24_colour2_distractors1_l.png,l,1,004,001,2021-04-13_16h34.16.267,searchDisc4,2020.2.10,MacIntel,60,,,space,0.399,1,1,0.615,,0,98,98,252,1,2a,24,2,1,
,,,,,,,,,,,,,,,,,,,,,,,,,,images/exp1a_trial_23_colour1_distractors43_l.png,l,1,004,001,2021-04-13_16h34.16.267,searchDisc4,2020.2.10,MacIntel,60,,,space,0.475,1,1,0.596,,0,99,99,23,1,1a,23,1,43,
,,,,,,,,,,,,,,,,,,,,,,,,,,images/exp2a_trial_38_colour1_distractors1_r.png,r,2,004,001,2021-04-13_16h34.16.267,searchDisc4,2020.2.10,MacIntel,60,,,space,0.505,2,1,0.536,,0,100,100,266,1,2a,38,1,1,
,,,,,,,,,,,,,,,,,,,,,,,,,,images/exp2a_trial_43_colour1_distractors43_r.png,r,2,004,001,2021-04-13_16h34.16.267,searchDisc4,2020.2.10,MacIntel,60,,,space,0.502,2,1,0.598,,0,101,101,271,1,2a,43,1,43,
,,,,,,,,,,,,,,,,,,,,,,,,,,images/exp2a_trial_111_colour3_distractors43_l.png,l,1,004,001,2021-04-13_16h34.16.267,searchDisc4,2020.2.10,MacIntel,60,,,space,0.432,1,1,0.559,,0,102,102,339,1,2a,111,3,43,
,,,,,,,,,,,,,,,,,,,,,,,,,,images/exp2c_trial_86_colour2_distractors31_r.png,r,2,004,001,2021-04-13_16h34.16.267,searchDisc4,2020.2.10,MacIntel,60,,,space,0.598,2,1,0.738,,0,103,103,542,1,2c,86,2,31,
,,,,,,,,,,,,,,,,,,,,,,,,,,images/exp1a_trial_30_colour3_distractors1_l.png,l,1,004,001,2021-04-13_16h34.16.267,searchDisc4,2020.2.10,MacIntel,60,,,space,0.615,1,1,0.718,,0,104,104,30,1,1a,30,3,1,
,,,,,,,,,,,,,,,,,,,,,,,,,,images/exp2a_trial_79_colour1_distractors19_r.png,r,2,004,001,2021-04-13_16h34.16.267,searchDisc4,2020.2.10,MacIntel,60,,,space,0.532,2,1,0.732,,0,105,105,307,1,2a,79,1,19,
,,,,,,,,,,,,,,,,,,,,,,,,,,images/exp2c_trial_17_colour3_distractors43_r.png,r,2,004,001,2021-04-13_16h34.16.267,searchDisc4,2020.2.10,MacIntel,60,,,space,0.528,2,1,0.617,,0,106,106,473,1,2c,17,3,43,
,,,,,,,,,,,,,,,,,,,,,,,,,,images/exp1b_trial_74_colour0_distractors0_r.png,r,2,004,001,2021-04-13_16h34.16.267,searchDisc4,2020.2.10,MacIntel,60,,,space,0.533,2,1,0.511,,0,107,107,188,1,1b,74,0,0,
,,,,,,,,,,,,,,,,,,,,,,,,,,images/exp1a_trial_15_colour3_distractors19_r.png,r,2,004,001,2021-04-13_16h34.16.267,searchDisc4,2020.2.10,MacIntel,60,,,space,0.496,2,1,0.644,,0,108,108,15,1,1a,15,3,19,
,,,,,,,,,,,,,,,,,,,,,,,,,,images/exp1a_trial_113_colour0_distractors0_l.png,l,1,004,001,2021-04-13_16h34.16.267,searchDisc4,2020.2.10,MacIntel,60,,,space,0.443,1,1,0.546,,0,109,109,113,1,1a,113,0,0,
,,,,,,,,,,,,,,,,,,,,,,,,,,images/exp1a_trial_70_colour3_distractors9_l.png,l,1,004,001,2021-04-13_16h34.16.267,searchDisc4,2020.2.10,MacIntel,60,,,space,0.436,1,1,0.674,,0,110,110,70,1,1a,70,3,9,
,,,,,,,,,,,,,,,,,,,,,,,,,,images/exp1b_trial_30_colour3_distractors1_l.png,l,1,004,001,2021-04-13_16h34.16.267,searchDisc4,2020.2.10,MacIntel,60,,,space,0.501,1,1,0.54,,0,111,111,144,1,1b,30,3,1,
,,,,,,,,,,,,,,,,,,,,,,,,,,images/exp2b_trial_0_colour1_distractors1_r.png,r,2,004,001,2021-04-13_16h34.16.267,searchDisc4,2020.2.10,MacIntel,60,,,space,0.532,2,1,0.658,,0,112,112,342,1,2b,0,1,1,
,,,,,,,,,,,,,,,,,,,,,,,,,,images/exp1b_trial_85_colour2_distractors19_r.png,r,2,004,001,2021-04-13_16h34.16.267,searchDisc4,2020.2.10,MacIntel,60,,,space,0.414,2,1,0.717,,0,113,113,199,1,1b,85,2,19,
,,,,,,,,,,,,,,,,,,,,,,,,,,images/exp2b_trial_9_colour2_distractors19_r.png,r,2,004,001,2021-04-13_16h34.16.267,searchDisc4,2020.2.10,MacIntel,60,,,space,0.407,2,1,0.555,,0,114,114,351,1,2b,9,2,19,
,,,,,,,,,,,,,,,,,,,,,,,,,,images/exp1b_trial_97_colour1_distractors19_l.png,l,1,004,001,2021-04-13_16h34.16.267,searchDisc4,2020.2.10,MacIntel,60,,,space,0.465,1,1,0.647,,0,115,115,211,1,1b,97,1,19,
,,,,,,,,,,,,,,,,,,,,,,,,,,images/exp1a_trial_92_colour3_distractors31_r.png,r,2,004,001,2021-04-13_16h34.16.267,searchDisc4,2020.2.10,MacIntel,60,,,space,0.442,2,1,0.704,,0,116,116,92,1,1a,92,3,31,
,,,,,,,,,,,,,,,,,,,,,,,,,,images/exp2b_trial_1_colour1_distractors4_r.png,r,2,004,001,2021-04-13_16h34.16.267,searchDisc4,2020.2.10,MacIntel,60,,,space,0.498,2,1,0.617,,0,117,117,343,1,2b,1,1,4,
,,,,,,,,,,,,,,,,,,,,,,,,,,images/exp1a_trial_14_colour3_distractors9_r.png,r,2,004,001,2021-04-13_16h34.16.267,searchDisc4,2020.2.10,MacIntel,60,,,space,0.467,2,1,0.564,,0,118,118,14,1,1a,14,3,9,
,,,,,,,,,,,,,,,,,,,,,,,,,,images/exp2b_trial_4_colour1_distractors31_r.png,r,2,004,001,2021-04-13_16h34.16.267,searchDisc4,2020.2.10,MacIntel,60,,,space,0.51,2,1,0.515,space,0,119,119,346,1,2b,4,1,31,2.658
,,,,,,,,,,,,,,,,,,,,,,,,,,images/exp2b_trial_67_colour2_distractors43_l.png,l,1,004,001,2021-04-13_16h34.16.267,searchDisc4,2020.2.10,MacIntel,60,,,space,0.564,1,1,0.542,,0,120,120,409,1,2b,67,2,43,
,,,,,,,,,,,,,,,,,,,,,,,,,,images/exp1a_trial_3_colour1_distractors19_r.png,r,2,004,001,2021-04-13_16h34.16.267,searchDisc4,2020.2.10,MacIntel,60,,,space,0.439,2,1,0.597,,0,121,121,3,1,1a,3,1,19,
,,,,,,,,,,,,,,,,,,,,,,,,,,images/exp1a_trial_68_colour3_distractors1_l.png,l,1,004,001,2021-04-13_16h34.16.267,searchDisc4,2020.2.10,MacIntel,60,,,space,0.397,1,1,0.563,,0,122,122,68,1,1a,68,3,1,
,,,,,,,,,,,,,,,,,,,,,,,,,,images/exp1b_trial_94_colour1_distractors1_l.png,l,1,004,001,2021-04-13_16h34.16.267,searchDisc4,2020.2.10,MacIntel,60,,,space,0.463,1,1,0.499,,0,123,123,208,1,1b,94,1,1,
,,,,,,,,,,,,,,,,,,,,,,,,,,images/exp2c_trial_75_colour0_distractors0_l.png,l,1,004,001,2021-04-13_16h34.16.267,searchDisc4,2020.2.10,MacIntel,60,,,space,0.443,1,1,0.53,,0,124,124,531,1,2c,75,0,0,
,,,,,,,,,,,,,,,,,,,,,,,,,,images/exp2b_trial_107_colour3_distractors4_l.png,l,1,004,001,2021-04-13_16h34.16.267,searchDisc4,2020.2.10,MacIntel,60,,,space,0.344,1,1,0.453,,0,125,125,449,1,2b,107,3,4,
,,,,,,,,,,,,,,,,,,,,,,,,,,images/exp1b_trial_111_colour3_distractors43_l.png,l,1,004,001,2021-04-13_16h34.16.267,searchDisc4,2020.2.10,MacIntel,60,,,space,0.404,1,1,0.855,,0,126,126,225,1,1b,111,3,43,
,,,,,,,,,,,,,,,,,,,,,,,,,,images/exp2c_trial_72_colour3_distractors31_l.png,l,1,004,001,2021-04-13_16h34.16.267,searchDisc4,2020.2.10,MacIntel,60,,,space,0.631,1,1,0.591,,0,127,127,528,1,2c,72,3,31,
,,,,,,,,,,,,,,,,,,,,,,,,,,images/exp2b_trial_82_colour2_distractors1_r.png,r,2,004,001,2021-04-13_16h34.16.267,searchDisc4,2020.2.10,MacIntel,60,,,space,0.734,2,1,0.444,,0,128,128,424,1,2b,82,2,1,
,,,,,,,,,,,,,,,,,,,,,,,,,,images/exp2c_trial_60_colour1_distractors31_l.png,l,1,004,001,2021-04-13_16h34.16.267,searchDisc4,2020.2.10,MacIntel,60,,,space,0.365,1,1,0.698,,0,129,129,516,1,2c,60,1,31,
,,,,,,,,,,,,,,,,,,,,,,,,,,images/exp1a_trial_55_colour3_distractors43_r.png,r,2,004,001,2021-04-13_16h34.16.267,searchDisc4,2020.2.10,MacIntel,60,,,space,0.404,2,1,0.634,,0,130,130,55,1,1a,55,3,43,
,,,,,,,,,,,,,,,,,,,,,,,,,,images/exp1b_trial_95_colour1_distractors4_l.png,l,1,004,001,2021-04-13_16h34.16.267,searchDisc4,2020.2.10,MacIntel,60,,,space,0.41,1,1,0.68,,0,131,131,209,1,1b,95,1,4,
,,,,,,,,,,,,,,,,,,,,,,,,,,images/exp2a_trial_53_colour3_distractors19_r.png,r,2,004,001,2021-04-13_16h34.16.267,searchDisc4,2020.2.10,MacIntel,60,,,space,0.366,2,1,0.572,,0,132,132,281,1,2a,53,3,19,
,,,,,,,,,,,,,,,,,,,,,,,,,,images/exp2c_trial_43_colour1_distractors43_r.png,r,2,004,001,2021-04-13_16h34.16.267,searchDisc4,2020.2.10,MacIntel,60,,,space,0.298,2,1,0.666,,0,133,133,499,1,2c,43,1,43,
,,,,,,,,,,,,,,,,,,,,,,,,,,images/exp2b_trial_36_colour0_distractors0_r.png,r,2,004,001,2021-04-13_16h34.16.267,searchDisc4,2020.2.10,MacIntel,60,,,space,0.264,2,1,0.502,,0,134,134,378,1,2b,36,0,0,
,,,,,,,,,,,,,,,,,,,,,,,,,,images/exp2a_trial_72_colour3_distractors31_l.png,l,1,004,001,2021-04-13_16h34.16.267,searchDisc4,2020.2.10,MacIntel,60,,,space,1.067,1,1,0.659,,0,135,135,300,1,2a,72,3,31,
,,,,,,,,,,,,,,,,,,,,,,,,,,images/exp2c_trial_20_colour1_distractors9_l.png,l,1,004,001,2021-04-13_16h34.16.267,searchDisc4,2020.2.10,MacIntel,60,,,space,0.4,1,1,0.734,,0,136,136,476,1,2c,20,1,9,
,,,,,,,,,,,,,,,,,,,,,,,,,,images/exp2b_trial_2_colour1_distractors9_r.png,r,2,004,001,2021-04-13_16h34.16.267,searchDisc4,2020.2.10,MacIntel,60,,,space,0.531,2,1,0.776,,0,137,137,344,1,2b,2,1,9,
,,,,,,,,,,,,,,,,,,,,,,,,,,images/exp1a_trial_50_colour3_distractors1_r.png,r,2,004,001,2021-04-13_16h34.16.267,searchDisc4,2020.2.10,MacIntel,60,,,space,0.266,2,1,0.643,,0,138,138,50,1,1a,50,3,1,
,,,,,,,,,,,,,,,,,,,,,,,,,,images/exp2b_trial_81_colour1_distractors43_r.png,r,2,004,001,2021-04-13_16h34.16.267,searchDisc4,2020.2.10,MacIntel,60,,,space,0.632,2,1,0.703,,0,139,139,423,1,2b,81,1,43,
,,,,,,,,,,,,,,,,,,,,,,,,,,images/exp1b_trial_50_colour3_distractors1_r.png,r,2,004,001,2021-04-13_16h34.16.267,searchDisc4,2020.2.10,MacIntel,60,,,space,0.709,2,1,0.552,,0,140,140,164,1,1b,50,3,1,
,,,,,,,,,,,,,,,,,,,,,,,,,,images/exp2b_trial_59_colour1_distractors19_l.png,l,1,004,001,2021-04-13_16h34.16.267,searchDisc4,2020.2.10,MacIntel,60,,,space,0.499,1,1,0.632,,0,141,141,401,1,2b,59,1,19,
,,,,,,,,,,,,,,,,,,,,,,,,,,images/exp1a_trial_64_colour2_distractors9_l.png,l,1,004,001,2021-04-13_16h34.16.267,searchDisc4,2020.2.10,MacIntel,60,,,space,0.601,1,1,0.73,,0,142,142,64,1,1a,64,2,9,
,,,,,,,,,,,,,,,,,,,,,,,,,,images/exp2a_trial_77_colour1_distractors4_r.png,r,2,004,001,2021-04-13_16h34.16.267,searchDisc4,2020.2.10,MacIntel,60,,,space,0.999,2,1,0.596,,0,143,143,305,1,2a,77,1,4,
,,,,,,,,,,,,,,,,,,,,,,,,,,images/exp2c_trial_23_colour1_distractors43_l.png,l,1,004,001,2021-04-13_16h34.16.267,searchDisc4,2020.2.10,MacIntel,60,,,space,0.599,1,1,0.607,,0,144,144,479,1,2c,23,1,43,
,,,,,,,,,,,,,,,,,,,,,,,,,,images/exp2c_trial_89_colour3_distractors4_r.png,r,2,004,001,2021-04-13_16h34.16.267,searchDisc4,2020.2.10,MacIntel,60,,,space,0.53,2,1,0.648,,0,145,145,545,1,2c,89,3,4,
,,,,,,,,,,,,,,,,,,,,,,,,,,images/exp1b_trial_21_colour1_distractors19_l.png,l,1,004,001,2021-04-13_16h34.16.267,searchDisc4,2020.2.10,MacIntel,60,,,space,0.466,1,1,0.597,,0,146,146,135,1,1b,21,1,19,
,,,,,,,,,,,,,,,,,,,,,,,,,,images/exp1b_trial_81_colour1_distractors43_r.png,r,2,004,001,2021-04-13_16h34.16.267,searchDisc4,2020.2.10,MacIntel,60,,,space,0.53,2,1,0.813,,0,147,147,195,1,1b,81,1,43,
,,,,,,,,,,,,,,,,,,,,,,,,,,images/exp2a_trial_64_colour2_distractors9_l.png,l,1,004,001,2021-04-13_16h34.16.267,searchDisc4,2020.2.10,MacIntel,60,,,space,0.575,1,1,0.545,,0,148,148,292,1,2a,64,2,9,
,,,,,,,,,,,,,,,,,,,,,,,,,,images/exp2b_trial_62_colour2_distractors1_l.png,l,1,004,001,2021-04-13_16h34.16.267,searchDisc4,2020.2.10,MacIntel,60,,,space,0.607,1,1,0.654,,0,149,149,404,1,2b,62,2,1,
,,,,,,,,,,,,,,,,,,,,,,,,,,images/exp1b_trial_46_colour2_distractors9_r.png,r,2,004,001,2021-04-13_16h34.16.267,searchDisc4,2020.2.10,MacIntel,60,,,space,0.497,2,1,0.579,,0,150,150,160,1,1b,46,2,9,
,,,,,,,,,,,,,,,,,,,,,,,,,,images/exp2b_trial_98_colour1_distractors31_l.png,l,1,004,001,2021-04-13_16h34.16.267,searchDisc4,2020.2.10,MacIntel,60,,,space,0.438,1,1,0.645,,0,151,151,440,1,2b,98,1,31,
,,,,,,,,,,,,,,,,,,,,,,,,,,images/exp2a_trial_76_colour1_distractors1_r.png,r,2,004,001,2021-04-13_16h34.16.267,searchDisc4,2020.2.10,MacIntel,60,,,space,0.564,2,1,0.861,,0,152,152,304,1,2a,76,1,1,
,,,,,,,,,,,,,,,,,,,,,,,,,,images/exp1a_trial_11_colour2_distractors43_r.png,r,2,004,001,2021-04-13_16h34.16.267,searchDisc4,2020.2.10,MacIntel,60,,,space,0.514,2,1,0.617,,0,153,153,11,1,1a,11,2,43,
,,,,,,,,,,,,,,,,,,,,,,,,,,images/exp2a_trial_82_colour2_distractors1_r.png,r,2,004,001,2021-04-13_16h34.16.267,searchDisc4,2020.2.10,MacIntel,60,,,space,0.745,2,1,0.611,,0,154,154,310,1,2a,82,2,1,
,,,,,,,,,,,,,,,,,,,,,,,,,,images/exp1b_trial_93_colour3_distractors43_r.png,r,2,004,001,2021-04-13_16h34.16.267,searchDisc4,2020.2.10,MacIntel,60,,,space,0.467,2,1,0.644,,0,155,155,207,1,1b,93,3,43,
,,,,,,,,,,,,,,,,,,,,,,,,,,images/exp2a_trial_70_colour3_distractors9_l.png,l,1,004,001,2021-04-13_16h34.16.267,searchDisc4,2020.2.10,MacIntel,60,,,space,0.532,1,1,0.627,,0,156,156,298,1,2a,70,3,9,
,,,,,,,,,,,,,,,,,,,,,,,,,,images/exp1b_trial_66_colour2_distractors31_l.png,l,1,004,001,2021-04-13_16h34.16.267,searchDisc4,2020.2.10,MacIntel,60,,,space,10.675,1,1,0.766,,0,157,157,180,1,1b,66,2,31,
,,,,,,,,,,,,,,,,,,,,,,,,,,images/exp2c_trial_102_colour2_distractors9_l.png,l,1,004,001,2021-04-13_16h34.16.267,searchDisc4,2020.2.10,MacIntel,60,,,space,0.432,1,1,0.652,,0,158,158,558,1,2c,102,2,9,
,,,,,,,,,,,,,,,,,,,,,,,,,,images/exp2a_trial_18_colour1_distractors1_l.png,l,1,004,001,2021-04-13_16h34.16.267,searchDisc4,2020.2.10,MacIntel,60,,,space,0.466,1,1,0.509,,0,159,159,246,1,2a,18,1,1,
,,,,,,,,,,,,,,,,,,,,,,,,,,images/exp1a_trial_89_colour3_distractors4_r.png,r,2,004,001,2021-04-13_16h34.16.267,searchDisc4,2020.2.10,MacIntel,60,,,space,0.464,2,1,0.634,,0,160,160,89,1,1a,89,3,4,
,,,,,,,,,,,,,,,,,,,,,,,,,,images/exp2a_trial_50_colour3_distractors1_r.png,r,2,004,001,2021-04-13_16h34.16.267,searchDisc4,2020.2.10,MacIntel,60,,,space,0.396,2,1,0.547,,0,161,161,278,1,2a,50,3,1,
,,,,,,,,,,,,,,,,,,,,,,,,,,images/exp1b_trial_71_colour3_distractors19_l.png,l,1,004,001,2021-04-13_16h34.16.267,searchDisc4,2020.2.10,MacIntel,60,,,space,0.464,1,1,0.797,,0,162,162,185,1,1b,71,3,19,
,,,,,,,,,,,,,,,,,,,,,,,,,,images/exp1b_trial_3_colour1_distractors19_r.png,r,2,004,001,2021-04-13_16h34.16.267,searchDisc4,2020.2.10,MacIntel,60,,,space,0.508,2,1,0.644,,0,163,163,117,1,1b,3,1,19,
,,,,,,,,,,,,,,,,,,,,,,,,,,images/exp1b_trial_49_colour2_distractors43_r.png,r,2,004,001,2021-04-13_16h34.16.267,searchDisc4,2020.2.10,MacIntel,60,,,space,0.468,2,1,0.889,,0,164,164,163,1,1b,49,2,43,
,,,,,,,,,,,,,,,,,,,,,,,,,,images/exp2b_trial_40_colour1_distractors9_r.png,r,2,004,001,2021-04-13_16h34.16.267,searchDisc4,2020.2.10,MacIntel,60,,,space,0.404,2,1,0.511,,0,165,165,382,1,2b,40,1,9,
,,,,,,,,,,,,,,,,,,,,,,,,,,images/exp2a_trial_36_colour0_distractors0_r.png,r,2,004,001,2021-04-13_16h34.16.267,searchDisc4,2020.2.10,MacIntel,60,,,space,0.404,2,1,0.511,,0,166,166,264,1,2a,36,0,0,
,,,,,,,,,,,,,,,,,,,,,,,,,,images/exp2a_trial_87_colour2_distractors43_r.png,r,2,004,001,2021-04-13_16h34.16.267,searchDisc4,2020.2.10,MacIntel,60,,,space,0.397,2,1,0.537,,0,167,167,315,1,2a,87,2,43,
,,,,,,,,,,,,,,,,,,,,,,,,,,images/exp1a_trial_95_colour1_distractors4_l.png,l,1,004,001,2021-04-13_16h34.16.267,searchDisc4,2020.2.10,MacIntel,60,,,space,0.409,1,1,0.515,,0,168,168,95,1,1a,95,1,4,
,,,,,,,,,,,,,,,,,,,,,,,,,,images/exp2c_trial_62_colour2_distractors1_l.png,l,1,004,001,2021-04-13_16h34.16.267,searchDisc4,2020.2.10,MacIntel,60,,,space,0.416,1,1,0.599,,0,169,169,518,1,2c,62,2,1,
,,,,,,,,,,,,,,,,,,,,,,,,,,images/exp2b_trial_86_colour2_distractors31_r.png,r,2,004,001,2021-04-13_16h34.16.267,searchDisc4,2020.2.10,MacIntel,60,,,space,0.399,2,1,0.568,,0,170,170,428,1,2b,86,2,31,
,,,,,,,,,,,,,,,,,,,,,,,,,,images/exp2b_trial_60_colour1_distractors31_l.png,l,1,004,001,2021-04-13_16h34.16.267,searchDisc4,2020.2.10,MacIntel,60,,,space,0.402,1,1,0.643,,0,171,171,402,1,2b,60,1,31,
,,,,,,,,,,,,,,,,,,,,,,,,,,images/exp1b_trial_108_colour3_distractors9_l.png,l,1,004,001,2021-04-13_16h34.16.267,searchDisc4,2020.2.10,MacIntel,60,,,space,0.347,1,1,0.686,,0,172,172,222,1,1b,108,3,9,
,,,,,,,,,,,,,,,,,,,,,,,,,,images/exp2c_trial_101_colour2_distractors4_l.png,l,1,004,001,2021-04-13_16h34.16.267,searchDisc4,2020.2.10,MacIntel,60,,,space,0.364,1,1,0.543,,0,173,173,557,1,2c,101,2,4,
,,,,,,,,,,,,,,,,,,,,,,,,,,images/exp2c_trial_69_colour3_distractors4_l.png,l,1,004,001,2021-04-13_16h34.16.267,searchDisc4,2020.2.10,MacIntel,60,,,space,0.396,2,0,0.535,,0,174,174,525,1,2c,69,3,4,
,,,,,,,,,,,,,,,,,,,,,,,,,,images/exp1b_trial_22_colour1_distractors31_l.png,l,1,004,001,2021-04-13_16h34.16.267,searchDisc4,2020.2.10,MacIntel,60,,,space,0.832,1,1,0.837,,0,175,175,136,1,1b,22,1,31,
,,,,,,,,,,,,,,,,,,,,,,,,,,images/exp2a_trial_62_colour2_distractors1_l.png,l,1,004,001,2021-04-13_16h34.16.267,searchDisc4,2020.2.10,MacIntel,60,,,space,0.468,1,1,0.548,,0,176,176,290,1,2a,62,2,1,
,,,,,,,,,,,,,,,,,,,,,,,,,,images/exp1b_trial_48_colour2_distractors31_r.png,r,2,004,001,2021-04-13_16h34.16.267,searchDisc4,2020.2.10,MacIntel,60,,,space,0.431,2,1,0.649,,0,177,177,162,1,1b,48,2,31,
,,,,,,,,,,,,,,,,,,,,,,,,,,images/exp1b_trial_5_colour1_distractors43_r.png,r,2,004,001,2021-04-13_16h34.16.267,searchDisc4,2020.2.10,MacIntel,60,,,space,0.345,2,1,0.732,,0,178,178,119,1,1b,5,1,43,
,,,,,,,,,,,,,,,,,,,,,,,,,,images/exp2c_trial_103_colour2_distractors19_l.png,l,1,004,001,2021-04-13_16h34.16.267,searchDisc4,2020.2.10,MacIntel,60,,,space,0.53,1,1,0.625,space,0,179,179,559,1,2c,103,2,19,2.324
,,,,,,,,,,,,,,,,,,,,,,,,,,images/exp1b_trial_36_colour0_distractors0_r.png,r,2,004,001,2021-04-13_16h34.16.267,searchDisc4,2020.2.10,MacIntel,60,,,space,0.566,2,1,0.731,,0,180,180,150,1,1b,36,0,0,
,,,,,,,,,,,,,,,,,,,,,,,,,,images/exp1a_trial_48_colour2_distractors31_r.png,r,2,004,001,2021-04-13_16h34.16.267,searchDisc4,2020.2.10,MacIntel,60,,,space,0.398,2,1,0.545,,0,181,181,48,1,1a,48,2,31,
,,,,,,,,,,,,,,,,,,,,,,,,,,images/exp1a_trial_8_colour2_distractors9_r.png,r,2,004,001,2021-04-13_16h34.16.267,searchDisc4,2020.2.10,MacIntel,60,,,space,0.365,2,1,0.51,,0,182,182,8,1,1a,8,2,9,
,,,,,,,,,,,,,,,,,,,,,,,,,,images/exp2a_trial_78_colour1_distractors9_r.png,r,2,004,001,2021-04-13_16h34.16.267,searchDisc4,2020.2.10,MacIntel,60,,,space,0.432,2,1,0.71,,0,183,183,306,1,2a,78,1,9,
,,,,,,,,,,,,,,,,,,,,,,,,,,images/exp2a_trial_45_colour2_distractors4_r.png,r,2,004,001,2021-04-13_16h34.16.267,searchDisc4,2020.2.10,MacIntel,60,,,space,0.405,2,1,0.749,,0,184,184,273,1,2a,45,2,4,
,,,,,,,,,,,,,,,,,,,,,,,,,,images/exp2c_trial_57_colour1_distractors4_l.png,l,1,004,001,2021-04-13_16h34.16.267,searchDisc4,2020.2.10,MacIntel,60,,,space,0.381,1,1,0.502,,0,185,185,513,1,2c,57,1,4,
,,,,,,,,,,,,,,,,,,,,,,,,,,images/exp2a_trial_13_colour3_distractors4_r.png,r,2,004,001,2021-04-13_16h34.16.267,searchDisc4,2020.2.10,MacIntel,60,,,space,0.41,2,1,0.71,,0,186,186,241,1,2a,13,3,4,
,,,,,,,,,,,,,,,,,,,,,,,,,,images/exp2b_trial_103_colour2_distractors19_l.png,l,1,004,001,2021-04-13_16h34.16.267,searchDisc4,2020.2.10,MacIntel,60,,,space,0.372,1,1,0.68,,0,187,187,445,1,2b,103,2,19,
,,,,,,,,,,,,,,,,,,,,,,,,,,images/exp1a_trial_25_colour2_distractors4_l.png,l,1,004,001,2021-04-13_16h34.16.267,searchDisc4,2020.2.10,MacIntel,60,,,space,0.405,1,1,0.512,,0,188,188,25,1,1a,25,2,4,
,,,,,,,,,,,,,,,,,,,,,,,,,,images/exp2a_trial_97_colour1_distractors19_l.png,l,1,004,001,2021-04-13_16h34.16.267,searchDisc4,2020.2.10,MacIntel,60,,,space,0.443,1,1,0.678,,0,189,189,325,1,2a,97,1,19,
,,,,,,,,,,,,,,,,,,,,,,,,,,images/exp1a_trial_82_colour2_distractors1_r.png,r,2,004,001,2021-04-13_16h34.16.267,searchDisc4,2020.2.10,MacIntel,60,,,space,0.375,2,1,0.57,,0,190,190,82,1,1a,82,2,1,
,,,,,,,,,,,,,,,,,,,,,,,,,,images/exp2c_trial_52_colour3_distractors9_r.png,r,2,004,001,2021-04-13_16h34.16.267,searchDisc4,2020.2.10,MacIntel,60,,,space,0.435,2,1,0.594,,0,191,191,508,1,2c,52,3,9,
,,,,,,,,,,,,,,,,,,,,,,,,,,images/exp2a_trial_67_colour2_distractors43_l.png,l,1,004,001,2021-04-13_16h34.16.267,searchDisc4,2020.2.10,MacIntel,60,,,space,0.381,1,1,0.681,,0,192,192,295,1,2a,67,2,43,
,,,,,,,,,,,,,,,,,,,,,,,,,,images/exp1a_trial_45_colour2_distractors4_r.png,r,2,004,001,2021-04-13_16h34.16.267,searchDisc4,2020.2.10,MacIntel,60,,,space,0.464,2,1,0.736,,0,193,193,45,1,1a,45,2,4,
,,,,,,,,,,,,,,,,,,,,,,,,,,images/exp2a_trial_9_colour2_distractors19_r.png,r,2,004,001,2021-04-13_16h34.16.267,searchDisc4,2020.2.10,MacIntel,60,,,space,0.431,2,1,0.523,,0,194,194,237,1,2a,9,2,19,
,,,,,,,,,,,,,,,,,,,,,,,,,,images/exp1a_trial_72_colour3_distractors31_l.png,l,1,004,001,2021-04-13_16h34.16.267,searchDisc4,2020.2.10,MacIntel,60,,,space,0.398,1,1,0.67,,0,195,195,72,1,1a,72,3,31,
,,,,,,,,,,,,,,,,,,,,,,,,,,images/exp2c_trial_50_colour3_distractors1_r.png,r,2,004,001,2021-04-13_16h34.16.267,searchDisc4,2020.2.10,MacIntel,60,,,space,0.465,2,1,0.55,,0,196,196,506,1,2c,50,3,1,
,,,,,,,,,,,,,,,,,,,,,,,,,,images/exp2b_trial_14_colour3_distractors9_r.png,r,2,004,001,2021-04-13_16h34.16.267,searchDisc4,2020.2.10,MacIntel,60,,,space,0.368,2,1,0.575,,0,197,197,356,1,2b,14,3,9,
,,,,,,,,,,,,,,,,,,,,,,,,,,images/exp1b_trial_58_colour1_distractors9_l.png,l,1,004,001,2021-04-13_16h34.16.267,searchDisc4,2020.2.10,MacIntel,60,,,space,0.399,1,1,0.61,,0,198,198,172,1,1b,58,1,9,
,,,,,,,,,,,,,,,,,,,,,,,,,,images/exp1b_trial_24_colour2_distractors1_l.png,l,1,004,001,2021-04-13_16h34.16.267,searchDisc4,2020.2.10,MacIntel,60,,,space,0.397,1,1,0.614,,0,199,199,138,1,1b,24,2,1,
,,,,,,,,,,,,,,,,,,,,,,,,,,images/exp2c_trial_82_colour2_distractors1_r.png,r,2,004,001,2021-04-13_16h34.16.267,searchDisc4,2020.2.10,MacIntel,60,,,space,0.37,2,1,0.561,,0,200,200,538,1,2c,82,2,1,
,,,,,,,,,,,,,,,,,,,,,,,,,,images/exp1b_trial_109_colour3_distractors19_l.png,l,1,004,001,2021-04-13_16h34.16.267,searchDisc4,2020.2.10,MacIntel,60,,,space,0.379,1,1,0.904,,0,201,201,223,1,1b,109,3,19,
,,,,,,,,,,,,,,,,,,,,,,,,,,images/exp2c_trial_106_colour3_distractors1_l.png,l,1,004,001,2021-04-13_16h34.16.267,searchDisc4,2020.2.10,MacIntel,60,,,space,0.413,1,1,0.598,,0,202,202,562,1,2c,106,3,1,
,,,,,,,,,,,,,,,,,,,,,,,,,,images/exp2a_trial_3_colour1_distractors19_r.png,r,2,004,001,2021-04-13_16h34.16.267,searchDisc4,2020.2.10,MacIntel,60,,,space,0.366,2,1,0.672,,0,203,203,231,1,2a,3,1,19,
,,,,,,,,,,,,,,,,,,,,,,,,,,images/exp2b_trial_31_colour3_distractors4_l.png,l,1,004,001,2021-04-13_16h34.16.267,searchDisc4,2020.2.10,MacIntel,60,,,space,0.365,1,1,0.667,,0,204,204,373,1,2b,31,3,4,
,,,,,,,,,,,,,,,,,,,,,,,,,,images/exp2b_trial_99_colour1_distractors43_l.png,l,1,004,001,2021-04-13_16h34.16.267,searchDisc4,2020.2.10,MacIntel,60,,,space,0.44,1,1,0.564,,0,205,205,441,1,2b,99,1,43,
,,,,,,,,,,,,,,,,,,,,,,,,,,images/exp2a_trial_21_colour1_distractors19_l.png,l,1,004,001,2021-04-13_16h34.16.267,searchDisc4,2020.2.10,MacIntel,60,,,space,0.479,1,1,0.635,,0,206,206,249,1,2a,21,1,19,
,,,,,,,,,,,,,,,,,,,,,,,,,,images/exp2c_trial_31_colour3_distractors4_l.png,l,1,004,001,2021-04-13_16h34.16.267,searchDisc4,2020.2.10,MacIntel,60,,,space,0.402,1,1,0.666,,0,207,207,487,1,2c,31,3,4,
,,,,,,,,,,,,,,,,,,,,,,,,,,images/exp1a_trial_47_colour2_distractors19_r.png,r,2,004,001,2021-04-13_16h34.16.267,searchDisc4,2020.2.10,MacIntel,60,,,space,0.466,2,1,0.701,,0,208,208,47,1,1a,47,2,19,
,,,,,,,,,,,,,,,,,,,,,,,,,,images/exp2c_trial_96_colour1_distractors9_l.png,l,1,004,001,2021-04-13_16h34.16.267,searchDisc4,2020.2.10,MacIntel,60,,,space,0.436,1,1,0.612,,0,209,209,552,1,2c,96,1,9,
,,,,,,,,,,,,,,,,,,,,,,,,,,images/exp1b_trial_59_colour1_distractors19_l.png,l,1,004,001,2021-04-13_16h34.16.267,searchDisc4,2020.2.10,MacIntel,60,,,space,0.464,1,1,0.676,,0,210,210,173,1,1b,59,1,19,
,,,,,,,,,,,,,,,,,,,,,,,,,,images/exp1a_trial_110_colour3_distractors31_l.png,l,1,004,001,2021-04-13_16h34.16.267,searchDisc4,2020.2.10,MacIntel,60,,,space,31.597,1,1,0.649,,0,211,211,110,1,1a,110,3,31,
,,,,,,,,,,,,,,,,,,,,,,,,,,images/exp1a_trial_93_colour3_distractors43_r.png,r,2,004,001,2021-04-13_16h34.16.267,searchDisc4,2020.2.10,MacIntel,60,,,space,0.464,2,1,0.681,,0,212,212,93,1,1a,93,3,43,
,,,,,,,,,,,,,,,,,,,,,,,,,,images/exp1a_trial_17_colour3_distractors43_r.png,r,2,004,001,2021-04-13_16h34.16.267,searchDisc4,2020.2.10,MacIntel,60,,,space,0.496,2,1,0.571,,0,213,213,17,1,1a,17,3,43,
,,,,,,,,,,,,,,,,,,,,,,,,,,images/exp2b_trial_104_colour2_distractors31_l.png,l,1,004,001,2021-04-13_16h34.16.267,searchDisc4,2020.2.10,MacIntel,60,,,space,0.396,1,1,0.777,,0,214,214,446,1,2b,104,2,31,
,,,,,,,,,,,,,,,,,,,,,,,,,,images/exp2a_trial_58_colour1_distractors9_l.png,l,1,004,001,2021-04-13_16h34.16.267,searchDisc4,2020.2.10,MacIntel,60,,,space,0.433,1,1,0.555,,0,215,215,286,1,2a,58,1,9,
,,,,,,,,,,,,,,,,,,,,,,,,,,images/exp2b_trial_89_colour3_distractors4_r.png,r,2,004,001,2021-04-13_16h34.16.267,searchDisc4,2020.2.10,MacIntel,60,,,space,0.411,2,1,0.658,,0,216,216,431,1,2b,89,3,4,
,,,,,,,,,,,,,,,,,,,,,,,,,,images/exp1a_trial_13_colour3_distractors4_r.png,r,2,004,001,2021-04-13_16h34.16.267,searchDisc4,2020.2.10,MacIntel,60,,,space,0.469,2,1,0.544,,0,217,217,13,1,1a,13,3,4,
,,,,,,,,,,,,,,,,,,,,,,,,,,images/exp1a_trial_52_colour3_distractors9_r.png,r,2,004,001,2021-04-13_16h34.16.267,searchDisc4,2020.2.10,MacIntel,60,,,space,0.531,2,1,0.577,,0,218,218,52,1,1a,52,3,9,
,,,,,,,,,,,,,,,,,,,,,,,,,,images/exp2b_trial_54_colour3_distractors31_r.png,r,2,004,001,2021-04-13_16h34.16.267,searchDisc4,2020.2.10,MacIntel,60,,,space,0.403,2,1,0.594,,0,219,219,396,1,2b,54,3,31,
,,,,,,,,,,,,,,,,,,,,,,,,,,images/exp2a_trial_80_colour1_distractors31_r.png,r,2,004,001,2021-04-13_16h34.16.267,searchDisc4,2020.2.10,MacIntel,60,,,space,0.37,2,1,0.579,,0,220,220,308,1,2a,80,1,31,
,,,,,,,,,,,,,,,,,,,,,,,,,,images/exp2a_trial_94_colour1_distractors1_l.png,l,1,004,001,2021-04-13_16h34.16.267,searchDisc4,2020.2.10,MacIntel,60,,,space,0.705,1,1,0.582,,0,221,221,322,1,2a,94,1,1,
,,,,,,,,,,,,,,,,,,,,,,,,,,images/exp1b_trial_40_colour1_distractors9_r.png,r,2,004,001,2021-04-13_16h34.16.267,searchDisc4,2020.2.10,MacIntel,60,,,space,0.532,2,1,0.621,,0,222,222,154,1,1b,40,1,9,
,,,,,,,,,,,,,,,,,,,,,,,,,,images/exp2a_trial_81_colour1_distractors43_r.png,r,2,004,001,2021-04-13_16h34.16.267,searchDisc4,2020.2.10,MacIntel,60,,,space,0.532,2,1,0.611,,0,223,223,309,1,2a,81,1,43,
,,,,,,,,,,,,,,,,,,,,,,,,,,images/exp2a_trial_17_colour3_distractors43_r.png,r,2,004,001,2021-04-13_16h34.16.267,searchDisc4,2020.2.10,MacIntel,60,,,space,20.931,2,1,0.729,,0,224,224,245,1,2a,17,3,43,
,,,,,,,,,,,,,,,,,,,,,,,,,,images/exp2b_trial_7_colour2_distractors4_r.png,r,2,004,001,2021-04-13_16h34.16.267,searchDisc4,2020.2.10,MacIntel,60,,,space,0.464,2,1,0.568,,0,225,225,349,1,2b,7,2,4,
,,,,,,,,,,,,,,,,,,,,,,,,,,images/exp2a_trial_34_colour3_distractors31_l.png,l,1,004,001,2021-04-13_16h34.16.267,searchDisc4,2020.2.10,MacIntel,60,,,space,0.403,1,1,0.672,,0,226,226,262,1,2a,34,3,31,
,,,,,,,,,,,,,,,,,,,,,,,,,,images/exp1b_trial_26_colour2_distractors9_l.png,l,1,004,001,2021-04-13_16h34.16.267,searchDisc4,2020.2.10,MacIntel,60,,,space,0.362,1,1,0.68,,0,227,227,140,1,1b,26,2,9,
,,,,,,,,,,,,,,,,,,,,,,,,,,images/exp2a_trial_91_colour3_distractors19_r.png,r,2,004,001,2021-04-13_16h34.16.267,searchDisc4,2020.2.10,MacIntel,60,,,space,0.369,2,1,0.719,,0,228,228,319,1,2a,91,3,19,
,,,,,,,,,,,,,,,,,,,,,,,,,,images/exp2a_trial_11_colour2_distractors43_r.png,r,2,004,001,2021-04-13_16h34.16.267,searchDisc4,2020.2.10,MacIntel,60,,,space,0.47,2,1,0.547,,0,229,229,239,1,2a,11,2,43,
,,,,,,,,,,,,,,,,,,,,,,,,,,images/exp2c_trial_25_colour2_distractors4_l.png,l,1,004,001,2021-04-13_16h34.16.267,searchDisc4,2020.2.10,MacIntel,60,,,space,0.482,1,1,0.694,,0,230,230,481,1,2c,25,2,4,
,,,,,,,,,,,,,,,,,,,,,,,,,,images/exp2c_trial_10_colour2_distractors31_r.png,r,2,004,001,2021-04-13_16h34.16.267,searchDisc4,2020.2.10,MacIntel,60,,,space,0.465,2,1,0.542,,0,231,231,466,1,2c,10,2,31,
,,,,,,,,,,,,,,,,,,,,,,,,,,images/exp2b_trial_12_colour3_distractors1_r.png,r,2,004,001,2021-04-13_16h34.16.267,searchDisc4,2020.2.10,MacIntel,60,,,space,0.465,2,1,0.583,,0,232,232,354,1,2b,12,3,1,
,,,,,,,,,,,,,,,,,,,,,,,,,,images/exp2c_trial_109_colour3_distractors19_l.png,l,1,004,001,2021-04-13_16h34.16.267,searchDisc4,2020.2.10,MacIntel,60,,,space,0.413,1,1,0.578,,0,233,233,565,1,2c,109,3,19,
,,,,,,,,,,,,,,,,,,,,,,,,,,images/exp2a_trial_27_colour2_distractors19_l.png,l,1,004,001,2021-04-13_16h34.16.267,searchDisc4,2020.2.10,MacIntel,60,,,space,0.481,1,1,0.509,,0,234,234,255,1,2a,27,2,19,
,,,,,,,,,,,,,,,,,,,,,,,,,,images/exp2c_trial_30_colour3_distractors1_l.png,l,1,004,001,2021-04-13_16h34.16.267,searchDisc4,2020.2.10,MacIntel,60,,,space,0.478,1,1,0.537,,0,235,235,486,1,2c,30,3,1,
,,,,,,,,,,,,,,,,,,,,,,,,,,images/exp2b_trial_47_colour2_distractors19_r.png,r,2,004,001,2021-04-13_16h34.16.267,searchDisc4,2020.2.10,MacIntel,60,,,space,0.465,2,1,0.567,,0,236,236,389,1,2b,47,2,19,
,,,,,,,,,,,,,,,,,,,,,,,,,,images/exp1a_trial_49_colour2_distractors43_r.png,r,2,004,001,2021-04-13_16h34.16.267,searchDisc4,2020.2.10,MacIntel,60,,,space,0.514,2,1,0.483,,0,237,237,49,1,1a,49,2,43,
,,,,,,,,,,,,,,,,,,,,,,,,,,images/exp2a_trial_0_colour1_distractors1_r.png,r,2,004,001,2021-04-13_16h34.16.267,searchDisc4,2020.2.10,MacIntel,60,,,space,0.465,2,1,0.487,,0,238,238,228,1,2a,0,1,1,
,,,,,,,,,,,,,,,,,,,,,,,,,,images/exp1b_trial_29_colour2_distractors43_l.png,l,1,004,001,2021-04-13_16h34.16.267,searchDisc4,2020.2.10,MacIntel,60,,,space,0.431,1,1,1.041,space,0,239,239,143,1,1b,29,2,43,14.756
,,,,,,,,,,,,,,,,,,,,,,,,,,images/exp2c_trial_56_colour1_distractors1_l.png,l,1,004,001,2021-04-13_16h34.16.267,searchDisc4,2020.2.10,MacIntel,60,,,space,2.933,1,1,0.634,,0,240,240,512,1,2c,56,1,1,
,,,,,,,,,,,,,,,,,,,,,,,,,,images/exp1a_trial_101_colour2_distractors4_l.png,l,1,004,001,2021-04-13_16h34.16.267,searchDisc4,2020.2.10,MacIntel,60,,,space,0.377,1,1,0.509,,0,241,241,101,1,1a,101,2,4,
,,,,,,,,,,,,,,,,,,,,,,,,,,images/exp2b_trial_6_colour2_distractors1_r.png,r,2,004,001,2021-04-13_16h34.16.267,searchDisc4,2020.2.10,MacIntel,60,,,space,0.302,2,1,0.487,,0,242,242,348,1,2b,6,2,1,
,,,,,,,,,,,,,,,,,,,,,,,,,,images/exp1a_trial_16_colour3_distractors31_r.png,r,2,004,001,2021-04-13_16h34.16.267,searchDisc4,2020.2.10,MacIntel,60,,,space,0.397,2,1,0.654,,0,243,243,16,1,1a,16,3,31,
,,,,,,,,,,,,,,,,,,,,,,,,,,images/exp2a_trial_99_colour1_distractors43_l.png,l,1,004,001,2021-04-13_16h34.16.267,searchDisc4,2020.2.10,MacIntel,60,,,space,0.341,1,1,0.597,,0,244,244,327,1,2a,99,1,43,
,,,,,,,,,,,,,,,,,,,,,,,,,,images/exp2c_trial_80_colour1_distractors31_r.png,r,2,004,001,2021-04-13_16h34.16.267,searchDisc4,2020.2.10,MacIntel,60,,,space,0.437,2,1,0.634,,0,245,245,536,1,2c,80,1,31,
,,,,,,,,,,,,,,,,,,,,,,,,,,images/exp1a_trial_41_colour1_distractors19_r.png,r,2,004,001,2021-04-13_16h34.16.267,searchDisc4,2020.2.10,MacIntel,60,,,space,0.467,2,1,0.698,,0,246,246,41,1,1a,41,1,19,
,,,,,,,,,,,,,,,,,,,,,,,,,,images/exp2b_trial_28_colour2_distractors31_l.png,l,1,004,001,2021-04-13_16h34.16.267,searchDisc4,2020.2.10,MacIntel,60,,,space,0.496,1,1,0.545,,0,247,247,370,1,2b,28,2,31,
,,,,,,,,,,,,,,,,,,,,,,,,,,images/exp1a_trial_54_colour3_distractors31_r.png,r,2,004,001,2021-04-13_16h34.16.267,searchDisc4,2020.2.10,MacIntel,60,,,space,0.531,2,1,0.629,,0,248,248,54,1,1a,54,3,31,
,,,,,,,,,,,,,,,,,,,,,,,,,,images/exp2b_trial_30_colour3_distractors1_l.png,l,1,004,001,2021-04-13_16h34.16.267,searchDisc4,2020.2.10,MacIntel,60,,,space,0.498,1,1,0.633,,0,249,249,372,1,2b,30,3,1,
,,,,,,,,,,,,,,,,,,,,,,,,,,images/exp2c_trial_5_colour1_distractors43_r.png,r,2,004,001,2021-04-13_16h34.16.267,searchDisc4,2020.2.10,MacIntel,60,,,space,0.478,2,1,0.637,,0,250,250,461,1,2c,5,1,43,
,,,,,,,,,,,,,,,,,,,,,,,,,,images/exp1b_trial_13_colour3_distractors4_r.png,r,2,004,001,2021-04-13_16h34.16.267,searchDisc4,2020.2.10,MacIntel,60,,,space,0.497,2,1,0.544,,0,251,251,127,1,1b,13,3,4,
,,,,,,,,,,,,,,,,,,,,,,,,,,images/exp2b_trial_93_colour3_distractors43_r.png,r,2,004,001,2021-04-13_16h34.16.267,searchDisc4,2020.2.10,MacIntel,60,,,space,0.432,2,1,0.648,,0,252,252,435,1,2b,93,3,43,
,,,,,,,,,,,,,,,,,,,,,,,,,,images/exp1a_trial_0_colour1_distractors1_r.png,r,2,004,001,2021-04-13_16h34.16.267,searchDisc4,2020.2.10,MacIntel,60,,,space,0.398,2,1,1.067,,0,253,253,0,1,1a,0,1,1,
,,,,,,,,,,,,,,,,,,,,,,,,,,images/exp2a_trial_106_colour3_distractors1_l.png,l,1,004,001,2021-04-13_16h34.16.267,searchDisc4,2020.2.10,MacIntel,60,,,space,0.669,1,1,0.577,,0,254,254,334,1,2a,106,3,1,
,,,,,,,,,,,,,,,,,,,,,,,,,,images/exp2c_trial_91_colour3_distractors19_r.png,r,2,004,001,2021-04-13_16h34.16.267,searchDisc4,2020.2.10,MacIntel,60,,,space,0.501,2,1,0.686,,0,255,255,547,1,2c,91,3,19,
,,,,,,,,,,,,,,,,,,,,,,,,,,images/exp2c_trial_24_colour2_distractors1_l.png,l,1,004,001,2021-04-13_16h34.16.267,searchDisc4,2020.2.10,MacIntel,60,,,space,0.5,1,1,0.55,,0,256,256,480,1,2c,24,2,1,
,,,,,,,,,,,,,,,,,,,,,,,,,,images/exp1b_trial_47_colour2_distractors19_r.png,r,2,004,001,2021-04-13_16h34.16.267,searchDisc4,2020.2.10,MacIntel,60,,,space,0.506,2,1,0.576,,0,257,257,161,1,1b,47,2,19,
,,,,,,,,,,,,,,,,,,,,,,,,,,images/exp2b_trial_101_colour2_distractors4_l.png,l,1,004,001,2021-04-13_16h34.16.267,searchDisc4,2020.2.10,MacIntel,60,,,space,0.663,1,1,0.678,,0,258,258,443,1,2b,101,2,4,
,,,,,,,,,,,,,,,,,,,,,,,,,,images/exp2a_trial_47_colour2_distractors19_r.png,r,2,004,001,2021-04-13_16h34.16.267,searchDisc4,2020.2.10,MacIntel,60,,,space,0.503,2,1,0.545,,0,259,259,275,1,2a,47,2,19,
,,,,,,,,,,,,,,,,,,,,,,,,,,images/exp2c_trial_8_colour2_distractors9_r.png,r,2,004,001,2021-04-13_16h34.16.267,searchDisc4,2020.2.10,MacIntel,60,,,space,0.573,2,1,0.529,,0,260,260,464,1,2c,8,2,9,
,,,,,,,,,,,,,,,,,,,,,,,,,,images/exp2a_trial_73_colour3_distractors43_l.png,l,1,004,001,2021-04-13_16h34.16.267,searchDisc4,2020.2.10,MacIntel,60,,,space,0.447,1,1,0.672,,0,261,261,301,1,2a,73,3,43,
,,,,,,,,,,,,,,,,,,,,,,,,,,images/exp2c_trial_37_colour0_distractors0_l.png,l,1,004,001,2021-04-13_16h34.16.267,searchDisc4,2020.2.10,MacIntel,60,,,space,0.607,1,1,0.46,,0,262,262,493,1,2c,37,0,0,
,,,,,,,,,,,,,,,,,,,,,,,,,,images/exp1b_trial_84_colour2_distractors9_r.png,r,2,004,001,2021-04-13_16h34.16.267,searchDisc4,2020.2.10,MacIntel,60,,,space,0.536,2,1,0.676,,0,263,263,198,1,1b,84,2,9,
,,,,,,,,,,,,,,,,,,,,,,,,,,images/exp2b_trial_19_colour1_distractors4_l.png,l,1,004,001,2021-04-13_16h34.16.267,searchDisc4,2020.2.10,MacIntel,60,,,space,0.731,1,1,0.55,,0,264,264,361,1,2b,19,1,4,
,,,,,,,,,,,,,,,,,,,,,,,,,,images/exp2c_trial_94_colour1_distractors1_l.png,l,1,004,001,2021-04-13_16h34.16.267,searchDisc4,2020.2.10,MacIntel,60,,,space,0.535,1,1,0.613,,0,265,265,550,1,2c,94,1,1,
,,,,,,,,,,,,,,,,,,,,,,,,,,images/exp1a_trial_94_colour1_distractors1_l.png,l,1,004,001,2021-04-13_16h34.16.267,searchDisc4,2020.2.10,MacIntel,60,,,space,0.564,1,1,0.509,,0,266,266,94,1,1a,94,1,1,
,,,,,,,,,,,,,,,,,,,,,,,,,,images/exp2b_trial_63_colour2_distractors4_l.png,l,1,004,001,2021-04-13_16h34.16.267,searchDisc4,2020.2.10,MacIntel,60,,,space,0.631,1,1,0.459,,0,267,267,405,1,2b,63,2,4,
,,,,,,,,,,,,,,,,,,,,,,,,,,images/exp2a_trial_14_colour3_distractors9_r.png,r,2,004,001,2021-04-13_16h34.16.267,searchDisc4,2020.2.10,MacIntel,60,,,space,0.665,2,1,0.529,,0,268,268,242,1,2a,14,3,9,
,,,,,,,,,,,,,,,,,,,,,,,,,,images/exp2a_trial_30_colour3_distractors1_l.png,l,1,004,001,2021-04-13_16h34.16.267,searchDisc4,2020.2.10,MacIntel,60,,,space,0.697,1,1,0.676,,0,269,269,258,1,2a,30,3,1,
,,,,,,,,,,,,,,,,,,,,,,,,,,images/exp2c_trial_11_colour2_distractors43_r.png,r,2,004,001,2021-04-13_16h34.16.267,searchDisc4,2020.2.10,MacIntel,60,,,space,0.77,2,1,0.578,,0,270,270,467,1,2c,11,2,43,
,,,,,,,,,,,,,,,,,,,,,,,,,,images/exp2a_trial_95_colour1_distractors4_l.png,l,1,004,001,2021-04-13_16h34.16.267,searchDisc4,2020.2.10,MacIntel,60,,,space,0.732,1,1,0.849,,0,271,271,323,1,2a,95,1,4,
,,,,,,,,,,,,,,,,,,,,,,,,,,images/exp2a_trial_110_colour3_distractors31_l.png,l,1,004,001,2021-04-13_16h34.16.267,searchDisc4,2020.2.10,MacIntel,60,,,space,0.997,1,1,0.568,,0,272,272,338,1,2a,110,3,31,
,,,,,,,,,,,,,,,,,,,,,,,,,,images/exp2b_trial_44_colour2_distractors1_r.png,r,2,004,001,2021-04-13_16h34.16.267,searchDisc4,2020.2.10,MacIntel,60,,,space,0.474,2,1,0.503,,0,273,273,386,1,2b,44,2,1,
,,,,,,,,,,,,,,,,,,,,,,,,,,images/exp2a_trial_109_colour3_distractors19_l.png,l,1,004,001,2021-04-13_16h34.16.267,searchDisc4,2020.2.10,MacIntel,60,,,space,0.764,1,1,0.573,,0,274,274,337,1,2a,109,3,19,
,,,,,,,,,,,,,,,,,,,,,,,,,,images/exp2a_trial_41_colour1_distractors19_r.png,r,2,004,001,2021-04-13_16h34.16.267,searchDisc4,2020.2.10,MacIntel,60,,,space,0.604,2,1,0.631,,0,275,275,269,1,2a,41,1,19,
,,,,,,,,,,,,,,,,,,,,,,,,,,images/exp2b_trial_113_colour0_distractors0_l.png,l,1,004,001,2021-04-13_16h34.16.267,searchDisc4,2020.2.10,MacIntel,60,,,space,0.574,1,1,0.478,,0,276,276,455,1,2b,113,0,0,
,,,,,,,,,,,,,,,,,,,,,,,,,,images/exp1b_trial_75_colour0_distractors0_l.png,l,1,004,001,2021-04-13_16h34.16.267,searchDisc4,2020.2.10,MacIntel,60,,,space,0.731,1,1,0.551,,0,277,277,189,1,1b,75,0,0,
,,,,,,,,,,,,,,,,,,,,,,,,,,images/exp2a_trial_57_colour1_distractors4_l.png,l,1,004,001,2021-04-13_16h34.16.267,searchDisc4,2020.2.10,MacIntel,60,,,space,0.499,1,1,0.587,,0,278,278,285,1,2a,57,1,4,
,,,,,,,,,,,,,,,,,,,,,,,,,,images/exp2b_trial_39_colour1_distractors4_r.png,r,2,004,001,2021-04-13_16h34.16.267,searchDisc4,2020.2.10,MacIntel,60,,,space,0.48,2,1,0.513,,0,279,279,381,1,2b,39,1,4,
,,,,,,,,,,,,,,,,,,,,,,,,,,images/exp2c_trial_46_colour2_distractors9_r.png,r,2,004,001,2021-04-13_16h34.16.267,searchDisc4,2020.2.10,MacIntel,60,,,space,0.431,2,1,0.573,,0,280,280,502,1,2c,46,2,9,
,,,,,,,,,,,,,,,,,,,,,,,,,,images/exp2b_trial_83_colour2_distractors4_r.png,r,2,004,001,2021-04-13_16h34.16.267,searchDisc4,2020.2.10,MacIntel,60,,,space,0.448,2,1,0.559,,0,281,281,425,1,2b,83,2,4,
,,,,,,,,,,,,,,,,,,,,,,,,,,images/exp1b_trial_34_colour3_distractors31_l.png,l,1,004,001,2021-04-13_16h34.16.267,searchDisc4,2020.2.10,MacIntel,60,,,space,0.436,1,1,0.633,,0,282,282,148,1,1b,34,3,31,
,,,,,,,,,,,,,,,,,,,,,,,,,,images/exp2c_trial_68_colour3_distractors1_l.png,l,1,004,001,2021-04-13_16h34.16.267,searchDisc4,2020.2.10,MacIntel,60,,,space,0.473,1,1,0.576,,0,283,283,524,1,2c,68,3,1,
,,,,,,,,,,,,,,,,,,,,,,,,,,images/exp2a_trial_63_colour2_distractors4_l.png,l,1,004,001,2021-04-13_16h34.16.267,searchDisc4,2020.2.10,MacIntel,60,,,space,0.464,1,1,0.55,,0,284,284,291,1,2a,63,2,4,
,,,,,,,,,,,,,,,,,,,,,,,,,,images/exp1a_trial_38_colour1_distractors1_r.png,r,2,004,001,2021-04-13_16h34.16.267,searchDisc4,2020.2.10,MacIntel,60,,,space,0.396,2,1,0.492,,0,285,285,38,1,1a,38,1,1,
,,,,,,,,,,,,,,,,,,,,,,,,,,images/exp1a_trial_5_colour1_distractors43_r.png,r,2,004,001,2021-04-13_16h34.16.267,searchDisc4,2020.2.10,MacIntel,60,,,space,0.499,2,1,0.538,,0,286,286,5,1,1a,5,1,43,
,,,,,,,,,,,,,,,,,,,,,,,,,,images/exp2b_trial_102_colour2_distractors9_l.png,l,1,004,001,2021-04-13_16h34.16.267,searchDisc4,2020.2.10,MacIntel,60,,,space,0.369,1,1,0.633,,0,287,287,444,1,2b,102,2,9,
,,,,,,,,,,,,,,,,,,,,,,,,,,images/exp1a_trial_111_colour3_distractors43_l.png,l,1,004,001,2021-04-13_16h34.16.267,searchDisc4,2020.2.10,MacIntel,60,,,space,0.397,1,1,0.511,,0,288,288,111,1,1a,111,3,43,
,,,,,,,,,,,,,,,,,,,,,,,,,,images/exp2b_trial_69_colour3_distractors4_l.png,l,1,004,001,2021-04-13_16h34.16.267,searchDisc4,2020.2.10,MacIntel,60,,,space,0.401,1,1,0.565,,0,289,289,411,1,2b,69,3,4,
,,,,,,,,,,,,,,,,,,,,,,,,,,images/exp2c_trial_41_colour1_distractors19_r.png,r,2,004,001,2021-04-13_16h34.16.267,searchDisc4,2020.2.10,MacIntel,60,,,space,0.364,2,1,0.677,,0,290,290,497,1,2c,41,1,19,
,,,,,,,,,,,,,,,,,,,,,,,,,,images/exp2c_trial_34_colour3_distractors31_l.png,l,1,004,001,2021-04-13_16h34.16.267,searchDisc4,2020.2.10,MacIntel,60,,,space,0.398,1,1,0.545,,0,291,291,490,1,2c,34,3,31,
,,,,,,,,,,,,,,,,,,,,,,,,,,images/exp2a_trial_46_colour2_distractors9_r.png,r,2,004,001,2021-04-13_16h34.16.267,searchDisc4,2020.2.10,MacIntel,60,,,space,0.566,2,1,0.642,,0,292,292,274,1,2a,46,2,9,
,,,,,,,,,,,,,,,,,,,,,,,,,,images/exp2a_trial_103_colour2_distractors19_l.png,l,1,004,001,2021-04-13_16h34.16.267,searchDisc4,2020.2.10,MacIntel,60,,,space,0.3,1,1,0.649,,0,293,293,331,1,2a,103,2,19,
,,,,,,,,,,,,,,,,,,,,,,,,,,images/exp2c_trial_36_colour0_distractors0_r.png,r,2,004,001,2021-04-13_16h34.16.267,searchDisc4,2020.2.10,MacIntel,60,,,space,0.408,2,1,0.759,,0,294,294,492,1,2c,36,0,0,
,,,,,,,,,,,,,,,,,,,,,,,,,,images/exp2c_trial_77_colour1_distractors4_r.png,r,2,004,001,2021-04-13_16h34.16.267,searchDisc4,2020.2.10,MacIntel,60,,,space,0.476,2,1,0.589,,0,295,295,533,1,2c,77,1,4,
,,,,,,,,,,,,,,,,,,,,,,,,,,images/exp1a_trial_77_colour1_distractors4_r.png,r,2,004,001,2021-04-13_16h34.16.267,searchDisc4,2020.2.10,MacIntel,60,,,space,0.398,2,1,0.73,,0,296,296,77,1,1a,77,1,4,
,,,,,,,,,,,,,,,,,,,,,,,,,,images/exp2a_trial_29_colour2_distractors43_l.png,l,1,004,001,2021-04-13_16h34.16.267,searchDisc4,2020.2.10,MacIntel,60,,,space,0.331,1,1,0.539,,0,297,297,257,1,2a,29,2,43,
,,,,,,,,,,,,,,,,,,,,,,,,,,images/exp1b_trial_110_colour3_distractors31_l.png,l,1,004,001,2021-04-13_16h34.16.267,searchDisc4,2020.2.10,MacIntel,60,,,space,0.34,1,1,2.167,,0,298,298,224,1,1b,110,3,31,
,,,,,,,,,,,,,,,,,,,,,,,,,,images/exp2b_trial_110_colour3_distractors31_l.png,l,1,004,001,2021-04-13_16h34.16.267,searchDisc4,2020.2.10,MacIntel,60,,,space,0.334,1,1,0.51,space,0,299,299,452,1,2b,110,3,31,0.3
,,,,,,,,,,,,,,,,,,,,,,,,,,images/exp1a_trial_100_colour2_distractors1_l.png,l,1,004,001,2021-04-13_16h34.16.267,searchDisc4,2020.2.10,MacIntel,60,,,space,2.174,1,1,0.491,,0,300,300,100,1,1a,100,2,1,
,,,,,,,,,,,,,,,,,,,,,,,,,,images/exp1b_trial_98_colour1_distractors31_l.png,l,1,004,001,2021-04-13_16h34.16.267,searchDisc4,2020.2.10,MacIntel,60,,,space,0.379,1,1,0.752,,0,301,301,212,1,1b,98,1,31,
,,,,,,,,,,,,,,,,,,,,,,,,,,images/exp2c_trial_73_colour3_distractors43_l.png,l,1,004,001,2021-04-13_16h34.16.267,searchDisc4,2020.2.10,MacIntel,60,,,space,0.397,1,1,0.571,,0,302,302,529,1,2c,73,3,43,
,,,,,,,,,,,,,,,,,,,,,,,,,,images/exp2b_trial_96_colour1_distractors9_l.png,l,1,004,001,2021-04-13_16h34.16.267,searchDisc4,2020.2.10,MacIntel,60,,,space,0.363,1,1,0.537,,0,303,303,438,1,2b,96,1,9,
,,,,,,,,,,,,,,,,,,,,,,,,,,images/exp2b_trial_51_colour3_distractors4_r.png,r,2,004,001,2021-04-13_16h34.16.267,searchDisc4,2020.2.10,MacIntel,60,,,space,0.331,2,1,0.702,,0,304,304,393,1,2b,51,3,4,
,,,,,,,,,,,,,,,,,,,,,,,,,,images/exp2c_trial_0_colour1_distractors1_r.png,r,2,004,001,2021-04-13_16h34.16.267,searchDisc4,2020.2.10,MacIntel,60,,,space,0.398,2,1,0.544,,0,305,305,456,1,2c,0,1,1,
,,,,,,,,,,,,,,,,,,,,,,,,,,images/exp1b_trial_9_colour2_distractors19_r.png,r,2,004,001,2021-04-13_16h34.16.267,searchDisc4,2020.2.10,MacIntel,60,,,space,0.331,2,1,0.842,,0,306,306,123,1,1b,9,2,19,
,,,,,,,,,,,,,,,,,,,,,,,,,,images/exp1b_trial_20_colour1_distractors9_l.png,l,1,004,001,2021-04-13_16h34.16.267,searchDisc4,2020.2.10,MacIntel,60,,,space,0.365,1,1,0.547,,0,307,307,134,1,1b,20,1,9,
,,,,,,,,,,,,,,,,,,,,,,,,,,images/exp1a_trial_59_colour1_distractors19_l.png,l,1,004,001,2021-04-13_16h34.16.267,searchDisc4,2020.2.10,MacIntel,60,,,space,0.367,1,1,0.55,,0,308,308,59,1,1a,59,1,19,
,,,,,,,,,,,,,,,,,,,,,,,,,,images/exp2a_trial_89_colour3_distractors4_r.png,r,2,004,001,2021-04-13_16h34.16.267,searchDisc4,2020.2.10,MacIntel,60,,,space,0.31,2,1,0.609,,0,309,309,317,1,2a,89,3,4,
,,,,,,,,,,,,,,,,,,,,,,,,,,images/exp2b_trial_92_colour3_distractors31_r.png,r,2,004,001,2021-04-13_16h34.16.267,searchDisc4,2020.2.10,MacIntel,60,,,space,0.298,2,1,0.65,,0,310,310,434,1,2b,92,3,31,
,,,,,,,,,,,,,,,,,,,,,,,,,,images/exp1b_trial_42_colour1_distractors31_r.png,r,2,004,001,2021-04-13_16h34.16.267,searchDisc4,2020.2.10,MacIntel,60,,,space,0.313,2,1,0.523,,0,311,311,156,1,1b,42,1,31,
,,,,,,,,,,,,,,,,,,,,,,,,,,images/exp2b_trial_52_colour3_distractors9_r.png,r,2,004,001,2021-04-13_16h34.16.267,searchDisc4,2020.2.10,MacIntel,60,,,space,0.34,2,1,0.656,,0,312,312,394,1,2b,52,3,9,
,,,,,,,,,,,,,,,,,,,,,,,,,,images/exp1b_trial_106_colour3_distractors1_l.png,l,1,004,001,2021-04-13_16h34.16.267,searchDisc4,2020.2.10,MacIntel,60,,,space,0.331,1,1,0.745,,0,313,313,220,1,1b,106,3,1,
,,,,,,,,,,,,,,,,,,,,,,,,,,images/exp1b_trial_23_colour1_distractors43_l.png,l,1,004,001,2021-04-13_16h34.16.267,searchDisc4,2020.2.10,MacIntel,60,,,space,0.239,1,1,0.596,,0,314,314,137,1,1b,23,1,43,
,,,,,,,,,,,,,,,,,,,,,,,,,,images/exp2b_trial_84_colour2_distractors9_r.png,r,2,004,001,2021-04-13_16h34.16.267,searchDisc4,2020.2.10,MacIntel,60,,,space,0.263,2,1,0.633,,0,315,315,426,1,2b,84,2,9,
,,,,,,,,,,,,,,,,,,,,,,,,,,images/exp2c_trial_76_colour1_distractors1_r.png,r,2,004,001,2021-04-13_16h34.16.267,searchDisc4,2020.2.10,MacIntel,60,,,space,0.364,2,1,0.544,,0,316,316,532,1,2c,76,1,1,
,,,,,,,,,,,,,,,,,,,,,,,,,,images/exp1a_trial_66_colour2_distractors31_l.png,l,1,004,001,2021-04-13_16h34.16.267,searchDisc4,2020.2.10,MacIntel,60,,,space,2.141,1,1,0.517,,0,317,317,66,1,1a,66,2,31,
,,,,,,,,,,,,,,,,,,,,,,,,,,images/exp2c_trial_2_colour1_distractors9_r.png,r,2,004,001,2021-04-13_16h34.16.267,searchDisc4,2020.2.10,MacIntel,60,,,space,0.515,2,1,0.482,,0,318,318,458,1,2c,2,1,9,
,,,,,,,,,,,,,,,,,,,,,,,,,,images/exp1b_trial_37_colour0_distractors0_l.png,l,1,004,001,2021-04-13_16h34.16.267,searchDisc4,2020.2.10,MacIntel,60,,,space,0.435,1,1,0.559,,0,319,319,151,1,1b,37,0,0,
,,,,,,,,,,,,,,,,,,,,,,,,,,images/exp2b_trial_90_colour3_distractors9_r.png,r,2,004,001,2021-04-13_16h34.16.267,searchDisc4,2020.2.10,MacIntel,60,,,space,0.468,2,1,0.557,,0,320,320,432,1,2b,90,3,9,
,,,,,,,,,,,,,,,,,,,,,,,,,,images/exp2a_trial_98_colour1_distractors31_l.png,l,1,004,001,2021-04-13_16h34.16.267,searchDisc4,2020.2.10,MacIntel,60,,,space,0.464,1,1,0.603,,0,321,321,326,1,2a,98,1,31,
,,,,,,,,,,,,,,,,,,,,,,,,,,images/exp2a_trial_40_colour1_distractors9_r.png,r,2,004,001,2021-04-13_16h34.16.267,searchDisc4,2020.2.10,MacIntel,60,,,space,0.467,2,1,0.735,,0,322,322,268,1,2a,40,1,9,
,,,,,,,,,,,,,,,,,,,,,,,,,,images/exp1a_trial_26_colour2_distractors9_l.png,l,1,004,001,2021-04-13_16h34.16.267,searchDisc4,2020.2.10,MacIntel,60,,,space,0.444,1,1,0.697,,0,323,323,26,1,1a,26,2,9,
,,,,,,,,,,,,,,,,,,,,,,,,,,images/exp1a_trial_28_colour2_distractors31_l.png,l,1,004,001,2021-04-13_16h34.16.267,searchDisc4,2020.2.10,MacIntel,60,,,space,0.466,1,1,0.677,,0,324,324,28,1,1a,28,2,31,
,,,,,,,,,,,,,,,,,,,,,,,,,,images/exp2a_trial_85_colour2_distractors19_r.png,r,2,004,001,2021-04-13_16h34.16.267,searchDisc4,2020.2.10,MacIntel,60,,,space,0.836,2,1,0.556,,0,325,325,313,1,2a,85,2,19,
,,,,,,,,,,,,,,,,,,,,,,,,,,images/exp2c_trial_79_colour1_distractors19_r.png,r,2,004,001,2021-04-13_16h34.16.267,searchDisc4,2020.2.10,MacIntel,60,,,space,0.477,2,1,0.542,,0,326,326,535,1,2c,79,1,19,
,,,,,,,,,,,,,,,,,,,,,,,,,,images/exp2c_trial_13_colour3_distractors4_r.png,r,2,004,001,2021-04-13_16h34.16.267,searchDisc4,2020.2.10,MacIntel,60,,,space,0.499,2,1,0.577,,0,327,327,469,1,2c,13,3,4,
,,,,,,,,,,,,,,,,,,,,,,,,,,images/exp1a_trial_60_colour1_distractors31_l.png,l,1,004,001,2021-04-13_16h34.16.267,searchDisc4,2020.2.10,MacIntel,60,,,space,0.445,1,1,0.604,,0,328,328,60,1,1a,60,1,31,
,,,,,,,,,,,,,,,,,,,,,,,,,,images/exp1b_trial_11_colour2_distractors43_r.png,r,2,004,001,2021-04-13_16h34.16.267,searchDisc4,2020.2.10,MacIntel,60,,,space,0.446,2,1,1.178,,0,329,329,125,1,1b,11,2,43,
,,,,,,,,,,,,,,,,,,,,,,,,,,images/exp2b_trial_97_colour1_distractors19_l.png,l,1,004,001,2021-04-13_16h34.16.267,searchDisc4,2020.2.10,MacIntel,60,,,space,0.465,1,1,0.52,,0,330,330,439,1,2b,97,1,19,
,,,,,,,,,,,,,,,,,,,,,,,,,,images/exp2a_trial_66_colour2_distractors31_l.png,l,1,004,001,2021-04-13_16h34.16.267,searchDisc4,2020.2.10,MacIntel,60,,,space,0.466,1,1,0.538,,0,331,331,294,1,2a,66,2,31,
,,,,,,,,,,,,,,,,,,,,,,,,,,images/exp2a_trial_51_colour3_distractors4_r.png,r,2,004,001,2021-04-13_16h34.16.267,searchDisc4,2020.2.10,MacIntel,60,,,space,0.501,2,1,0.553,,0,332,332,279,1,2a,51,3,4,
,,,,,,,,,,,,,,,,,,,,,,,,,,images/exp2a_trial_60_colour1_distractors31_l.png,l,1,004,001,2021-04-13_16h34.16.267,searchDisc4,2020.2.10,MacIntel,60,,,space,0.532,1,1,0.558,,0,333,333,288,1,2a,60,1,31,
,,,,,,,,,,,,,,,,,,,,,,,,,,images/exp2a_trial_6_colour2_distractors1_r.png,r,2,004,001,2021-04-13_16h34.16.267,searchDisc4,2020.2.10,MacIntel,60,,,space,0.565,2,1,0.502,,0,334,334,234,1,2a,6,2,1,
,,,,,,,,,,,,,,,,,,,,,,,,,,images/exp2a_trial_112_colour0_distractors0_r.png,r,2,004,001,2021-04-13_16h34.16.267,searchDisc4,2020.2.10,MacIntel,60,,,space,0.665,2,1,0.453,,0,335,335,340,1,2a,112,0,0,
,,,,,,,,,,,,,,,,,,,,,,,,,,images/exp1a_trial_79_colour1_distractors19_r.png,r,2,004,001,2021-04-13_16h34.16.267,searchDisc4,2020.2.10,MacIntel,60,,,space,0.444,2,1,0.772,,0,336,336,79,1,1a,79,1,19,
,,,,,,,,,,,,,,,,,,,,,,,,,,images/exp2c_trial_47_colour2_distractors19_r.png,r,2,004,001,2021-04-13_16h34.16.267,searchDisc4,2020.2.10,MacIntel,60,,,space,0.533,2,1,0.541,,0,337,337,503,1,2c,47,2,19,
,,,,,,,,,,,,,,,,,,,,,,,,,,images/exp2b_trial_111_colour3_distractors43_l.png,l,1,004,001,2021-04-13_16h34.16.267,searchDisc4,2020.2.10,MacIntel,60,,,space,0.531,1,1,0.632,,0,338,338,453,1,2b,111,3,43,
,,,,,,,,,,,,,,,,,,,,,,,,,,images/exp2a_trial_69_colour3_distractors4_l.png,l,1,004,001,2021-04-13_16h34.16.267,searchDisc4,2020.2.10,MacIntel,60,,,space,0.437,1,1,0.47,,0,339,339,297,1,2a,69,3,4,
,,,,,,,,,,,,,,,,,,,,,,,,,,images/exp2b_trial_71_colour3_distractors19_l.png,l,1,004,001,2021-04-13_16h34.16.267,searchDisc4,2020.2.10,MacIntel,60,,,space,0.497,1,1,0.622,,0,340,340,413,1,2b,71,3,19,
,,,,,,,,,,,,,,,,,,,,,,,,,,images/exp2a_trial_12_colour3_distractors1_r.png,r,2,004,001,2021-04-13_16h34.16.267,searchDisc4,2020.2.10,MacIntel,60,,,space,0.47,2,1,0.786,,0,341,341,240,1,2a,12,3,1,
,,,,,,,,,,,,,,,,,,,,,,,,,,images/exp1b_trial_89_colour3_distractors4_r.png,r,2,004,001,2021-04-13_16h34.16.267,searchDisc4,2020.2.10,MacIntel,60,,,space,0.439,2,1,0.579,,0,342,342,203,1,1b,89,3,4,
,,,,,,,,,,,,,,,,,,,,,,,,,,images/exp1a_trial_22_colour1_distractors31_l.png,l,1,004,001,2021-04-13_16h34.16.267,searchDisc4,2020.2.10,MacIntel,60,,,space,0.408,1,1,0.621,,0,343,343,22,1,1a,22,1,31,
,,,,,,,,,,,,,,,,,,,,,,,,,,images/exp2a_trial_92_colour3_distractors31_r.png,r,2,004,001,2021-04-13_16h34.16.267,searchDisc4,2020.2.10,MacIntel,60,,,space,0.637,2,1,0.573,,0,344,344,320,1,2a,92,3,31,
,,,,,,,,,,,,,,,,,,,,,,,,,,images/exp1b_trial_101_colour2_distractors4_l.png,l,1,004,001,2021-04-13_16h34.16.267,searchDisc4,2020.2.10,MacIntel,60,,,space,0.506,1,1,0.877,,0,345,345,215,1,1b,101,2,4,
,,,,,,,,,,,,,,,,,,,,,,,,,,images/exp2b_trial_18_colour1_distractors1_l.png,l,1,004,001,2021-04-13_16h34.16.267,searchDisc4,2020.2.10,MacIntel,60,,,space,0.399,1,1,0.533,,0,346,346,360,1,2b,18,1,1,
,,,,,,,,,,,,,,,,,,,,,,,,,,images/exp2b_trial_72_colour3_distractors31_l.png,l,1,004,001,2021-04-13_16h34.16.267,searchDisc4,2020.2.10,MacIntel,60,,,space,0.631,1,1,0.7,,0,347,347,414,1,2b,72,3,31,
,,,,,,,,,,,,,,,,,,,,,,,,,,images/exp2b_trial_43_colour1_distractors43_r.png,r,2,004,001,2021-04-13_16h34.16.267,searchDisc4,2020.2.10,MacIntel,60,,,space,0.531,2,1,0.601,,0,348,348,385,1,2b,43,1,43,
,,,,,,,,,,,,,,,,,,,,,,,,,,images/exp1b_trial_61_colour1_distractors43_l.png,l,1,004,001,2021-04-13_16h34.16.267,searchDisc4,2020.2.10,MacIntel,60,,,space,1.331,1,1,0.684,,0,349,349,175,1,1b,61,1,43,
,,,,,,,,,,,,,,,,,,,,,,,,,,images/exp1b_trial_105_colour2_distractors43_l.png,l,1,004,001,2021-04-13_16h34.16.267,searchDisc4,2020.2.10,MacIntel,60,,,space,0.537,1,1,0.631,,0,350,350,219,1,1b,105,2,43,
,,,,,,,,,,,,,,,,,,,,,,,,,,images/exp2a_trial_96_colour1_distractors9_l.png,l,1,004,001,2021-04-13_16h34.16.267,searchDisc4,2020.2.10,MacIntel,60,,,space,0.475,1,1,0.51,,0,351,351,324,1,2a,96,1,9,
,,,,,,,,,,,,,,,,,,,,,,,,,,images/exp2b_trial_41_colour1_distractors19_r.png,r,2,004,001,2021-04-13_16h34.16.267,searchDisc4,2020.2.10,MacIntel,60,,,space,0.498,2,1,0.502,,0,352,352,383,1,2b,41,1,19,
,,,,,,,,,,,,,,,,,,,,,,,,,,images/exp1a_trial_29_colour2_distractors43_l.png,l,1,004,001,2021-04-13_16h34.16.267,searchDisc4,2020.2.10,MacIntel,60,,,space,0.511,1,1,0.778,,0,353,353,29,1,1a,29,2,43,
,,,,,,,,,,,,,,,,,,,,,,,,,,images/exp2a_trial_44_colour2_distractors1_r.png,r,2,004,001,2021-04-13_16h34.16.267,searchDisc4,2020.2.10,MacIntel,60,,,space,0.478,2,1,0.744,,0,354,354,272,1,2a,44,2,1,
,,,,,,,,,,,,,,,,,,,,,,,,,,images/exp2c_trial_107_colour3_distractors4_l.png,l,1,004,001,2021-04-13_16h34.16.267,searchDisc4,2020.2.10,MacIntel,60,,,space,0.574,1,1,0.613,,0,355,355,563,1,2c,107,3,4,
,,,,,,,,,,,,,,,,,,,,,,,,,,images/exp2b_trial_108_colour3_distractors9_l.png,l,1,004,001,2021-04-13_16h34.16.267,searchDisc4,2020.2.10,MacIntel,60,,,space,0.534,1,1,0.485,,0,356,356,450,1,2b,108,3,9,
,,,,,,,,,,,,,,,,,,,,,,,,,,images/exp1a_trial_33_colour3_distractors19_l.png,l,1,004,001,2021-04-13_16h34.16.267,searchDisc4,2020.2.10,MacIntel,60,,,space,0.479,1,1,0.677,,0,357,357,33,1,1a,33,3,19,
,,,,,,,,,,,,,,,,,,,,,,,,,,images/exp1a_trial_31_colour3_distractors4_l.png,l,1,004,001,2021-04-13_16h34.16.267,searchDisc4,2020.2.10,MacIntel,60,,,space,0.431,2,0,0.516,,0,358,358,31,1,1a,31,3,4,
,,,,,,,,,,,,,,,,,,,,,,,,,,images/exp2c_trial_67_colour2_distractors43_l.png,l,1,004,001,2021-04-13_16h34.16.267,searchDisc4,2020.2.10,MacIntel,60,,,space,0.698,1,1,0.68,space,0,359,359,523,1,2c,67,2,43,4.736
,,,,,,,,,,,,,,,,,,,,,,,,,,images/exp1a_trial_42_colour1_distractors31_r.png,r,2,004,001,2021-04-13_16h34.16.267,searchDisc4,2020.2.10,MacIntel,60,,,space,0.667,2,1,0.595,,0,360,360,42,1,1a,42,1,31,
,,,,,,,,,,,,,,,,,,,,,,,,,,images/exp2a_trial_74_colour0_distractors0_r.png,r,2,004,001,2021-04-13_16h34.16.267,searchDisc4,2020.2.10,MacIntel,60,,,space,0.414,2,1,0.552,,0,361,361,302,1,2a,74,0,0,
,,,,,,,,,,,,,,,,,,,,,,,,,,images/exp1a_trial_86_colour2_distractors31_r.png,r,2,004,001,2021-04-13_16h34.16.267,searchDisc4,2020.2.10,MacIntel,60,,,space,0.402,2,1,0.565,,0,362,362,86,1,1a,86,2,31,
,,,,,,,,,,,,,,,,,,,,,,,,,,images/exp2c_trial_90_colour3_distractors9_r.png,r,2,004,001,2021-04-13_16h34.16.267,searchDisc4,2020.2.10,MacIntel,60,,,space,0.38,2,1,0.645,,0,363,363,546,1,2c,90,3,9,
,,,,,,,,,,,,,,,,,,,,,,,,,,images/exp1a_trial_6_colour2_distractors1_r.png,r,2,004,001,2021-04-13_16h34.16.267,searchDisc4,2020.2.10,MacIntel,60,,,space,0.331,2,1,0.499,,0,364,364,6,1,1a,6,2,1,
,,,,,,,,,,,,,,,,,,,,,,,,,,images/exp2a_trial_2_colour1_distractors9_r.png,r,2,004,001,2021-04-13_16h34.16.267,searchDisc4,2020.2.10,MacIntel,60,,,space,0.367,2,1,0.583,,0,365,365,230,1,2a,2,1,9,
,,,,,,,,,,,,,,,,,,,,,,,,,,images/exp1a_trial_71_colour3_distractors19_l.png,l,1,004,001,2021-04-13_16h34.16.267,searchDisc4,2020.2.10,MacIntel,60,,,space,0.433,1,1,0.739,,0,366,366,71,1,1a,71,3,19,
,,,,,,,,,,,,,,,,,,,,,,,,,,images/exp1a_trial_39_colour1_distractors4_r.png,r,2,004,001,2021-04-13_16h34.16.267,searchDisc4,2020.2.10,MacIntel,60,,,space,0.447,1,0,0.636,,0,367,367,39,1,1a,39,1,4,
,,,,,,,,,,,,,,,,,,,,,,,,,,images/exp2c_trial_29_colour2_distractors43_l.png,l,1,004,001,2021-04-13_16h34.16.267,searchDisc4,2020.2.10,MacIntel,60,,,space,0.509,1,1,0.643,,0,368,368,485,1,2c,29,2,43,
,,,,,,,,,,,,,,,,,,,,,,,,,,images/exp1a_trial_96_colour1_distractors9_l.png,l,1,004,001,2021-04-13_16h34.16.267,searchDisc4,2020.2.10,MacIntel,60,,,space,0.431,1,1,0.587,,0,369,369,96,1,1a,96,1,9,
,,,,,,,,,,,,,,,,,,,,,,,,,,images/exp1a_trial_9_colour2_distractors19_r.png,r,2,004,001,2021-04-13_16h34.16.267,searchDisc4,2020.2.10,MacIntel,60,,,space,0.432,2,1,0.581,,0,370,370,9,1,1a,9,2,19,
,,,,,,,,,,,,,,,,,,,,,,,,,,images/exp1b_trial_88_colour3_distractors1_r.png,r,2,004,001,2021-04-13_16h34.16.267,searchDisc4,2020.2.10,MacIntel,60,,,space,0.401,2,1,0.744,,0,371,371,202,1,1b,88,3,1,
,,,,,,,,,,,,,,,,,,,,,,,,,,images/exp1a_trial_76_colour1_distractors1_r.png,r,2,004,001,2021-04-13_16h34.16.267,searchDisc4,2020.2.10,MacIntel,60,,,space,0.565,2,1,0.815,,0,372,372,76,1,1a,76,1,1,
,,,,,,,,,,,,,,,,,,,,,,,,,,images/exp2a_trial_113_colour0_distractors0_l.png,l,1,004,001,2021-04-13_16h34.16.267,searchDisc4,2020.2.10,MacIntel,60,,,space,0.399,1,1,0.613,,0,373,373,341,1,2a,113,0,0,
,,,,,,,,,,,,,,,,,,,,,,,,,,images/exp1a_trial_103_colour2_distractors19_l.png,l,1,004,001,2021-04-13_16h34.16.267,searchDisc4,2020.2.10,MacIntel,60,,,space,0.401,1,1,0.777,,0,374,374,103,1,1a,103,2,19,
,,,,,,,,,,,,,,,,,,,,,,,,,,images/exp2a_trial_20_colour1_distractors9_l.png,l,1,004,001,2021-04-13_16h34.16.267,searchDisc4,2020.2.10,MacIntel,60,,,space,0.731,1,1,0.743,,0,375,375,248,1,2a,20,1,9,
,,,,,,,,,,,,,,,,,,,,,,,,,,images/exp2c_trial_74_colour0_distractors0_r.png,r,2,004,001,2021-04-13_16h34.16.267,searchDisc4,2020.2.10,MacIntel,60,,,space,0.598,2,1,0.538,,0,376,376,530,1,2c,74,0,0,
,,,,,,,,,,,,,,,,,,,,,,,,,,images/exp2c_trial_93_colour3_distractors43_r.png,r,2,004,001,2021-04-13_16h34.16.267,searchDisc4,2020.2.10,MacIntel,60,,,space,0.497,2,1,0.547,,0,377,377,549,1,2c,93,3,43,
,,,,,,,,,,,,,,,,,,,,,,,,,,images/exp2c_trial_110_colour3_distractors31_l.png,l,1,004,001,2021-04-13_16h34.16.267,searchDisc4,2020.2.10,MacIntel,60,,,space,0.441,1,1,0.688,,0,378,378,566,1,2c,110,3,31,
,,,,,,,,,,,,,,,,,,,,,,,,,,images/exp1a_trial_85_colour2_distractors19_r.png,r,2,004,001,2021-04-13_16h34.16.267,searchDisc4,2020.2.10,MacIntel,60,,,space,0.431,2,1,0.714,,0,379,379,85,1,1a,85,2,19,
,,,,,,,,,,,,,,,,,,,,,,,,,,images/exp2b_trial_32_colour3_distractors9_l.png,l,1,004,001,2021-04-13_16h34.16.267,searchDisc4,2020.2.10,MacIntel,60,,,space,0.4,1,1,0.686,,0,380,380,374,1,2b,32,3,9,
,,,,,,,,,,,,,,,,,,,,,,,,,,images/exp2b_trial_91_colour3_distractors19_r.png,r,2,004,001,2021-04-13_16h34.16.267,searchDisc4,2020.2.10,MacIntel,60,,,space,0.379,2,1,0.547,,0,381,381,433,1,2b,91,3,19,
,,,,,,,,,,,,,,,,,,,,,,,,,,images/exp2c_trial_111_colour3_distractors43_l.png,l,1,004,001,2021-04-13_16h34.16.267,searchDisc4,2020.2.10,MacIntel,60,,,space,0.406,1,1,0.657,,0,382,382,567,1,2c,111,3,43,
,,,,,,,,,,,,,,,,,,,,,,,,,,images/exp2c_trial_45_colour2_distractors4_r.png,r,2,004,001,2021-04-13_16h34.16.267,searchDisc4,2020.2.10,MacIntel,60,,,space,0.445,2,1,0.698,,0,383,383,501,1,2c,45,2,4,
,,,,,,,,,,,,,,,,,,,,,,,,,,images/exp1a_trial_80_colour1_distractors31_r.png,r,2,004,001,2021-04-13_16h34.16.267,searchDisc4,2020.2.10,MacIntel,60,,,space,0.439,2,1,0.875,,0,384,384,80,1,1a,80,1,31,
,,,,,,,,,,,,,,,,,,,,,,,,,,images/exp1a_trial_73_colour3_distractors43_l.png,l,1,004,001,2021-04-13_16h34.16.267,searchDisc4,2020.2.10,MacIntel,60,,,space,0.473,1,1,0.705,,0,385,385,73,1,1a,73,3,43,
,,,,,,,,,,,,,,,,,,,,,,,,,,images/exp2b_trial_65_colour2_distractors19_l.png,l,1,004,001,2021-04-13_16h34.16.267,searchDisc4,2020.2.10,MacIntel,60,,,space,0.404,1,1,0.667,,0,386,386,407,1,2b,65,2,19,
,,,,,,,,,,,,,,,,,,,,,,,,,,images/exp1b_trial_44_colour2_distractors1_r.png,r,2,004,001,2021-04-13_16h34.16.267,searchDisc4,2020.2.10,MacIntel,60,,,space,0.367,2,1,0.843,,0,387,387,158,1,1b,44,2,1,
,,,,,,,,,,,,,,,,,,,,,,,,,,images/exp1b_trial_96_colour1_distractors9_l.png,l,1,004,001,2021-04-13_16h34.16.267,searchDisc4,2020.2.10,MacIntel,60,,,space,0.665,1,1,0.674,,0,388,388,210,1,1b,96,1,9,
,,,,,,,,,,,,,,,,,,,,,,,,,,images/exp2c_trial_105_colour2_distractors43_l.png,l,1,004,001,2021-04-13_16h34.16.267,searchDisc4,2020.2.10,MacIntel,60,,,space,0.433,1,1,0.606,,0,389,389,561,1,2c,105,2,43,
,,,,,,,,,,,,,,,,,,,,,,,,,,images/exp2b_trial_109_colour3_distractors19_l.png,l,1,004,001,2021-04-13_16h34.16.267,searchDisc4,2020.2.10,MacIntel,60,,,space,0.469,1,1,0.565,,0,390,390,451,1,2b,109,3,19,
,,,,,,,,,,,,,,,,,,,,,,,,,,images/exp1b_trial_15_colour3_distractors19_r.png,r,2,004,001,2021-04-13_16h34.16.267,searchDisc4,2020.2.10,MacIntel,60,,,space,0.369,2,1,0.549,,0,391,391,129,1,1b,15,3,19,
,,,,,,,,,,,,,,,,,,,,,,,,,,images/exp1a_trial_107_colour3_distractors4_l.png,l,1,004,001,2021-04-13_16h34.16.267,searchDisc4,2020.2.10,MacIntel,60,,,space,0.464,1,1,0.6,,0,392,392,107,1,1a,107,3,4,
,,,,,,,,,,,,,,,,,,,,,,,,,,images/exp2c_trial_78_colour1_distractors9_r.png,r,2,004,001,2021-04-13_16h34.16.267,searchDisc4,2020.2.10,MacIntel,60,,,space,0.398,2,1,0.644,,0,393,393,534,1,2c,78,1,9,
,,,,,,,,,,,,,,,,,,,,,,,,,,images/exp2c_trial_14_colour3_distractors9_r.png,r,2,004,001,2021-04-13_16h34.16.267,searchDisc4,2020.2.10,MacIntel,60,,,space,0.37,2,1,0.614,,0,394,394,470,1,2c,14,3,9,
,,,,,,,,,,,,,,,,,,,,,,,,,,images/exp1b_trial_91_colour3_distractors19_r.png,r,2,004,001,2021-04-13_16h34.16.267,searchDisc4,2020.2.10,MacIntel,60,,,space,0.409,2,1,0.678,,0,395,395,205,1,1b,91,3,19,
,,,,,,,,,,,,,,,,,,,,,,,,,,images/exp2b_trial_73_colour3_distractors43_l.png,l,1,004,001,2021-04-13_16h34.16.267,searchDisc4,2020.2.10,MacIntel,60,,,space,0.365,1,1,0.539,,0,396,396,415,1,2b,73,3,43,
,,,,,,,,,,,,,,,,,,,,,,,,,,images/exp1a_trial_53_colour3_distractors19_r.png,r,2,004,001,2021-04-13_16h34.16.267,searchDisc4,2020.2.10,MacIntel,60,,,space,0.431,2,1,0.776,,0,397,397,53,1,1a,53,3,19,
,,,,,,,,,,,,,,,,,,,,,,,,,,images/exp2a_trial_101_colour2_distractors4_l.png,l,1,004,001,2021-04-13_16h34.16.267,searchDisc4,2020.2.10,MacIntel,60,,,space,0.379,1,1,0.585,,0,398,398,329,1,2a,101,2,4,
,,,,,,,,,,,,,,,,,,,,,,,,,,images/exp2a_trial_48_colour2_distractors31_r.png,r,2,004,001,2021-04-13_16h34.16.267,searchDisc4,2020.2.10,MacIntel,60,,,space,0.379,2,1,0.564,,0,399,399,276,1,2a,48,2,31,
,,,,,,,,,,,,,,,,,,,,,,,,,,images/exp1a_trial_40_colour1_distractors9_r.png,r,2,004,001,2021-04-13_16h34.16.267,searchDisc4,2020.2.10,MacIntel,60,,,space,0.43,2,1,0.573,,0,400,400,40,1,1a,40,1,9,
,,,,,,,,,,,,,,,,,,,,,,,,,,images/exp2b_trial_77_colour1_distractors4_r.png,r,2,004,001,2021-04-13_16h34.16.267,searchDisc4,2020.2.10,MacIntel,60,,,space,0.464,2,1,0.624,,0,401,401,419,1,2b,77,1,4,
,,,,,,,,,,,,,,,,,,,,,,,,,,images/exp2b_trial_3_colour1_distractors19_r.png,r,2,004,001,2021-04-13_16h34.16.267,searchDisc4,2020.2.10,MacIntel,60,,,space,0.433,2,1,0.509,,0,402,402,345,1,2b,3,1,19,
,,,,,,,,,,,,,,,,,,,,,,,,,,images/exp2a_trial_37_colour0_distractors0_l.png,l,1,004,001,2021-04-13_16h34.16.267,searchDisc4,2020.2.10,MacIntel,60,,,space,0.44,1,1,0.578,,0,403,403,265,1,2a,37,0,0,
,,,,,,,,,,,,,,,,,,,,,,,,,,images/exp2a_trial_26_colour2_distractors9_l.png,l,1,004,001,2021-04-13_16h34.16.267,searchDisc4,2020.2.10,MacIntel,60,,,space,0.438,1,1,0.547,,0,404,404,254,1,2a,26,2,9,
,,,,,,,,,,,,,,,,,,,,,,,,,,images/exp1a_trial_97_colour1_distractors19_l.png,l,1,004,001,2021-04-13_16h34.16.267,searchDisc4,2020.2.10,MacIntel,60,,,space,0.43,1,1,0.696,,0,405,405,97,1,1a,97,1,19,
,,,,,,,,,,,,,,,,,,,,,,,,,,images/exp2b_trial_24_colour2_distractors1_l.png,l,1,004,001,2021-04-13_16h34.16.267,searchDisc4,2020.2.10,MacIntel,60,,,space,0.465,1,1,0.483,,0,406,406,366,1,2b,24,2,1,
,,,,,,,,,,,,,,,,,,,,,,,,,,images/exp2b_trial_105_colour2_distractors43_l.png,l,1,004,001,2021-04-13_16h34.16.267,searchDisc4,2020.2.10,MacIntel,60,,,space,0.472,1,1,0.732,,0,407,407,447,1,2b,105,2,43,
,,,,,,,,,,,,,,,,,,,,,,,,,,images/exp2a_trial_102_colour2_distractors9_l.png,l,1,004,001,2021-04-13_16h34.16.267,searchDisc4,2020.2.10,MacIntel,60,,,space,0.398,1,1,0.578,,0,408,408,330,1,2a,102,2,9,
,,,,,,,,,,,,,,,,,,,,,,,,,,images/exp1b_trial_69_colour3_distractors4_l.png,l,1,004,001,2021-04-13_16h34.16.267,searchDisc4,2020.2.10,MacIntel,60,,,space,0.398,1,1,0.576,,0,409,409,183,1,1b,69,3,4,
,,,,,,,,,,,,,,,,,,,,,,,,,,images/exp2a_trial_15_colour3_distractors19_r.png,r,2,004,001,2021-04-13_16h34.16.267,searchDisc4,2020.2.10,MacIntel,60,,,space,0.434,2,1,0.674,,0,410,410,243,1,2a,15,3,19,
,,,,,,,,,,,,,,,,,,,,,,,,,,images/exp1b_trial_28_colour2_distractors31_l.png,l,1,004,001,2021-04-13_16h34.16.267,searchDisc4,2020.2.10,MacIntel,60,,,space,0.43,1,1,0.756,,0,411,411,142,1,1b,28,2,31,
,,,,,,,,,,,,,,,,,,,,,,,,,,images/exp2b_trial_87_colour2_distractors43_r.png,r,2,004,001,2021-04-13_16h34.16.267,searchDisc4,2020.2.10,MacIntel,60,,,space,0.504,2,1,0.681,,0,412,412,429,1,2b,87,2,43,
,,,,,,,,,,,,,,,,,,,,,,,,,,images/exp1a_trial_78_colour1_distractors9_r.png,r,2,004,001,2021-04-13_16h34.16.267,searchDisc4,2020.2.10,MacIntel,60,,,space,0.464,2,1,0.514,,0,413,413,78,1,1a,78,1,9,
,,,,,,,,,,,,,,,,,,,,,,,,,,images/exp1b_trial_113_colour0_distractors0_l.png,l,1,004,001,2021-04-13_16h34.16.267,searchDisc4,2020.2.10,MacIntel,60,,,space,0.631,1,1,0.537,,0,414,414,227,1,1b,113,0,0,
,,,,,,,,,,,,,,,,,,,,,,,,,,images/exp2c_trial_84_colour2_distractors9_r.png,r,2,004,001,2021-04-13_16h34.16.267,searchDisc4,2020.2.10,MacIntel,60,,,space,0.431,2,1,0.632,,0,415,415,540,1,2c,84,2,9,
,,,,,,,,,,,,,,,,,,,,,,,,,,images/exp2b_trial_55_colour3_distractors43_r.png,r,2,004,001,2021-04-13_16h34.16.267,searchDisc4,2020.2.10,MacIntel,60,,,space,0.431,2,1,0.544,,0,416,416,397,1,2b,55,3,43,
,,,,,,,,,,,,,,,,,,,,,,,,,,images/exp2c_trial_53_colour3_distractors19_r.png,r,2,004,001,2021-04-13_16h34.16.267,searchDisc4,2020.2.10,MacIntel,60,,,space,0.432,2,1,0.579,,0,417,417,509,1,2c,53,3,19,
,,,,,,,,,,,,,,,,,,,,,,,,,,images/exp1b_trial_32_colour3_distractors9_l.png,l,1,004,001,2021-04-13_16h34.16.267,searchDisc4,2020.2.10,MacIntel,60,,,space,0.397,1,1,0.865,,0,418,418,146,1,1b,32,3,9,
,,,,,,,,,,,,,,,,,,,,,,,,,,images/exp1b_trial_102_colour2_distractors9_l.png,l,1,004,001,2021-04-13_16h34.16.267,searchDisc4,2020.2.10,MacIntel,60,,,space,0.399,1,1,0.607,space,0,419,419,216,1,1b,102,2,9,0.454
,,,,,,,,,,,,,,,,,,,,,,,,,,images/exp2a_trial_31_colour3_distractors4_l.png,l,1,004,001,2021-04-13_16h34.16.267,searchDisc4,2020.2.10,MacIntel,60,,,space,1.636,1,1,0.543,,0,420,420,259,1,2a,31,3,4,
,,,,,,,,,,,,,,,,,,,,,,,,,,images/exp1a_trial_10_colour2_distractors31_r.png,r,2,004,001,2021-04-13_16h34.16.267,searchDisc4,2020.2.10,MacIntel,60,,,space,0.465,2,1,0.535,,0,421,421,10,1,1a,10,2,31,
,,,,,,,,,,,,,,,,,,,,,,,,,,images/exp2c_trial_55_colour3_distractors43_r.png,r,2,004,001,2021-04-13_16h34.16.267,searchDisc4,2020.2.10,MacIntel,60,,,space,0.402,2,1,0.581,,0,422,422,511,1,2c,55,3,43,
,,,,,,,,,,,,,,,,,,,,,,,,,,images/exp2c_trial_6_colour2_distractors1_r.png,r,2,004,001,2021-04-13_16h34.16.267,searchDisc4,2020.2.10,MacIntel,60,,,space,0.378,2,1,0.507,,0,423,423,462,1,2c,6,2,1,
,,,,,,,,,,,,,,,,,,,,,,,,,,images/exp1b_trial_39_colour1_distractors4_r.png,r,2,004,001,2021-04-13_16h34.16.267,searchDisc4,2020.2.10,MacIntel,60,,,space,0.363,2,1,0.544,,0,424,424,153,1,1b,39,1,4,
,,,,,,,,,,,,,,,,,,,,,,,,,,images/exp2c_trial_99_colour1_distractors43_l.png,l,1,004,001,2021-04-13_16h34.16.267,searchDisc4,2020.2.10,MacIntel,60,,,space,0.373,1,1,0.609,,0,425,425,555,1,2c,99,1,43,
,,,,,,,,,,,,,,,,,,,,,,,,,,images/exp2a_trial_108_colour3_distractors9_l.png,l,1,004,001,2021-04-13_16h34.16.267,searchDisc4,2020.2.10,MacIntel,60,,,space,0.41,1,1,0.481,,0,426,426,336,1,2a,108,3,9,
,,,,,,,,,,,,,,,,,,,,,,,,,,images/exp1a_trial_51_colour3_distractors4_r.png,r,2,004,001,2021-04-13_16h34.16.267,searchDisc4,2020.2.10,MacIntel,60,,,space,0.401,2,1,0.521,,0,427,427,51,1,1a,51,3,4,
,,,,,,,,,,,,,,,,,,,,,,,,,,images/exp1b_trial_107_colour3_distractors4_l.png,l,1,004,001,2021-04-13_16h34.16.267,searchDisc4,2020.2.10,MacIntel,60,,,space,0.397,1,1,0.727,,0,428,428,221,1,1b,107,3,4,
,,,,,,,,,,,,,,,,,,,,,,,,,,images/exp2b_trial_35_colour3_distractors43_l.png,l,1,004,001,2021-04-13_16h34.16.267,searchDisc4,2020.2.10,MacIntel,60,,,space,0.399,1,1,0.582,,0,429,429,377,1,2b,35,3,43,
,,,,,,,,,,,,,,,,,,,,,,,,,,images/exp1a_trial_43_colour1_distractors43_r.png,r,2,004,001,2021-04-13_16h34.16.267,searchDisc4,2020.2.10,MacIntel,60,,,space,0.334,2,1,0.75,,0,430,430,43,1,1a,43,1,43,
,,,,,,,,,,,,,,,,,,,,,,,,,,images/exp1a_trial_1_colour1_distractors4_r.png,r,2,004,001,2021-04-13_16h34.16.267,searchDisc4,2020.2.10,MacIntel,60,,,space,0.404,2,1,0.668,,0,431,431,1,1,1a,1,1,4,
,,,,,,,,,,,,,,,,,,,,,,,,,,images/exp2c_trial_64_colour2_distractors9_l.png,l,1,004,001,2021-04-13_16h34.16.267,searchDisc4,2020.2.10,MacIntel,60,,,space,0.397,1,1,0.631,,0,432,432,520,1,2c,64,2,9,
,,,,,,,,,,,,,,,,,,,,,,,,,,images/exp2c_trial_32_colour3_distractors9_l.png,l,1,004,001,2021-04-13_16h34.16.267,searchDisc4,2020.2.10,MacIntel,60,,,space,0.431,1,1,0.611,,0,433,433,488,1,2c,32,3,9,
,,,,,,,,,,,,,,,,,,,,,,,,,,images/exp1b_trial_17_colour3_distractors43_r.png,r,2,004,001,2021-04-13_16h34.16.267,searchDisc4,2020.2.10,MacIntel,60,,,space,0.5,2,1,1.152,,0,434,434,131,1,1b,17,3,43,
,,,,,,,,,,,,,,,,,,,,,,,,,,images/exp2b_trial_49_colour2_distractors43_r.png,r,2,004,001,2021-04-13_16h34.16.267,searchDisc4,2020.2.10,MacIntel,60,,,space,0.397,2,1,0.542,,0,435,435,391,1,2b,49,2,43,
,,,,,,,,,,,,,,,,,,,,,,,,,,images/exp2a_trial_93_colour3_distractors43_r.png,r,2,004,001,2021-04-13_16h34.16.267,searchDisc4,2020.2.10,MacIntel,60,,,space,0.832,2,1,0.559,,0,436,436,321,1,2a,93,3,43,
,,,,,,,,,,,,,,,,,,,,,,,,,,images/exp1b_trial_60_colour1_distractors31_l.png,l,1,004,001,2021-04-13_16h34.16.267,searchDisc4,2020.2.10,MacIntel,60,,,space,0.546,1,1,0.678,,0,437,437,174,1,1b,60,1,31,
,,,,,,,,,,,,,,,,,,,,,,,,,,images/exp2c_trial_39_colour1_distractors4_r.png,r,2,004,001,2021-04-13_16h34.16.267,searchDisc4,2020.2.10,MacIntel,60,,,space,0.502,2,1,0.659,,0,438,438,495,1,2c,39,1,4,
,,,,,,,,,,,,,,,,,,,,,,,,,,images/exp1a_trial_67_colour2_distractors43_l.png,l,1,004,001,2021-04-13_16h34.16.267,searchDisc4,2020.2.10,MacIntel,60,,,space,0.499,1,1,0.651,,0,439,439,67,1,1a,67,2,43,
,,,,,,,,,,,,,,,,,,,,,,,,,,images/exp2b_trial_74_colour0_distractors0_r.png,r,2,004,001,2021-04-13_16h34.16.267,searchDisc4,2020.2.10,MacIntel,60,,,space,0.497,2,1,0.798,,0,440,440,416,1,2b,74,0,0,
,,,,,,,,,,,,,,,,,,,,,,,,,,images/exp1a_trial_83_colour2_distractors4_r.png,r,2,004,001,2021-04-13_16h34.16.267,searchDisc4,2020.2.10,MacIntel,60,,,space,0.536,2,1,0.501,,0,441,441,83,1,1a,83,2,4,
,,,,,,,,,,,,,,,,,,,,,,,,,,images/exp2b_trial_21_colour1_distractors19_l.png,l,1,004,001,2021-04-13_16h34.16.267,searchDisc4,2020.2.10,MacIntel,60,,,space,0.634,1,1,0.644,,0,442,442,363,1,2b,21,1,19,
,,,,,,,,,,,,,,,,,,,,,,,,,,images/exp2b_trial_45_colour2_distractors4_r.png,r,2,004,001,2021-04-13_16h34.16.267,searchDisc4,2020.2.10,MacIntel,60,,,space,0.644,2,1,0.544,,0,443,443,387,1,2b,45,2,4,
,,,,,,,,,,,,,,,,,,,,,,,,,,images/exp2c_trial_48_colour2_distractors31_r.png,r,2,004,001,2021-04-13_16h34.16.267,searchDisc4,2020.2.10,MacIntel,60,,,space,0.541,2,1,0.575,,0,444,444,504,1,2c,48,2,31,
,,,,,,,,,,,,,,,,,,,,,,,,,,images/exp1b_trial_103_colour2_distractors19_l.png,l,1,004,001,2021-04-13_16h34.16.267,searchDisc4,2020.2.10,MacIntel,60,,,space,0.868,1,1,0.826,,0,445,445,217,1,1b,103,2,19,
,,,,,,,,,,,,,,,,,,,,,,,,,,images/exp1b_trial_86_colour2_distractors31_r.png,r,2,004,001,2021-04-13_16h34.16.267,searchDisc4,2020.2.10,MacIntel,60,,,space,0.531,2,1,1.221,,0,446,446,200,1,1b,86,2,31,
,,,,,,,,,,,,,,,,,,,,,,,,,,images/exp1a_trial_12_colour3_distractors1_r.png,r,2,004,001,2021-04-13_16h34.16.267,searchDisc4,2020.2.10,MacIntel,60,,,space,0.479,2,1,0.81,,0,447,447,12,1,1a,12,3,1,
,,,,,,,,,,,,,,,,,,,,,,,,,,images/exp1a_trial_58_colour1_distractors9_l.png,l,1,004,001,2021-04-13_16h34.16.267,searchDisc4,2020.2.10,MacIntel,60,,,space,0.432,1,1,0.577,,0,448,448,58,1,1a,58,1,9,
,,,,,,,,,,,,,,,,,,,,,,,,,,images/exp2b_trial_68_colour3_distractors1_l.png,l,1,004,001,2021-04-13_16h34.16.267,searchDisc4,2020.2.10,MacIntel,60,,,space,0.502,1,1,0.602,,0,449,449,410,1,2b,68,3,1,
,,,,,,,,,,,,,,,,,,,,,,,,,,images/exp2b_trial_79_colour1_distractors19_r.png,r,2,004,001,2021-04-13_16h34.16.267,searchDisc4,2020.2.10,MacIntel,60,,,space,0.5,2,1,0.507,,0,450,450,421,1,2b,79,1,19,
,,,,,,,,,,,,,,,,,,,,,,,,,,images/exp1b_trial_52_colour3_distractors9_r.png,r,2,004,001,2021-04-13_16h34.16.267,searchDisc4,2020.2.10,MacIntel,60,,,space,0.571,2,1,0.542,,0,451,451,166,1,1b,52,3,9,
,,,,,,,,,,,,,,,,,,,,,,,,,,images/exp1a_trial_112_colour0_distractors0_r.png,r,2,004,001,2021-04-13_16h34.16.267,searchDisc4,2020.2.10,MacIntel,60,,,space,0.497,2,1,0.744,,0,452,452,112,1,1a,112,0,0,
,,,,,,,,,,,,,,,,,,,,,,,,,,images/exp2a_trial_39_colour1_distractors4_r.png,r,2,004,001,2021-04-13_16h34.16.267,searchDisc4,2020.2.10,MacIntel,60,,,space,0.434,2,1,0.51,,0,453,453,267,1,2a,39,1,4,
,,,,,,,,,,,,,,,,,,,,,,,,,,images/exp2c_trial_35_colour3_distractors43_l.png,l,1,004,001,2021-04-13_16h34.16.267,searchDisc4,2020.2.10,MacIntel,60,,,space,0.464,1,1,0.581,,0,454,454,491,1,2c,35,3,43,
,,,,,,,,,,,,,,,,,,,,,,,,,,images/exp2a_trial_35_colour3_distractors43_l.png,l,1,004,001,2021-04-13_16h34.16.267,searchDisc4,2020.2.10,MacIntel,60,,,space,0.5,1,1,0.592,,0,455,455,263,1,2a,35,3,43,
,,,,,,,,,,,,,,,,,,,,,,,,,,images/exp2c_trial_95_colour1_distractors4_l.png,l,1,004,001,2021-04-13_16h34.16.267,searchDisc4,2020.2.10,MacIntel,60,,,space,0.404,1,1,0.579,,0,456,456,551,1,2c,95,1,4,
,,,,,,,,,,,,,,,,,,,,,,,,,,images/exp1a_trial_90_colour3_distractors9_r.png,r,2,004,001,2021-04-13_16h34.16.267,searchDisc4,2020.2.10,MacIntel,60,,,space,0.498,1,0,0.507,,0,457,457,90,1,1a,90,3,9,
,,,,,,,,,,,,,,,,,,,,,,,,,,images/exp2c_trial_85_colour2_distractors19_r.png,r,2,004,001,2021-04-13_16h34.16.267,searchDisc4,2020.2.10,MacIntel,60,,,space,0.546,2,1,0.711,,0,458,458,541,1,2c,85,2,19,
,,,,,,,,,,,,,,,,,,,,,,,,,,images/exp2c_trial_22_colour1_distractors31_l.png,l,1,004,001,2021-04-13_16h34.16.267,searchDisc4,2020.2.10,MacIntel,60,,,space,0.475,1,1,0.652,,0,459,459,478,1,2c,22,1,31,
,,,,,,,,,,,,,,,,,,,,,,,,,,images/exp2c_trial_26_colour2_distractors9_l.png,l,1,004,001,2021-04-13_16h34.16.267,searchDisc4,2020.2.10,MacIntel,60,,,space,0.469,1,1,0.616,,0,460,460,482,1,2c,26,2,9,
,,,,,,,,,,,,,,,,,,,,,,,,,,images/exp1b_trial_45_colour2_distractors4_r.png,r,2,004,001,2021-04-13_16h34.16.267,searchDisc4,2020.2.10,MacIntel,60,,,space,0.445,2,1,0.558,,0,461,461,159,1,1b,45,2,4,
,,,,,,,,,,,,,,,,,,,,,,,,,,images/exp2c_trial_54_colour3_distractors31_r.png,r,2,004,001,2021-04-13_16h34.16.267,searchDisc4,2020.2.10,MacIntel,60,,,space,0.466,2,1,0.589,,0,462,462,510,1,2c,54,3,31,
,,,,,,,,,,,,,,,,,,,,,,,,,,images/exp1a_trial_20_colour1_distractors9_l.png,l,1,004,001,2021-04-13_16h34.16.267,searchDisc4,2020.2.10,MacIntel,60,,,space,0.444,1,1,0.55,,0,463,463,20,1,1a,20,1,9,
,,,,,,,,,,,,,,,,,,,,,,,,,,images/exp2b_trial_42_colour1_distractors31_r.png,r,2,004,001,2021-04-13_16h34.16.267,searchDisc4,2020.2.10,MacIntel,60,,,space,0.411,2,1,0.676,,0,464,464,384,1,2b,42,1,31,
,,,,,,,,,,,,,,,,,,,,,,,,,,images/exp1b_trial_38_colour1_distractors1_r.png,r,2,004,001,2021-04-13_16h34.16.267,searchDisc4,2020.2.10,MacIntel,60,,,space,0.47,2,1,0.609,,0,465,465,152,1,1b,38,1,1,
,,,,,,,,,,,,,,,,,,,,,,,,,,images/exp2a_trial_25_colour2_distractors4_l.png,l,1,004,001,2021-04-13_16h34.16.267,searchDisc4,2020.2.10,MacIntel,60,,,space,0.466,1,1,0.536,,0,466,466,253,1,2a,25,2,4,
,,,,,,,,,,,,,,,,,,,,,,,,,,images/exp2a_trial_19_colour1_distractors4_l.png,l,1,004,001,2021-04-13_16h34.16.267,searchDisc4,2020.2.10,MacIntel,60,,,space,0.467,1,1,0.526,,0,467,467,247,1,2a,19,1,4,
,,,,,,,,,,,,,,,,,,,,,,,,,,images/exp2b_trial_37_colour0_distractors0_l.png,l,1,004,001,2021-04-13_16h34.16.267,searchDisc4,2020.2.10,MacIntel,60,,,space,0.433,1,1,0.583,,0,468,468,379,1,2b,37,0,0,
,,,,,,,,,,,,,,,,,,,,,,,,,,images/exp2a_trial_90_colour3_distractors9_r.png,r,2,004,001,2021-04-13_16h34.16.267,searchDisc4,2020.2.10,MacIntel,60,,,space,0.464,2,1,0.581,,0,469,469,318,1,2a,90,3,9,
,,,,,,,,,,,,,,,,,,,,,,,,,,images/exp2a_trial_23_colour1_distractors43_l.png,l,1,004,001,2021-04-13_16h34.16.267,searchDisc4,2020.2.10,MacIntel,60,,,space,0.464,1,1,0.753,,0,470,470,251,1,2a,23,1,43,
,,,,,,,,,,,,,,,,,,,,,,,,,,images/exp2c_trial_44_colour2_distractors1_r.png,r,2,004,001,2021-04-13_16h34.16.267,searchDisc4,2020.2.10,MacIntel,60,,,space,0.599,2,1,0.544,,0,471,471,500,1,2c,44,2,1,
,,,,,,,,,,,,,,,,,,,,,,,,,,images/exp1b_trial_73_colour3_distractors43_l.png,l,1,004,001,2021-04-13_16h34.16.267,searchDisc4,2020.2.10,MacIntel,60,,,space,0.329,1,1,0.936,,0,472,472,187,1,1b,73,3,43,
,,,,,,,,,,,,,,,,,,,,,,,,,,images/exp2a_trial_32_colour3_distractors9_l.png,l,1,004,001,2021-04-13_16h34.16.267,searchDisc4,2020.2.10,MacIntel,60,,,space,0.398,1,1,0.672,,0,473,473,260,1,2a,32,3,9,
,,,,,,,,,,,,,,,,,,,,,,,,,,images/exp1b_trial_70_colour3_distractors9_l.png,l,1,004,001,2021-04-13_16h34.16.267,searchDisc4,2020.2.10,MacIntel,60,,,space,0.398,1,1,0.742,,0,474,474,184,1,1b,70,3,9,
,,,,,,,,,,,,,,,,,,,,,,,,,,images/exp1b_trial_112_colour0_distractors0_r.png,r,2,004,001,2021-04-13_16h34.16.267,searchDisc4,2020.2.10,MacIntel,60,,,space,0.339,2,1,0.559,,0,475,475,226,1,1b,112,0,0,
,,,,,,,,,,,,,,,,,,,,,,,,,,images/exp1b_trial_68_colour3_distractors1_l.png,l,1,004,001,2021-04-13_16h34.16.267,searchDisc4,2020.2.10,MacIntel,60,,,space,0.331,1,1,0.725,,0,476,476,182,1,1b,68,3,1,
,,,,,,,,,,,,,,,,,,,,,,,,,,images/exp1a_trial_69_colour3_distractors4_l.png,l,1,004,001,2021-04-13_16h34.16.267,searchDisc4,2020.2.10,MacIntel,60,,,space,0.331,1,1,0.551,,0,477,477,69,1,1a,69,3,4,
,,,,,,,,,,,,,,,,,,,,,,,,,,images/exp1a_trial_27_colour2_distractors19_l.png,l,1,004,001,2021-04-13_16h34.16.267,searchDisc4,2020.2.10,MacIntel,60,,,space,0.41,1,1,0.742,,0,478,478,27,1,1a,27,2,19,
,,,,,,,,,,,,,,,,,,,,,,,,,,images/exp1b_trial_87_colour2_distractors43_r.png,r,2,004,001,2021-04-13_16h34.16.267,searchDisc4,2020.2.10,MacIntel,60,,,space,0.37,2,1,0.662,,0,479,479,201,1,1b,87,2,43,
,,,,,,,,,,,,,,,,,,,,,,,,,,images/exp1a_trial_87_colour2_distractors43_r.png,r,2,004,001,2021-04-13_16h34.16.267,searchDisc4,2020.2.10,MacIntel,60,,,space,0.398,2,1,0.711,,0,480,480,87,1,1a,87,2,43,
,,,,,,,,,,,,,,,,,,,,,,,,,,images/exp1b_trial_53_colour3_distractors19_r.png,r,2,004,001,2021-04-13_16h34.16.267,searchDisc4,2020.2.10,MacIntel,60,,,space,0.376,2,1,0.673,,0,481,481,167,1,1b,53,3,19,
