X Scale,Y Scale,key_resp_10.keys,key_resp_10.rt,key_resp_11.keys,key_resp_11.rt,key_resp_12.keys,key_resp_12.rt,key_resp_13.keys,key_resp_13.rt,key_resp_5.keys,key_resp_5.rt,key_resp_8.keys,key_resp_8.rt,key_resp_6.keys,key_resp_6.rt,key_resp_7.keys,key_resp_7.rt,key_resp_4.keys,key_resp_4.corr,key_resp_4.rt,trials_2.thisRepN,trials_2.thisTrialN,trials_2.thisN,trials_2.thisIndex,trials_2.ran,ImageFile,targ_side,correctAnswer,participant,session,date,expName,psychopyVersion,OS,frameRate,key_resp_3.keys,key_resp_3.rt,key_resp_9.keys,key_resp_9.rt,key_resp_2.keys,key_resp_2.corr,key_resp_2.rt,key_resp.keys,trials.thisRepN,trials.thisTrialN,trials.thisN,trials.thisIndex,trials.ran,exp,trial,colour,distNo,key_resp.rt
23.4,23.9,space,5.86059,space,1.321845,space,1.13735,space,0.59765,space,18.699465,space,19.315365,space,15.121375,space,8.33599,2,1,1.47561,0,0,0,7,1,Practice arrays/exp1a_trial_13_colour3_distractors4_r.png,r,2,005,001,2021-04-13_17h48.46.804,searchDisc4,2020.2.10,Win32,60,,,,,,,,,,,,,,,,,,
,,,,,,,,,,,,,,,,space,1.76343,1,1,1.07961,0,1,1,14,1,Practice arrays/exp1a_trial_29_colour2_distractors43_l.png,l,1,005,001,2021-04-13_17h48.46.804,searchDisc4,2020.2.10,Win32,60,,,,,,,,,,,,,,,,,,
,,,,,,,,,,,,,,,,space,1.520525,2,1,0.78931,0,2,2,8,1,Practice arrays/exp1a_trial_16_colour3_distractors31_r.png,r,2,005,001,2021-04-13_17h48.46.804,searchDisc4,2020.2.10,Win32,60,,,,,,,,,,,,,,,,,,
,,,,,,,,,,,,,,,,space,0.53424,2,1,0.502195,0,3,3,6,1,Practice arrays/exp1a_trial_12_colour3_distractors1_r.png,r,2,005,001,2021-04-13_17h48.46.804,searchDisc4,2020.2.10,Win32,60,,,,,,,,,,,,,,,,,,
,,,,,,,,,,,,,,,,space,0.310525,1,1,0.882855,0,4,4,12,1,Practice arrays/exp1a_trial_25_colour2_distractors4_l.png,l,1,005,001,2021-04-13_17h48.46.804,searchDisc4,2020.2.10,Win32,60,,,,,,,,,,,,,,,,,,
,,,,,,,,,,,,,,,,space,0.500535,1,1,0.656355,0,5,5,15,1,Practice arrays/exp1a_trial_32_colour3_distractors9_l.png,l,1,005,001,2021-04-13_17h48.46.804,searchDisc4,2020.2.10,Win32,60,,,,,,,,,,,,,,,,,,
,,,,,,,,,,,,,,,,space,0.35705,1,1,0.65187,0,6,6,10,1,Practice arrays/exp1a_trial_20_colour1_distractors9_l.png,l,1,005,001,2021-04-13_17h48.46.804,searchDisc4,2020.2.10,Win32,60,,,,,,,,,,,,,,,,,,
,,,,,,,,,,,,,,,,space,0.412095,2,1,0.515905,0,7,7,18,1,Practice arrays/exp1a_trial_36_colour0_distractors0_r.png,r,2,005,001,2021-04-13_17h48.46.804,searchDisc4,2020.2.10,Win32,60,,,,,,,,,,,,,,,,,,
,,,,,,,,,,,,,,,,space,0.490825,1,1,0.66543,0,8,8,13,1,Practice arrays/exp1a_trial_28_colour2_distractors31_l.png,l,1,005,001,2021-04-13_17h48.46.804,searchDisc4,2020.2.10,Win32,60,,,,,,,,,,,,,,,,,,
,,,,,,,,,,,,,,,,space,0.25206,2,1,0.51426,0,9,9,4,1,Practice arrays/exp1a_trial_8_colour2_distractors9_r.png,r,2,005,001,2021-04-13_17h48.46.804,searchDisc4,2020.2.10,Win32,60,,,,,,,,,,,,,,,,,,
,,,,,,,,,,,,,,,,space,0.471495,1,1,0.57447,0,10,10,19,1,Practice arrays/exp1a_trial_37_colour0_distractors0_l.png,l,1,005,001,2021-04-13_17h48.46.804,searchDisc4,2020.2.10,Win32,60,,,,,,,,,,,,,,,,,,
,,,,,,,,,,,,,,,,space,0.355945,2,1,0.9319,0,11,11,3,1,Practice arrays/exp1a_trial_7_colour2_distractors4_r.png,r,2,005,001,2021-04-13_17h48.46.804,searchDisc4,2020.2.10,Win32,60,,,,,,,,,,,,,,,,,,
,,,,,,,,,,,,,,,,space,0.515185,2,1,0.834635,0,12,12,5,1,Practice arrays/exp1a_trial_10_colour2_distractors31_r.png,r,2,005,001,2021-04-13_17h48.46.804,searchDisc4,2020.2.10,Win32,60,,,,,,,,,,,,,,,,,,
,,,,,,,,,,,,,,,,space,0.434735,2,1,0.703065,0,13,13,2,1,Practice arrays/exp1a_trial_5_colour1_distractors43_r.png,r,2,005,001,2021-04-13_17h48.46.804,searchDisc4,2020.2.10,Win32,60,,,,,,,,,,,,,,,,,,
,,,,,,,,,,,,,,,,space,0.26457,1,1,0.65143,0,14,14,9,1,Practice arrays/exp1a_trial_19_colour1_distractors4_l.png,l,1,005,001,2021-04-13_17h48.46.804,searchDisc4,2020.2.10,Win32,60,,,,,,,,,,,,,,,,,,
,,,,,,,,,,,,,,,,space,0.300175,1,1,0.752885,0,15,15,17,1,Practice arrays/exp1a_trial_35_colour3_distractors43_l.png,l,1,005,001,2021-04-13_17h48.46.804,searchDisc4,2020.2.10,Win32,60,,,,,,,,,,,,,,,,,,
,,,,,,,,,,,,,,,,space,0.38067,1,1,0.50191,0,16,16,11,1,Practice arrays/exp1a_trial_21_colour1_distractors19_l.png,l,1,005,001,2021-04-13_17h48.46.804,searchDisc4,2020.2.10,Win32,60,,,,,,,,,,,,,,,,,,
,,,,,,,,,,,,,,,,space,0.368985,2,1,0.52214,0,17,17,0,1,Practice arrays/exp1a_trial_0_colour1_distractors1_r.png,r,2,005,001,2021-04-13_17h48.46.804,searchDisc4,2020.2.10,Win32,60,,,,,,,,,,,,,,,,,,
,,,,,,,,,,,,,,,,space,0.233905,2,1,0.432635,0,18,18,1,1,Practice arrays/exp1a_trial_3_colour1_distractors19_r.png,r,2,005,001,2021-04-13_17h48.46.804,searchDisc4,2020.2.10,Win32,60,,,,,,,,,,,,,,,,,,
,,,,,,,,,,,,,,,,space,0.308725,1,1,0.500695,0,19,19,16,1,Practice arrays/exp1a_trial_33_colour3_distractors19_l.png,l,1,005,001,2021-04-13_17h48.46.804,searchDisc4,2020.2.10,Win32,60,,,,,,,,,,,,,,,,,,
,,,,,,,,,,,,,,,,,,,,,,,,,,images/exp2c_trial_90_colour3_distractors9_r.png,r,2,005,001,2021-04-13_17h48.46.804,searchDisc4,2020.2.10,Win32,60,space,4.376035,space,2.18799,2,1,0.62608,,0,0,0,546,1,2c,90,3,9,
,,,,,,,,,,,,,,,,,,,,,,,,,,images/exp1a_trial_28_colour2_distractors31_l.png,l,1,005,001,2021-04-13_17h48.46.804,searchDisc4,2020.2.10,Win32,60,,,space,1.64882,1,1,0.715675,,0,1,1,28,1,1a,28,2,31,
,,,,,,,,,,,,,,,,,,,,,,,,,,images/exp1b_trial_29_colour2_distractors43_l.png,l,1,005,001,2021-04-13_17h48.46.804,searchDisc4,2020.2.10,Win32,60,,,space,0.779815,1,1,1.586335,,0,2,2,143,1,1b,29,2,43,
,,,,,,,,,,,,,,,,,,,,,,,,,,images/exp2c_trial_1_colour1_distractors4_r.png,r,2,005,001,2021-04-13_17h48.46.804,searchDisc4,2020.2.10,Win32,60,,,space,0.784965,2,1,0.56362,,0,3,3,457,1,2c,1,1,4,
,,,,,,,,,,,,,,,,,,,,,,,,,,images/exp2b_trial_20_colour1_distractors9_l.png,l,1,005,001,2021-04-13_17h48.46.804,searchDisc4,2020.2.10,Win32,60,,,space,0.606785,1,1,0.48931,,0,4,4,362,1,2b,20,1,9,
,,,,,,,,,,,,,,,,,,,,,,,,,,images/exp2b_trial_65_colour2_distractors19_l.png,l,1,005,001,2021-04-13_17h48.46.804,searchDisc4,2020.2.10,Win32,60,,,space,0.48131,1,1,0.669665,,0,5,5,407,1,2b,65,2,19,
,,,,,,,,,,,,,,,,,,,,,,,,,,images/exp2b_trial_29_colour2_distractors43_l.png,l,1,005,001,2021-04-13_17h48.46.804,searchDisc4,2020.2.10,Win32,60,,,space,0.379945,1,1,0.43393,,0,6,6,371,1,2b,29,2,43,
,,,,,,,,,,,,,,,,,,,,,,,,,,images/exp2c_trial_23_colour1_distractors43_l.png,l,1,005,001,2021-04-13_17h48.46.804,searchDisc4,2020.2.10,Win32,60,,,space,0.36077,1,1,0.601885,,0,7,7,479,1,2c,23,1,43,
,,,,,,,,,,,,,,,,,,,,,,,,,,images/exp1a_trial_14_colour3_distractors9_r.png,r,2,005,001,2021-04-13_17h48.46.804,searchDisc4,2020.2.10,Win32,60,,,space,0.32773,2,1,0.619265,,0,8,8,14,1,1a,14,3,9,
,,,,,,,,,,,,,,,,,,,,,,,,,,images/exp1a_trial_4_colour1_distractors31_r.png,r,2,005,001,2021-04-13_17h48.46.804,searchDisc4,2020.2.10,Win32,60,,,space,0.34696,2,1,0.597685,,0,9,9,4,1,1a,4,1,31,
,,,,,,,,,,,,,,,,,,,,,,,,,,images/exp1a_trial_30_colour3_distractors1_l.png,l,1,005,001,2021-04-13_17h48.46.804,searchDisc4,2020.2.10,Win32,60,,,space,0.317605,1,1,0.49064,,0,10,10,30,1,1a,30,3,1,
,,,,,,,,,,,,,,,,,,,,,,,,,,images/exp2c_trial_41_colour1_distractors19_r.png,r,2,005,001,2021-04-13_17h48.46.804,searchDisc4,2020.2.10,Win32,60,,,space,0.327255,2,1,0.49187,,0,11,11,497,1,2c,41,1,19,
,,,,,,,,,,,,,,,,,,,,,,,,,,images/exp2c_trial_52_colour3_distractors9_r.png,r,2,005,001,2021-04-13_17h48.46.804,searchDisc4,2020.2.10,Win32,60,,,space,0.380465,2,1,0.497785,,0,12,12,508,1,2c,52,3,9,
,,,,,,,,,,,,,,,,,,,,,,,,,,images/exp1a_trial_45_colour2_distractors4_r.png,r,2,005,001,2021-04-13_17h48.46.804,searchDisc4,2020.2.10,Win32,60,,,space,0.257585,2,1,0.68571,,0,13,13,45,1,1a,45,2,4,
,,,,,,,,,,,,,,,,,,,,,,,,,,images/exp1a_trial_11_colour2_distractors43_r.png,r,2,005,001,2021-04-13_17h48.46.804,searchDisc4,2020.2.10,Win32,60,,,space,0.182325,2,1,0.594115,,0,14,14,11,1,1a,11,2,43,
,,,,,,,,,,,,,,,,,,,,,,,,,,images/exp2c_trial_50_colour3_distractors1_r.png,r,2,005,001,2021-04-13_17h48.46.804,searchDisc4,2020.2.10,Win32,60,,,space,0.190225,2,1,0.51999,,0,15,15,506,1,2c,50,3,1,
,,,,,,,,,,,,,,,,,,,,,,,,,,images/exp2a_trial_28_colour2_distractors31_l.png,l,1,005,001,2021-04-13_17h48.46.804,searchDisc4,2020.2.10,Win32,60,,,space,0.21604,1,1,0.552575,,0,16,16,256,1,2a,28,2,31,
,,,,,,,,,,,,,,,,,,,,,,,,,,images/exp2c_trial_105_colour2_distractors43_l.png,l,1,005,001,2021-04-13_17h48.46.804,searchDisc4,2020.2.10,Win32,60,,,space,0.20349,1,1,0.764585,,0,17,17,561,1,2c,105,2,43,
,,,,,,,,,,,,,,,,,,,,,,,,,,images/exp2c_trial_77_colour1_distractors4_r.png,r,2,005,001,2021-04-13_17h48.46.804,searchDisc4,2020.2.10,Win32,60,,,space,0.21595,2,1,0.503685,,0,18,18,533,1,2c,77,1,4,
,,,,,,,,,,,,,,,,,,,,,,,,,,images/exp1b_trial_76_colour1_distractors1_r.png,r,2,005,001,2021-04-13_17h48.46.804,searchDisc4,2020.2.10,Win32,60,,,space,0.267435,2,1,1.257635,,0,19,19,190,1,1b,76,1,1,
,,,,,,,,,,,,,,,,,,,,,,,,,,images/exp1a_trial_61_colour1_distractors43_l.png,l,1,005,001,2021-04-13_17h48.46.804,searchDisc4,2020.2.10,Win32,60,,,space,0.396305,1,1,0.51358,,0,20,20,61,1,1a,61,1,43,
,,,,,,,,,,,,,,,,,,,,,,,,,,images/exp2c_trial_61_colour1_distractors43_l.png,l,1,005,001,2021-04-13_17h48.46.804,searchDisc4,2020.2.10,Win32,60,,,space,0.4649,1,1,0.52273,,0,21,21,517,1,2c,61,1,43,
,,,,,,,,,,,,,,,,,,,,,,,,,,images/exp2c_trial_104_colour2_distractors31_l.png,l,1,005,001,2021-04-13_17h48.46.804,searchDisc4,2020.2.10,Win32,60,,,space,0.25354,1,1,0.577005,,0,22,22,560,1,2c,104,2,31,
,,,,,,,,,,,,,,,,,,,,,,,,,,images/exp2b_trial_8_colour2_distractors9_r.png,r,2,005,001,2021-04-13_17h48.46.804,searchDisc4,2020.2.10,Win32,60,,,space,0.24414,2,1,0.858035,,0,23,23,350,1,2b,8,2,9,
,,,,,,,,,,,,,,,,,,,,,,,,,,images/exp2b_trial_83_colour2_distractors4_r.png,r,2,005,001,2021-04-13_17h48.46.804,searchDisc4,2020.2.10,Win32,60,,,space,0.21823,2,1,0.665805,,0,24,24,425,1,2b,83,2,4,
,,,,,,,,,,,,,,,,,,,,,,,,,,images/exp2c_trial_89_colour3_distractors4_r.png,r,2,005,001,2021-04-13_17h48.46.804,searchDisc4,2020.2.10,Win32,60,,,space,0.25843,2,1,0.53417,,0,25,25,545,1,2c,89,3,4,
,,,,,,,,,,,,,,,,,,,,,,,,,,images/exp2a_trial_6_colour2_distractors1_r.png,r,2,005,001,2021-04-13_17h48.46.804,searchDisc4,2020.2.10,Win32,60,,,space,0.253625,2,1,0.423015,,0,26,26,234,1,2a,6,2,1,
,,,,,,,,,,,,,,,,,,,,,,,,,,images/exp2c_trial_97_colour1_distractors19_l.png,l,1,005,001,2021-04-13_17h48.46.804,searchDisc4,2020.2.10,Win32,60,,,space,0.37798,1,1,0.704665,,0,27,27,553,1,2c,97,1,19,
,,,,,,,,,,,,,,,,,,,,,,,,,,images/exp2c_trial_109_colour3_distractors19_l.png,l,1,005,001,2021-04-13_17h48.46.804,searchDisc4,2020.2.10,Win32,60,,,space,0.3799,1,1,0.51038,,0,28,28,565,1,2c,109,3,19,
,,,,,,,,,,,,,,,,,,,,,,,,,,images/exp2b_trial_79_colour1_distractors19_r.png,r,2,005,001,2021-04-13_17h48.46.804,searchDisc4,2020.2.10,Win32,60,,,space,0.34764,2,1,0.493625,,0,29,29,421,1,2b,79,1,19,
,,,,,,,,,,,,,,,,,,,,,,,,,,images/exp2b_trial_19_colour1_distractors4_l.png,l,1,005,001,2021-04-13_17h48.46.804,searchDisc4,2020.2.10,Win32,60,,,space,0.251545,1,1,0.45829,,0,30,30,361,1,2b,19,1,4,
,,,,,,,,,,,,,,,,,,,,,,,,,,images/exp2c_trial_38_colour1_distractors1_r.png,r,2,005,001,2021-04-13_17h48.46.804,searchDisc4,2020.2.10,Win32,60,,,space,0.219915,2,1,0.46078,,0,31,31,494,1,2c,38,1,1,
,,,,,,,,,,,,,,,,,,,,,,,,,,images/exp2b_trial_64_colour2_distractors9_l.png,l,1,005,001,2021-04-13_17h48.46.804,searchDisc4,2020.2.10,Win32,60,,,space,0.22967,1,1,0.495405,,0,32,32,406,1,2b,64,2,9,
,,,,,,,,,,,,,,,,,,,,,,,,,,images/exp2b_trial_95_colour1_distractors4_l.png,l,1,005,001,2021-04-13_17h48.46.804,searchDisc4,2020.2.10,Win32,60,,,space,0.24653,1,1,0.59857,,0,33,33,437,1,2b,95,1,4,
,,,,,,,,,,,,,,,,,,,,,,,,,,images/exp2b_trial_70_colour3_distractors9_l.png,l,1,005,001,2021-04-13_17h48.46.804,searchDisc4,2020.2.10,Win32,60,,,space,0.24768,1,1,0.95342,,0,34,34,412,1,2b,70,3,9,
,,,,,,,,,,,,,,,,,,,,,,,,,,images/exp2b_trial_47_colour2_distractors19_r.png,r,2,005,001,2021-04-13_17h48.46.804,searchDisc4,2020.2.10,Win32,60,,,space,0.35559,2,1,0.559225,,0,35,35,389,1,2b,47,2,19,
,,,,,,,,,,,,,,,,,,,,,,,,,,images/exp2c_trial_93_colour3_distractors43_r.png,r,2,005,001,2021-04-13_17h48.46.804,searchDisc4,2020.2.10,Win32,60,,,space,0.25817,2,1,0.442545,,0,36,36,549,1,2c,93,3,43,
,,,,,,,,,,,,,,,,,,,,,,,,,,images/exp1b_trial_82_colour2_distractors1_r.png,r,2,005,001,2021-04-13_17h48.46.804,searchDisc4,2020.2.10,Win32,60,,,space,0.320025,2,1,0.594025,,0,37,37,196,1,1b,82,2,1,
,,,,,,,,,,,,,,,,,,,,,,,,,,images/exp2a_trial_105_colour2_distractors43_l.png,l,1,005,001,2021-04-13_17h48.46.804,searchDisc4,2020.2.10,Win32,60,,,space,0.312175,1,1,0.60234,,0,38,38,333,1,2a,105,2,43,
,,,,,,,,,,,,,,,,,,,,,,,,,,images/exp2c_trial_15_colour3_distractors19_r.png,r,2,005,001,2021-04-13_17h48.46.804,searchDisc4,2020.2.10,Win32,60,,,space,0.230435,2,1,0.5687,,0,39,39,471,1,2c,15,3,19,
,,,,,,,,,,,,,,,,,,,,,,,,,,images/exp2c_trial_63_colour2_distractors4_l.png,l,1,005,001,2021-04-13_17h48.46.804,searchDisc4,2020.2.10,Win32,60,,,space,0.23606,1,1,0.64856,,0,40,40,519,1,2c,63,2,4,
,,,,,,,,,,,,,,,,,,,,,,,,,,images/exp1b_trial_72_colour3_distractors31_l.png,l,1,005,001,2021-04-13_17h48.46.804,searchDisc4,2020.2.10,Win32,60,,,space,0.385955,1,1,1.384125,,0,41,41,186,1,1b,72,3,31,
,,,,,,,,,,,,,,,,,,,,,,,,,,images/exp2b_trial_88_colour3_distractors1_r.png,r,2,005,001,2021-04-13_17h48.46.804,searchDisc4,2020.2.10,Win32,60,,,space,0.23381,2,1,0.59071,,0,42,42,430,1,2b,88,3,1,
,,,,,,,,,,,,,,,,,,,,,,,,,,images/exp1a_trial_51_colour3_distractors4_r.png,r,2,005,001,2021-04-13_17h48.46.804,searchDisc4,2020.2.10,Win32,60,,,space,0.19741,2,1,0.55071,,0,43,43,51,1,1a,51,3,4,
,,,,,,,,,,,,,,,,,,,,,,,,,,images/exp2a_trial_26_colour2_distractors9_l.png,l,1,005,001,2021-04-13_17h48.46.804,searchDisc4,2020.2.10,Win32,60,,,space,0.20395,1,1,0.47732,,0,44,44,254,1,2a,26,2,9,
,,,,,,,,,,,,,,,,,,,,,,,,,,images/exp2b_trial_93_colour3_distractors43_r.png,r,2,005,001,2021-04-13_17h48.46.804,searchDisc4,2020.2.10,Win32,60,,,space,0.2031,2,1,0.769265,,0,45,45,435,1,2b,93,3,43,
,,,,,,,,,,,,,,,,,,,,,,,,,,images/exp1b_trial_92_colour3_distractors31_r.png,r,2,005,001,2021-04-13_17h48.46.804,searchDisc4,2020.2.10,Win32,60,,,space,0.186435,2,1,1.24941,,0,46,46,206,1,1b,92,3,31,
,,,,,,,,,,,,,,,,,,,,,,,,,,images/exp1b_trial_6_colour2_distractors1_r.png,r,2,005,001,2021-04-13_17h48.46.804,searchDisc4,2020.2.10,Win32,60,,,space,0.36674,2,1,0.57232,,0,47,47,120,1,1b,6,2,1,
,,,,,,,,,,,,,,,,,,,,,,,,,,images/exp2a_trial_77_colour1_distractors4_r.png,r,2,005,001,2021-04-13_17h48.46.804,searchDisc4,2020.2.10,Win32,60,,,space,0.22168,2,1,0.51525,,0,48,48,305,1,2a,77,1,4,
,,,,,,,,,,,,,,,,,,,,,,,,,,images/exp2c_trial_53_colour3_distractors19_r.png,r,2,005,001,2021-04-13_17h48.46.804,searchDisc4,2020.2.10,Win32,60,,,space,0.170645,2,1,0.5115,,0,49,49,509,1,2c,53,3,19,
,,,,,,,,,,,,,,,,,,,,,,,,,,images/exp1b_trial_39_colour1_distractors4_r.png,r,2,005,001,2021-04-13_17h48.46.804,searchDisc4,2020.2.10,Win32,60,,,space,0.194445,2,1,0.62527,,0,50,50,153,1,1b,39,1,4,
,,,,,,,,,,,,,,,,,,,,,,,,,,images/exp1b_trial_38_colour1_distractors1_r.png,r,2,005,001,2021-04-13_17h48.46.804,searchDisc4,2020.2.10,Win32,60,,,space,0.2206,2,1,0.52066,,0,51,51,152,1,1b,38,1,1,
,,,,,,,,,,,,,,,,,,,,,,,,,,images/exp2b_trial_16_colour3_distractors31_r.png,r,2,005,001,2021-04-13_17h48.46.804,searchDisc4,2020.2.10,Win32,60,,,space,0.206985,2,1,0.77543,,0,52,52,358,1,2b,16,3,31,
,,,,,,,,,,,,,,,,,,,,,,,,,,images/exp1a_trial_76_colour1_distractors1_r.png,r,2,005,001,2021-04-13_17h48.46.804,searchDisc4,2020.2.10,Win32,60,,,space,0.205215,2,1,0.672405,,0,53,53,76,1,1a,76,1,1,
,,,,,,,,,,,,,,,,,,,,,,,,,,images/exp2c_trial_72_colour3_distractors31_l.png,l,1,005,001,2021-04-13_17h48.46.804,searchDisc4,2020.2.10,Win32,60,,,space,0.17802,1,1,0.660865,,0,54,54,528,1,2c,72,3,31,
,,,,,,,,,,,,,,,,,,,,,,,,,,images/exp2a_trial_21_colour1_distractors19_l.png,l,1,005,001,2021-04-13_17h48.46.804,searchDisc4,2020.2.10,Win32,60,,,space,0.214285,1,1,0.64673,,0,55,55,249,1,2a,21,1,19,
,,,,,,,,,,,,,,,,,,,,,,,,,,images/exp2c_trial_44_colour2_distractors1_r.png,r,2,005,001,2021-04-13_17h48.46.804,searchDisc4,2020.2.10,Win32,60,,,space,0.16861,2,1,0.741045,,0,56,56,500,1,2c,44,2,1,
,,,,,,,,,,,,,,,,,,,,,,,,,,images/exp2c_trial_91_colour3_distractors19_r.png,r,2,005,001,2021-04-13_17h48.46.804,searchDisc4,2020.2.10,Win32,60,,,space,0.201155,2,1,0.53622,,0,57,57,547,1,2c,91,3,19,
,,,,,,,,,,,,,,,,,,,,,,,,,,images/exp2a_trial_90_colour3_distractors9_r.png,r,2,005,001,2021-04-13_17h48.46.804,searchDisc4,2020.2.10,Win32,60,,,space,0.210125,2,1,0.55344,,0,58,58,318,1,2a,90,3,9,
,,,,,,,,,,,,,,,,,,,,,,,,,,images/exp1b_trial_95_colour1_distractors4_l.png,l,1,005,001,2021-04-13_17h48.46.804,searchDisc4,2020.2.10,Win32,60,,,space,0.143155,1,1,0.67658,space,0,59,59,209,1,1b,95,1,4,0.17504
,,,,,,,,,,,,,,,,,,,,,,,,,,images/exp1b_trial_67_colour2_distractors43_l.png,l,1,005,001,2021-04-13_17h48.46.804,searchDisc4,2020.2.10,Win32,60,,,space,4.484165,1,1,1.23494,,0,60,60,181,1,1b,67,2,43,
,,,,,,,,,,,,,,,,,,,,,,,,,,images/exp1a_trial_66_colour2_distractors31_l.png,l,1,005,001,2021-04-13_17h48.46.804,searchDisc4,2020.2.10,Win32,60,,,space,0.527635,1,1,0.83631,,0,61,61,66,1,1a,66,2,31,
,,,,,,,,,,,,,,,,,,,,,,,,,,images/exp2a_trial_109_colour3_distractors19_l.png,l,1,005,001,2021-04-13_17h48.46.804,searchDisc4,2020.2.10,Win32,60,,,space,0.190965,1,1,0.475205,,0,62,62,337,1,2a,109,3,19,
,,,,,,,,,,,,,,,,,,,,,,,,,,images/exp2b_trial_86_colour2_distractors31_r.png,r,2,005,001,2021-04-13_17h48.46.804,searchDisc4,2020.2.10,Win32,60,,,space,0.165725,2,1,0.644485,,0,63,63,428,1,2b,86,2,31,
,,,,,,,,,,,,,,,,,,,,,,,,,,images/exp2b_trial_87_colour2_distractors43_r.png,r,2,005,001,2021-04-13_17h48.46.804,searchDisc4,2020.2.10,Win32,60,,,space,0.158435,2,1,0.598665,,0,64,64,429,1,2b,87,2,43,
,,,,,,,,,,,,,,,,,,,,,,,,,,images/exp2b_trial_82_colour2_distractors1_r.png,r,2,005,001,2021-04-13_17h48.46.804,searchDisc4,2020.2.10,Win32,60,,,space,0.165305,2,1,0.441765,,0,65,65,424,1,2b,82,2,1,
,,,,,,,,,,,,,,,,,,,,,,,,,,images/exp2a_trial_92_colour3_distractors31_r.png,r,2,005,001,2021-04-13_17h48.46.804,searchDisc4,2020.2.10,Win32,60,,,space,0.183955,2,1,0.4478,,0,66,66,320,1,2a,92,3,31,
,,,,,,,,,,,,,,,,,,,,,,,,,,images/exp2c_trial_2_colour1_distractors9_r.png,r,2,005,001,2021-04-13_17h48.46.804,searchDisc4,2020.2.10,Win32,60,,,space,0.2295,2,1,0.47291,,0,67,67,458,1,2c,2,1,9,
,,,,,,,,,,,,,,,,,,,,,,,,,,images/exp2b_trial_39_colour1_distractors4_r.png,r,2,005,001,2021-04-13_17h48.46.804,searchDisc4,2020.2.10,Win32,60,,,space,0.24697,2,1,0.40702,,0,68,68,381,1,2b,39,1,4,
,,,,,,,,,,,,,,,,,,,,,,,,,,images/exp2b_trial_103_colour2_distractors19_l.png,l,1,005,001,2021-04-13_17h48.46.804,searchDisc4,2020.2.10,Win32,60,,,space,0.384675,1,1,0.58545,,0,69,69,445,1,2b,103,2,19,
,,,,,,,,,,,,,,,,,,,,,,,,,,images/exp1a_trial_52_colour3_distractors9_r.png,r,2,005,001,2021-04-13_17h48.46.804,searchDisc4,2020.2.10,Win32,60,,,space,0.280745,2,1,0.63437,,0,70,70,52,1,1a,52,3,9,
,,,,,,,,,,,,,,,,,,,,,,,,,,images/exp1b_trial_94_colour1_distractors1_l.png,l,1,005,001,2021-04-13_17h48.46.804,searchDisc4,2020.2.10,Win32,60,,,space,0.29552,1,1,0.381775,,0,71,71,208,1,1b,94,1,1,
,,,,,,,,,,,,,,,,,,,,,,,,,,images/exp2b_trial_30_colour3_distractors1_l.png,l,1,005,001,2021-04-13_17h48.46.804,searchDisc4,2020.2.10,Win32,60,,,space,0.392215,1,1,0.721685,,0,72,72,372,1,2b,30,3,1,
,,,,,,,,,,,,,,,,,,,,,,,,,,images/exp2b_trial_80_colour1_distractors31_r.png,r,2,005,001,2021-04-13_17h48.46.804,searchDisc4,2020.2.10,Win32,60,,,space,0.28882,2,1,0.655645,,0,73,73,422,1,2b,80,1,31,
,,,,,,,,,,,,,,,,,,,,,,,,,,images/exp1a_trial_95_colour1_distractors4_l.png,l,1,005,001,2021-04-13_17h48.46.804,searchDisc4,2020.2.10,Win32,60,,,space,0.243575,1,1,0.497735,,0,74,74,95,1,1a,95,1,4,
,,,,,,,,,,,,,,,,,,,,,,,,,,images/exp2c_trial_13_colour3_distractors4_r.png,r,2,005,001,2021-04-13_17h48.46.804,searchDisc4,2020.2.10,Win32,60,,,space,0.25208,2,1,0.57285,,0,75,75,469,1,2c,13,3,4,
,,,,,,,,,,,,,,,,,,,,,,,,,,images/exp2c_trial_88_colour3_distractors1_r.png,r,2,005,001,2021-04-13_17h48.46.804,searchDisc4,2020.2.10,Win32,60,,,space,0.225835,2,1,0.6179,,0,76,76,544,1,2c,88,3,1,
,,,,,,,,,,,,,,,,,,,,,,,,,,images/exp1b_trial_81_colour1_distractors43_r.png,r,2,005,001,2021-04-13_17h48.46.804,searchDisc4,2020.2.10,Win32,60,,,space,0.21392,2,1,0.51449,,0,77,77,195,1,1b,81,1,43,
,,,,,,,,,,,,,,,,,,,,,,,,,,images/exp2a_trial_110_colour3_distractors31_l.png,l,1,005,001,2021-04-13_17h48.46.804,searchDisc4,2020.2.10,Win32,60,,,space,0.306675,1,1,0.63942,,0,78,78,338,1,2a,110,3,31,
,,,,,,,,,,,,,,,,,,,,,,,,,,images/exp1b_trial_97_colour1_distractors19_l.png,l,1,005,001,2021-04-13_17h48.46.804,searchDisc4,2020.2.10,Win32,60,,,space,0.25588,1,1,0.590845,,0,79,79,211,1,1b,97,1,19,
,,,,,,,,,,,,,,,,,,,,,,,,,,images/exp2b_trial_81_colour1_distractors43_r.png,r,2,005,001,2021-04-13_17h48.46.804,searchDisc4,2020.2.10,Win32,60,,,space,0.253045,2,1,0.723475,,0,80,80,423,1,2b,81,1,43,
,,,,,,,,,,,,,,,,,,,,,,,,,,images/exp1b_trial_89_colour3_distractors4_r.png,r,2,005,001,2021-04-13_17h48.46.804,searchDisc4,2020.2.10,Win32,60,,,space,0.228485,2,1,0.72193,,0,81,81,203,1,1b,89,3,4,
,,,,,,,,,,,,,,,,,,,,,,,,,,images/exp1b_trial_59_colour1_distractors19_l.png,l,1,005,001,2021-04-13_17h48.46.804,searchDisc4,2020.2.10,Win32,60,,,space,0.334655,1,1,0.775225,,0,82,82,173,1,1b,59,1,19,
,,,,,,,,,,,,,,,,,,,,,,,,,,images/exp1a_trial_68_colour3_distractors1_l.png,l,1,005,001,2021-04-13_17h48.46.804,searchDisc4,2020.2.10,Win32,60,,,space,0.27295,1,1,0.58483,,0,83,83,68,1,1a,68,3,1,
,,,,,,,,,,,,,,,,,,,,,,,,,,images/exp2a_trial_93_colour3_distractors43_r.png,r,2,005,001,2021-04-13_17h48.46.804,searchDisc4,2020.2.10,Win32,60,,,space,0.50728,2,1,0.872065,,0,84,84,321,1,2a,93,3,43,
,,,,,,,,,,,,,,,,,,,,,,,,,,images/exp1a_trial_31_colour3_distractors4_l.png,l,1,005,001,2021-04-13_17h48.46.804,searchDisc4,2020.2.10,Win32,60,,,space,0.264685,1,1,0.732295,,0,85,85,31,1,1a,31,3,4,
,,,,,,,,,,,,,,,,,,,,,,,,,,images/exp1a_trial_102_colour2_distractors9_l.png,l,1,005,001,2021-04-13_17h48.46.804,searchDisc4,2020.2.10,Win32,60,,,space,0.23245,1,1,0.871145,,0,86,86,102,1,1a,102,2,9,
,,,,,,,,,,,,,,,,,,,,,,,,,,images/exp1b_trial_41_colour1_distractors19_r.png,r,2,005,001,2021-04-13_17h48.46.804,searchDisc4,2020.2.10,Win32,60,,,space,0.26373,2,1,0.82772,,0,87,87,155,1,1b,41,1,19,
,,,,,,,,,,,,,,,,,,,,,,,,,,images/exp1b_trial_96_colour1_distractors9_l.png,l,1,005,001,2021-04-13_17h48.46.804,searchDisc4,2020.2.10,Win32,60,,,space,0.249355,1,1,0.6415,,0,88,88,210,1,1b,96,1,9,
,,,,,,,,,,,,,,,,,,,,,,,,,,images/exp2c_trial_86_colour2_distractors31_r.png,r,2,005,001,2021-04-13_17h48.46.804,searchDisc4,2020.2.10,Win32,60,,,space,0.26783,2,1,0.72446,,0,89,89,542,1,2c,86,2,31,
,,,,,,,,,,,,,,,,,,,,,,,,,,images/exp1a_trial_21_colour1_distractors19_l.png,l,1,005,001,2021-04-13_17h48.46.804,searchDisc4,2020.2.10,Win32,60,,,space,0.263145,1,1,0.57445,,0,90,90,21,1,1a,21,1,19,
,,,,,,,,,,,,,,,,,,,,,,,,,,images/exp2a_trial_57_colour1_distractors4_l.png,l,1,005,001,2021-04-13_17h48.46.804,searchDisc4,2020.2.10,Win32,60,,,space,0.278785,1,1,0.65223,,0,91,91,285,1,2a,57,1,4,
,,,,,,,,,,,,,,,,,,,,,,,,,,images/exp1a_trial_23_colour1_distractors43_l.png,l,1,005,001,2021-04-13_17h48.46.804,searchDisc4,2020.2.10,Win32,60,,,space,0.220155,1,1,0.472265,,0,92,92,23,1,1a,23,1,43,
,,,,,,,,,,,,,,,,,,,,,,,,,,images/exp2c_trial_8_colour2_distractors9_r.png,r,2,005,001,2021-04-13_17h48.46.804,searchDisc4,2020.2.10,Win32,60,,,space,0.5183,2,1,0.523775,,0,93,93,464,1,2c,8,2,9,
,,,,,,,,,,,,,,,,,,,,,,,,,,images/exp2c_trial_26_colour2_distractors9_l.png,l,1,005,001,2021-04-13_17h48.46.804,searchDisc4,2020.2.10,Win32,60,,,space,0.351405,1,1,0.622565,,0,94,94,482,1,2c,26,2,9,
,,,,,,,,,,,,,,,,,,,,,,,,,,images/exp1b_trial_57_colour1_distractors4_l.png,l,1,005,001,2021-04-13_17h48.46.804,searchDisc4,2020.2.10,Win32,60,,,space,0.76434,1,1,0.59363,,0,95,95,171,1,1b,57,1,4,
,,,,,,,,,,,,,,,,,,,,,,,,,,images/exp2c_trial_9_colour2_distractors19_r.png,r,2,005,001,2021-04-13_17h48.46.804,searchDisc4,2020.2.10,Win32,60,,,space,0.4889,2,1,0.65383,,0,96,96,465,1,2c,9,2,19,
,,,,,,,,,,,,,,,,,,,,,,,,,,images/exp2a_trial_91_colour3_distractors19_r.png,r,2,005,001,2021-04-13_17h48.46.804,searchDisc4,2020.2.10,Win32,60,,,space,0.2666,2,1,0.53914,,0,97,97,319,1,2a,91,3,19,
,,,,,,,,,,,,,,,,,,,,,,,,,,images/exp2a_trial_2_colour1_distractors9_r.png,r,2,005,001,2021-04-13_17h48.46.804,searchDisc4,2020.2.10,Win32,60,,,space,0.315715,2,1,0.59403,,0,98,98,230,1,2a,2,1,9,
,,,,,,,,,,,,,,,,,,,,,,,,,,images/exp1a_trial_20_colour1_distractors9_l.png,l,1,005,001,2021-04-13_17h48.46.804,searchDisc4,2020.2.10,Win32,60,,,space,0.267675,1,1,0.72595,,0,99,99,20,1,1a,20,1,9,
,,,,,,,,,,,,,,,,,,,,,,,,,,images/exp2a_trial_14_colour3_distractors9_r.png,r,2,005,001,2021-04-13_17h48.46.804,searchDisc4,2020.2.10,Win32,60,,,space,0.315435,2,1,0.818075,,0,100,100,242,1,2a,14,3,9,
,,,,,,,,,,,,,,,,,,,,,,,,,,images/exp1a_trial_43_colour1_distractors43_r.png,r,2,005,001,2021-04-13_17h48.46.804,searchDisc4,2020.2.10,Win32,60,,,space,0.220545,2,1,0.6696,,0,101,101,43,1,1a,43,1,43,
,,,,,,,,,,,,,,,,,,,,,,,,,,images/exp2a_trial_10_colour2_distractors31_r.png,r,2,005,001,2021-04-13_17h48.46.804,searchDisc4,2020.2.10,Win32,60,,,space,0.231625,2,1,0.48066,,0,102,102,238,1,2a,10,2,31,
,,,,,,,,,,,,,,,,,,,,,,,,,,images/exp1b_trial_9_colour2_distractors19_r.png,r,2,005,001,2021-04-13_17h48.46.804,searchDisc4,2020.2.10,Win32,60,,,space,0.367075,2,1,0.823105,,0,103,103,123,1,1b,9,2,19,
,,,,,,,,,,,,,,,,,,,,,,,,,,images/exp2c_trial_21_colour1_distractors19_l.png,l,1,005,001,2021-04-13_17h48.46.804,searchDisc4,2020.2.10,Win32,60,,,space,0.29792,1,1,0.667215,,0,104,104,477,1,2c,21,1,19,
,,,,,,,,,,,,,,,,,,,,,,,,,,images/exp2a_trial_52_colour3_distractors9_r.png,r,2,005,001,2021-04-13_17h48.46.804,searchDisc4,2020.2.10,Win32,60,,,space,0.31391,2,1,0.407535,,0,105,105,280,1,2a,52,3,9,
,,,,,,,,,,,,,,,,,,,,,,,,,,images/exp1a_trial_84_colour2_distractors9_r.png,r,2,005,001,2021-04-13_17h48.46.804,searchDisc4,2020.2.10,Win32,60,,,space,0.38093,2,1,0.52486,,0,106,106,84,1,1a,84,2,9,
,,,,,,,,,,,,,,,,,,,,,,,,,,images/exp2c_trial_58_colour1_distractors9_l.png,l,1,005,001,2021-04-13_17h48.46.804,searchDisc4,2020.2.10,Win32,60,,,space,0.335815,1,1,0.517095,,0,107,107,514,1,2c,58,1,9,
,,,,,,,,,,,,,,,,,,,,,,,,,,images/exp2a_trial_51_colour3_distractors4_r.png,r,2,005,001,2021-04-13_17h48.46.804,searchDisc4,2020.2.10,Win32,60,,,space,0.345925,2,1,0.52359,,0,108,108,279,1,2a,51,3,4,
,,,,,,,,,,,,,,,,,,,,,,,,,,images/exp2c_trial_24_colour2_distractors1_l.png,l,1,005,001,2021-04-13_17h48.46.804,searchDisc4,2020.2.10,Win32,60,,,space,0.416995,1,1,0.464925,,0,109,109,480,1,2c,24,2,1,
,,,,,,,,,,,,,,,,,,,,,,,,,,images/exp1b_trial_24_colour2_distractors1_l.png,l,1,005,001,2021-04-13_17h48.46.804,searchDisc4,2020.2.10,Win32,60,,,space,0.480535,1,1,0.45739,,0,110,110,138,1,1b,24,2,1,
,,,,,,,,,,,,,,,,,,,,,,,,,,images/exp2c_trial_67_colour2_distractors43_l.png,l,1,005,001,2021-04-13_17h48.46.804,searchDisc4,2020.2.10,Win32,60,,,space,0.61299,1,1,0.689855,,0,111,111,523,1,2c,67,2,43,
,,,,,,,,,,,,,,,,,,,,,,,,,,images/exp1a_trial_89_colour3_distractors4_r.png,r,2,005,001,2021-04-13_17h48.46.804,searchDisc4,2020.2.10,Win32,60,,,space,0.396235,2,1,0.66467,,0,112,112,89,1,1a,89,3,4,
,,,,,,,,,,,,,,,,,,,,,,,,,,images/exp1a_trial_101_colour2_distractors4_l.png,l,1,005,001,2021-04-13_17h48.46.804,searchDisc4,2020.2.10,Win32,60,,,space,0.354965,1,1,0.75341,,0,113,113,101,1,1a,101,2,4,
,,,,,,,,,,,,,,,,,,,,,,,,,,images/exp1b_trial_0_colour1_distractors1_r.png,r,2,005,001,2021-04-13_17h48.46.804,searchDisc4,2020.2.10,Win32,60,,,space,0.51928,2,1,0.5411,,0,114,114,114,1,1b,0,1,1,
,,,,,,,,,,,,,,,,,,,,,,,,,,images/exp2c_trial_47_colour2_distractors19_r.png,r,2,005,001,2021-04-13_17h48.46.804,searchDisc4,2020.2.10,Win32,60,,,space,0.48122,2,1,0.631565,,0,115,115,503,1,2c,47,2,19,
,,,,,,,,,,,,,,,,,,,,,,,,,,images/exp2b_trial_69_colour3_distractors4_l.png,l,1,005,001,2021-04-13_17h48.46.804,searchDisc4,2020.2.10,Win32,60,,,space,0.646275,1,1,0.67833,,0,116,116,411,1,2b,69,3,4,
,,,,,,,,,,,,,,,,,,,,,,,,,,images/exp2a_trial_108_colour3_distractors9_l.png,l,1,005,001,2021-04-13_17h48.46.804,searchDisc4,2020.2.10,Win32,60,,,space,0.577685,1,1,0.522725,,0,117,117,336,1,2a,108,3,9,
,,,,,,,,,,,,,,,,,,,,,,,,,,images/exp2c_trial_107_colour3_distractors4_l.png,l,1,005,001,2021-04-13_17h48.46.804,searchDisc4,2020.2.10,Win32,60,,,space,0.935825,1,1,0.38351,,0,118,118,563,1,2c,107,3,4,
,,,,,,,,,,,,,,,,,,,,,,,,,,images/exp2b_trial_35_colour3_distractors43_l.png,l,1,005,001,2021-04-13_17h48.46.804,searchDisc4,2020.2.10,Win32,60,,,space,1.1202,1,1,0.526095,space,0,119,119,377,1,2b,35,3,43,10.144725
,,,,,,,,,,,,,,,,,,,,,,,,,,images/exp1a_trial_16_colour3_distractors31_r.png,r,2,005,001,2021-04-13_17h48.46.804,searchDisc4,2020.2.10,Win32,60,,,space,1.503065,2,1,0.79121,,0,120,120,16,1,1a,16,3,31,
,,,,,,,,,,,,,,,,,,,,,,,,,,images/exp1a_trial_65_colour2_distractors19_l.png,l,1,005,001,2021-04-13_17h48.46.804,searchDisc4,2020.2.10,Win32,60,,,space,0.59711,1,1,0.64732,,0,121,121,65,1,1a,65,2,19,
,,,,,,,,,,,,,,,,,,,,,,,,,,images/exp2a_trial_111_colour3_distractors43_l.png,l,1,005,001,2021-04-13_17h48.46.804,searchDisc4,2020.2.10,Win32,60,,,space,0.497275,1,1,0.613215,,0,122,122,339,1,2a,111,3,43,
,,,,,,,,,,,,,,,,,,,,,,,,,,images/exp2a_trial_79_colour1_distractors19_r.png,r,2,005,001,2021-04-13_17h48.46.804,searchDisc4,2020.2.10,Win32,60,,,space,1.036475,2,1,0.602805,,0,123,123,307,1,2a,79,1,19,
,,,,,,,,,,,,,,,,,,,,,,,,,,images/exp2b_trial_23_colour1_distractors43_l.png,l,1,005,001,2021-04-13_17h48.46.804,searchDisc4,2020.2.10,Win32,60,,,space,1.285855,1,1,0.58028,,0,124,124,365,1,2b,23,1,43,
,,,,,,,,,,,,,,,,,,,,,,,,,,images/exp2b_trial_5_colour1_distractors43_r.png,r,2,005,001,2021-04-13_17h48.46.804,searchDisc4,2020.2.10,Win32,60,,,space,0.48034,2,1,0.6466,,0,125,125,347,1,2b,5,1,43,
,,,,,,,,,,,,,,,,,,,,,,,,,,images/exp2c_trial_42_colour1_distractors31_r.png,r,2,005,001,2021-04-13_17h48.46.804,searchDisc4,2020.2.10,Win32,60,,,space,0.48,2,1,0.517005,,0,126,126,498,1,2c,42,1,31,
,,,,,,,,,,,,,,,,,,,,,,,,,,images/exp1a_trial_111_colour3_distractors43_l.png,l,1,005,001,2021-04-13_17h48.46.804,searchDisc4,2020.2.10,Win32,60,,,space,0.40326,1,1,0.691405,,0,127,127,111,1,1a,111,3,43,
,,,,,,,,,,,,,,,,,,,,,,,,,,images/exp2b_trial_40_colour1_distractors9_r.png,r,2,005,001,2021-04-13_17h48.46.804,searchDisc4,2020.2.10,Win32,60,,,space,1.59519,2,1,0.52464,,0,128,128,382,1,2b,40,1,9,
,,,,,,,,,,,,,,,,,,,,,,,,,,images/exp2c_trial_95_colour1_distractors4_l.png,l,1,005,001,2021-04-13_17h48.46.804,searchDisc4,2020.2.10,Win32,60,,,space,0.480255,1,1,0.542895,,0,129,129,551,1,2c,95,1,4,
,,,,,,,,,,,,,,,,,,,,,,,,,,images/exp1a_trial_92_colour3_distractors31_r.png,r,2,005,001,2021-04-13_17h48.46.804,searchDisc4,2020.2.10,Win32,60,,,space,0.624145,2,1,0.554105,,0,130,130,92,1,1a,92,3,31,
,,,,,,,,,,,,,,,,,,,,,,,,,,images/exp2c_trial_55_colour3_distractors43_r.png,r,2,005,001,2021-04-13_17h48.46.804,searchDisc4,2020.2.10,Win32,60,,,space,0.36606,2,1,0.50444,,0,131,131,511,1,2c,55,3,43,
,,,,,,,,,,,,,,,,,,,,,,,,,,images/exp2c_trial_99_colour1_distractors43_l.png,l,1,005,001,2021-04-13_17h48.46.804,searchDisc4,2020.2.10,Win32,60,,,space,0.354325,1,1,0.587285,,0,132,132,555,1,2c,99,1,43,
,,,,,,,,,,,,,,,,,,,,,,,,,,images/exp1a_trial_77_colour1_distractors4_r.png,r,2,005,001,2021-04-13_17h48.46.804,searchDisc4,2020.2.10,Win32,60,,,space,0.395855,2,1,0.64022,,0,133,133,77,1,1a,77,1,4,
,,,,,,,,,,,,,,,,,,,,,,,,,,images/exp2a_trial_70_colour3_distractors9_l.png,l,1,005,001,2021-04-13_17h48.46.804,searchDisc4,2020.2.10,Win32,60,,,space,0.47719,1,1,0.50403,,0,134,134,298,1,2a,70,3,9,
,,,,,,,,,,,,,,,,,,,,,,,,,,images/exp1b_trial_79_colour1_distractors19_r.png,r,2,005,001,2021-04-13_17h48.46.804,searchDisc4,2020.2.10,Win32,60,,,space,0.69972,2,1,0.658665,,0,135,135,193,1,1b,79,1,19,
,,,,,,,,,,,,,,,,,,,,,,,,,,images/exp2a_trial_71_colour3_distractors19_l.png,l,1,005,001,2021-04-13_17h48.46.804,searchDisc4,2020.2.10,Win32,60,,,space,0.442805,1,1,0.575555,,0,136,136,299,1,2a,71,3,19,
,,,,,,,,,,,,,,,,,,,,,,,,,,images/exp1b_trial_70_colour3_distractors9_l.png,l,1,005,001,2021-04-13_17h48.46.804,searchDisc4,2020.2.10,Win32,60,,,space,0.450985,1,1,0.72057,,0,137,137,184,1,1b,70,3,9,
,,,,,,,,,,,,,,,,,,,,,,,,,,images/exp1b_trial_90_colour3_distractors9_r.png,r,2,005,001,2021-04-13_17h48.46.804,searchDisc4,2020.2.10,Win32,60,,,space,0.485575,2,1,0.571505,,0,138,138,204,1,1b,90,3,9,
,,,,,,,,,,,,,,,,,,,,,,,,,,images/exp1b_trial_3_colour1_distractors19_r.png,r,2,005,001,2021-04-13_17h48.46.804,searchDisc4,2020.2.10,Win32,60,,,space,0.38118,2,1,0.60336,,0,139,139,117,1,1b,3,1,19,
,,,,,,,,,,,,,,,,,,,,,,,,,,images/exp1a_trial_91_colour3_distractors19_r.png,r,2,005,001,2021-04-13_17h48.46.804,searchDisc4,2020.2.10,Win32,60,,,space,0.43488,2,1,0.633505,,0,140,140,91,1,1a,91,3,19,
,,,,,,,,,,,,,,,,,,,,,,,,,,images/exp1a_trial_73_colour3_distractors43_l.png,l,1,005,001,2021-04-13_17h48.46.804,searchDisc4,2020.2.10,Win32,60,,,space,0.20117,1,1,0.556875,,0,141,141,73,1,1a,73,3,43,
,,,,,,,,,,,,,,,,,,,,,,,,,,images/exp2c_trial_110_colour3_distractors31_l.png,l,1,005,001,2021-04-13_17h48.46.804,searchDisc4,2020.2.10,Win32,60,,,space,0.333065,1,1,0.54355,,0,142,142,566,1,2c,110,3,31,
,,,,,,,,,,,,,,,,,,,,,,,,,,images/exp1a_trial_82_colour2_distractors1_r.png,r,2,005,001,2021-04-13_17h48.46.804,searchDisc4,2020.2.10,Win32,60,,,space,0.346055,2,1,0.49256,,0,143,143,82,1,1a,82,2,1,
,,,,,,,,,,,,,,,,,,,,,,,,,,images/exp2c_trial_10_colour2_distractors31_r.png,r,2,005,001,2021-04-13_17h48.46.804,searchDisc4,2020.2.10,Win32,60,,,space,0.41264,2,1,0.51758,,0,144,144,466,1,2c,10,2,31,
,,,,,,,,,,,,,,,,,,,,,,,,,,images/exp2b_trial_68_colour3_distractors1_l.png,l,1,005,001,2021-04-13_17h48.46.804,searchDisc4,2020.2.10,Win32,60,,,space,0.230465,1,1,0.63589,,0,145,145,410,1,2b,68,3,1,
,,,,,,,,,,,,,,,,,,,,,,,,,,images/exp2a_trial_5_colour1_distractors43_r.png,r,2,005,001,2021-04-13_17h48.46.804,searchDisc4,2020.2.10,Win32,60,,,space,0.262095,2,1,0.721285,,0,146,146,233,1,2a,5,1,43,
,,,,,,,,,,,,,,,,,,,,,,,,,,images/exp2c_trial_57_colour1_distractors4_l.png,l,1,005,001,2021-04-13_17h48.46.804,searchDisc4,2020.2.10,Win32,60,,,space,0.22817,1,1,0.500545,,0,147,147,513,1,2c,57,1,4,
,,,,,,,,,,,,,,,,,,,,,,,,,,images/exp2b_trial_104_colour2_distractors31_l.png,l,1,005,001,2021-04-13_17h48.46.804,searchDisc4,2020.2.10,Win32,60,,,space,0.269685,1,1,0.536485,,0,148,148,446,1,2b,104,2,31,
,,,,,,,,,,,,,,,,,,,,,,,,,,images/exp1a_trial_99_colour1_distractors43_l.png,l,1,005,001,2021-04-13_17h48.46.804,searchDisc4,2020.2.10,Win32,60,,,space,0.281115,1,1,0.595245,,0,149,149,99,1,1a,99,1,43,
,,,,,,,,,,,,,,,,,,,,,,,,,,images/exp1a_trial_8_colour2_distractors9_r.png,r,2,005,001,2021-04-13_17h48.46.804,searchDisc4,2020.2.10,Win32,60,,,space,0.255775,2,1,0.61055,,0,150,150,8,1,1a,8,2,9,
,,,,,,,,,,,,,,,,,,,,,,,,,,images/exp1a_trial_71_colour3_distractors19_l.png,l,1,005,001,2021-04-13_17h48.46.804,searchDisc4,2020.2.10,Win32,60,,,space,0.246695,1,1,0.49002,,0,151,151,71,1,1a,71,3,19,
,,,,,,,,,,,,,,,,,,,,,,,,,,images/exp1a_trial_39_colour1_distractors4_r.png,r,2,005,001,2021-04-13_17h48.46.804,searchDisc4,2020.2.10,Win32,60,,,space,0.399325,2,1,0.472365,,0,152,152,39,1,1a,39,1,4,
,,,,,,,,,,,,,,,,,,,,,,,,,,images/exp1a_trial_13_colour3_distractors4_r.png,r,2,005,001,2021-04-13_17h48.46.804,searchDisc4,2020.2.10,Win32,60,,,space,0.43305,2,1,0.55414,,0,153,153,13,1,1a,13,3,4,
,,,,,,,,,,,,,,,,,,,,,,,,,,images/exp1a_trial_75_colour0_distractors0_l.png,l,1,005,001,2021-04-13_17h48.46.804,searchDisc4,2020.2.10,Win32,60,,,space,1.52093,1,1,0.434605,,0,154,154,75,1,1a,75,0,0,
,,,,,,,,,,,,,,,,,,,,,,,,,,images/exp1a_trial_44_colour2_distractors1_r.png,r,2,005,001,2021-04-13_17h48.46.804,searchDisc4,2020.2.10,Win32,60,,,space,0.418065,2,1,1.103985,,0,155,155,44,1,1a,44,2,1,
,,,,,,,,,,,,,,,,,,,,,,,,,,images/exp2a_trial_34_colour3_distractors31_l.png,l,1,005,001,2021-04-13_17h48.46.804,searchDisc4,2020.2.10,Win32,60,,,space,0.414105,1,1,0.56032,,0,156,156,262,1,2a,34,3,31,
,,,,,,,,,,,,,,,,,,,,,,,,,,images/exp2b_trial_22_colour1_distractors31_l.png,l,1,005,001,2021-04-13_17h48.46.804,searchDisc4,2020.2.10,Win32,60,,,space,0.28007,1,1,0.46903,,0,157,157,364,1,2b,22,1,31,
,,,,,,,,,,,,,,,,,,,,,,,,,,images/exp2b_trial_55_colour3_distractors43_r.png,r,2,005,001,2021-04-13_17h48.46.804,searchDisc4,2020.2.10,Win32,60,,,space,0.28078,2,1,0.523325,,0,158,158,397,1,2b,55,3,43,
,,,,,,,,,,,,,,,,,,,,,,,,,,images/exp2b_trial_56_colour1_distractors1_l.png,l,1,005,001,2021-04-13_17h48.46.804,searchDisc4,2020.2.10,Win32,60,,,space,0.188375,1,1,0.45564,,0,159,159,398,1,2b,56,1,1,
,,,,,,,,,,,,,,,,,,,,,,,,,,images/exp1b_trial_13_colour3_distractors4_r.png,r,2,005,001,2021-04-13_17h48.46.804,searchDisc4,2020.2.10,Win32,60,,,space,0.25128,2,1,0.547485,,0,160,160,127,1,1b,13,3,4,
,,,,,,,,,,,,,,,,,,,,,,,,,,images/exp1a_trial_110_colour3_distractors31_l.png,l,1,005,001,2021-04-13_17h48.46.804,searchDisc4,2020.2.10,Win32,60,,,space,0.223015,1,1,0.525375,,0,161,161,110,1,1a,110,3,31,
,,,,,,,,,,,,,,,,,,,,,,,,,,images/exp2c_trial_68_colour3_distractors1_l.png,l,1,005,001,2021-04-13_17h48.46.804,searchDisc4,2020.2.10,Win32,60,,,space,0.59996,1,1,0.536105,,0,162,162,524,1,2c,68,3,1,
,,,,,,,,,,,,,,,,,,,,,,,,,,images/exp2b_trial_102_colour2_distractors9_l.png,l,1,005,001,2021-04-13_17h48.46.804,searchDisc4,2020.2.10,Win32,60,,,space,0.331835,1,1,0.59336,,0,163,163,444,1,2b,102,2,9,
,,,,,,,,,,,,,,,,,,,,,,,,,,images/exp1b_trial_33_colour3_distractors19_l.png,l,1,005,001,2021-04-13_17h48.46.804,searchDisc4,2020.2.10,Win32,60,,,space,0.218985,1,1,1.39535,,0,164,164,147,1,1b,33,3,19,
,,,,,,,,,,,,,,,,,,,,,,,,,,images/exp1a_trial_74_colour0_distractors0_r.png,r,2,005,001,2021-04-13_17h48.46.804,searchDisc4,2020.2.10,Win32,60,,,space,0.378965,2,1,0.528095,,0,165,165,74,1,1a,74,0,0,
,,,,,,,,,,,,,,,,,,,,,,,,,,images/exp2c_trial_5_colour1_distractors43_r.png,r,2,005,001,2021-04-13_17h48.46.804,searchDisc4,2020.2.10,Win32,60,,,space,0.36825,2,1,0.619055,,0,166,166,461,1,2c,5,1,43,
,,,,,,,,,,,,,,,,,,,,,,,,,,images/exp1b_trial_107_colour3_distractors4_l.png,l,1,005,001,2021-04-13_17h48.46.804,searchDisc4,2020.2.10,Win32,60,,,space,0.269055,1,1,0.49915,,0,167,167,221,1,1b,107,3,4,
,,,,,,,,,,,,,,,,,,,,,,,,,,images/exp1a_trial_0_colour1_distractors1_r.png,r,2,005,001,2021-04-13_17h48.46.804,searchDisc4,2020.2.10,Win32,60,,,space,0.33839,2,1,0.72298,,0,168,168,0,1,1a,0,1,1,
,,,,,,,,,,,,,,,,,,,,,,,,,,images/exp2a_trial_9_colour2_distractors19_r.png,r,2,005,001,2021-04-13_17h48.46.804,searchDisc4,2020.2.10,Win32,60,,,space,0.300565,2,1,0.842355,,0,169,169,237,1,2a,9,2,19,
,,,,,,,,,,,,,,,,,,,,,,,,,,images/exp1a_trial_24_colour2_distractors1_l.png,l,1,005,001,2021-04-13_17h48.46.804,searchDisc4,2020.2.10,Win32,60,,,space,0.24444,1,1,0.781835,,0,170,170,24,1,1a,24,2,1,
,,,,,,,,,,,,,,,,,,,,,,,,,,images/exp2b_trial_11_colour2_distractors43_r.png,r,2,005,001,2021-04-13_17h48.46.804,searchDisc4,2020.2.10,Win32,60,,,space,0.23559,2,1,0.583835,,0,171,171,353,1,2b,11,2,43,
,,,,,,,,,,,,,,,,,,,,,,,,,,images/exp2b_trial_67_colour2_distractors43_l.png,l,1,005,001,2021-04-13_17h48.46.804,searchDisc4,2020.2.10,Win32,60,,,space,0.271585,1,1,0.753435,,0,172,172,409,1,2b,67,2,43,
,,,,,,,,,,,,,,,,,,,,,,,,,,images/exp2c_trial_34_colour3_distractors31_l.png,l,1,005,001,2021-04-13_17h48.46.804,searchDisc4,2020.2.10,Win32,60,,,space,0.3554,1,1,0.46874,,0,173,173,490,1,2c,34,3,31,
,,,,,,,,,,,,,,,,,,,,,,,,,,images/exp2b_trial_84_colour2_distractors9_r.png,r,2,005,001,2021-04-13_17h48.46.804,searchDisc4,2020.2.10,Win32,60,,,space,0.44013,2,1,0.55725,,0,174,174,426,1,2b,84,2,9,
,,,,,,,,,,,,,,,,,,,,,,,,,,images/exp1b_trial_51_colour3_distractors4_r.png,r,2,005,001,2021-04-13_17h48.46.804,searchDisc4,2020.2.10,Win32,60,,,space,0.4303,2,1,0.71688,,0,175,175,165,1,1b,51,3,4,
,,,,,,,,,,,,,,,,,,,,,,,,,,images/exp1a_trial_64_colour2_distractors9_l.png,l,1,005,001,2021-04-13_17h48.46.804,searchDisc4,2020.2.10,Win32,60,,,space,0.332805,1,1,0.715755,,0,176,176,64,1,1a,64,2,9,
,,,,,,,,,,,,,,,,,,,,,,,,,,images/exp2b_trial_7_colour2_distractors4_r.png,r,2,005,001,2021-04-13_17h48.46.804,searchDisc4,2020.2.10,Win32,60,,,space,0.35683,2,1,0.54862,,0,177,177,349,1,2b,7,2,4,
,,,,,,,,,,,,,,,,,,,,,,,,,,images/exp1b_trial_50_colour3_distractors1_r.png,r,2,005,001,2021-04-13_17h48.46.804,searchDisc4,2020.2.10,Win32,60,,,space,0.49819,2,1,0.689455,,0,178,178,164,1,1b,50,3,1,
,,,,,,,,,,,,,,,,,,,,,,,,,,images/exp2a_trial_0_colour1_distractors1_r.png,r,2,005,001,2021-04-13_17h48.46.804,searchDisc4,2020.2.10,Win32,60,,,space,0.417885,2,1,0.568245,space,0,179,179,228,1,2a,0,1,1,0.264035
,,,,,,,,,,,,,,,,,,,,,,,,,,images/exp1b_trial_108_colour3_distractors9_l.png,l,1,005,001,2021-04-13_17h48.46.804,searchDisc4,2020.2.10,Win32,60,,,space,57.33468,1,1,0.554845,,0,180,180,222,1,1b,108,3,9,
,,,,,,,,,,,,,,,,,,,,,,,,,,images/exp2c_trial_59_colour1_distractors19_l.png,l,1,005,001,2021-04-13_17h48.46.804,searchDisc4,2020.2.10,Win32,60,,,space,0.308515,1,1,0.531045,,0,181,181,515,1,2c,59,1,19,
,,,,,,,,,,,,,,,,,,,,,,,,,,images/exp1a_trial_48_colour2_distractors31_r.png,r,2,005,001,2021-04-13_17h48.46.804,searchDisc4,2020.2.10,Win32,60,,,space,0.33085,2,1,0.703845,,0,182,182,48,1,1a,48,2,31,
,,,,,,,,,,,,,,,,,,,,,,,,,,images/exp2c_trial_45_colour2_distractors4_r.png,r,2,005,001,2021-04-13_17h48.46.804,searchDisc4,2020.2.10,Win32,60,,,space,0.29682,2,1,0.55011,,0,183,183,501,1,2c,45,2,4,
,,,,,,,,,,,,,,,,,,,,,,,,,,images/exp2a_trial_84_colour2_distractors9_r.png,r,2,005,001,2021-04-13_17h48.46.804,searchDisc4,2020.2.10,Win32,60,,,space,0.37952,2,1,0.408565,,0,184,184,312,1,2a,84,2,9,
,,,,,,,,,,,,,,,,,,,,,,,,,,images/exp2a_trial_49_colour2_distractors43_r.png,r,2,005,001,2021-04-13_17h48.46.804,searchDisc4,2020.2.10,Win32,60,,,space,0.29638,2,1,0.4901,,0,185,185,277,1,2a,49,2,43,
,,,,,,,,,,,,,,,,,,,,,,,,,,images/exp1a_trial_79_colour1_distractors19_r.png,r,2,005,001,2021-04-13_17h48.46.804,searchDisc4,2020.2.10,Win32,60,,,space,0.31171,2,1,0.4682,,0,186,186,79,1,1a,79,1,19,
,,,,,,,,,,,,,,,,,,,,,,,,,,images/exp2b_trial_41_colour1_distractors19_r.png,r,2,005,001,2021-04-13_17h48.46.804,searchDisc4,2020.2.10,Win32,60,,,space,0.305115,2,1,0.50577,,0,187,187,383,1,2b,41,1,19,
,,,,,,,,,,,,,,,,,,,,,,,,,,images/exp1b_trial_16_colour3_distractors31_r.png,r,2,005,001,2021-04-13_17h48.46.804,searchDisc4,2020.2.10,Win32,60,,,space,0.305605,2,1,0.514905,,0,188,188,130,1,1b,16,3,31,
,,,,,,,,,,,,,,,,,,,,,,,,,,images/exp1b_trial_28_colour2_distractors31_l.png,l,1,005,001,2021-04-13_17h48.46.804,searchDisc4,2020.2.10,Win32,60,,,space,0.347795,1,1,0.637405,,0,189,189,142,1,1b,28,2,31,
,,,,,,,,,,,,,,,,,,,,,,,,,,images/exp2a_trial_74_colour0_distractors0_r.png,r,2,005,001,2021-04-13_17h48.46.804,searchDisc4,2020.2.10,Win32,60,,,space,0.26916,2,1,0.505305,,0,190,190,302,1,2a,74,0,0,
,,,,,,,,,,,,,,,,,,,,,,,,,,images/exp2a_trial_47_colour2_distractors19_r.png,r,2,005,001,2021-04-13_17h48.46.804,searchDisc4,2020.2.10,Win32,60,,,space,0.367735,2,1,0.499865,,0,191,191,275,1,2a,47,2,19,
,,,,,,,,,,,,,,,,,,,,,,,,,,images/exp1a_trial_85_colour2_distractors19_r.png,r,2,005,001,2021-04-13_17h48.46.804,searchDisc4,2020.2.10,Win32,60,,,space,0.346065,2,1,0.89129,,0,192,192,85,1,1a,85,2,19,
,,,,,,,,,,,,,,,,,,,,,,,,,,images/exp1a_trial_78_colour1_distractors9_r.png,r,2,005,001,2021-04-13_17h48.46.804,searchDisc4,2020.2.10,Win32,60,,,space,0.38465,2,1,0.550455,,0,193,193,78,1,1a,78,1,9,
,,,,,,,,,,,,,,,,,,,,,,,,,,images/exp2b_trial_57_colour1_distractors4_l.png,l,1,005,001,2021-04-13_17h48.46.804,searchDisc4,2020.2.10,Win32,60,,,space,0.347605,1,1,0.48994,,0,194,194,399,1,2b,57,1,4,
,,,,,,,,,,,,,,,,,,,,,,,,,,images/exp1b_trial_68_colour3_distractors1_l.png,l,1,005,001,2021-04-13_17h48.46.804,searchDisc4,2020.2.10,Win32,60,,,space,0.483345,1,1,0.591085,,0,195,195,182,1,1b,68,3,1,
,,,,,,,,,,,,,,,,,,,,,,,,,,images/exp1b_trial_49_colour2_distractors43_r.png,r,2,005,001,2021-04-13_17h48.46.804,searchDisc4,2020.2.10,Win32,60,,,space,0.29569,2,1,0.56433,,0,196,196,163,1,1b,49,2,43,
,,,,,,,,,,,,,,,,,,,,,,,,,,images/exp1b_trial_11_colour2_distractors43_r.png,r,2,005,001,2021-04-13_17h48.46.804,searchDisc4,2020.2.10,Win32,60,,,space,0.318825,2,1,0.48148,,0,197,197,125,1,1b,11,2,43,
,,,,,,,,,,,,,,,,,,,,,,,,,,images/exp2a_trial_46_colour2_distractors9_r.png,r,2,005,001,2021-04-13_17h48.46.804,searchDisc4,2020.2.10,Win32,60,,,space,0.334085,2,1,0.70395,,0,198,198,274,1,2a,46,2,9,
,,,,,,,,,,,,,,,,,,,,,,,,,,images/exp2a_trial_3_colour1_distractors19_r.png,r,2,005,001,2021-04-13_17h48.46.804,searchDisc4,2020.2.10,Win32,60,,,space,0.287445,2,1,0.600085,,0,199,199,231,1,2a,3,1,19,
,,,,,,,,,,,,,,,,,,,,,,,,,,images/exp2a_trial_60_colour1_distractors31_l.png,l,1,005,001,2021-04-13_17h48.46.804,searchDisc4,2020.2.10,Win32,60,,,space,0.518105,1,1,0.701005,,0,200,200,288,1,2a,60,1,31,
,,,,,,,,,,,,,,,,,,,,,,,,,,images/exp2a_trial_39_colour1_distractors4_r.png,r,2,005,001,2021-04-13_17h48.46.804,searchDisc4,2020.2.10,Win32,60,,,space,0.392985,2,1,0.59022,,0,201,201,267,1,2a,39,1,4,
,,,,,,,,,,,,,,,,,,,,,,,,,,images/exp2a_trial_7_colour2_distractors4_r.png,r,2,005,001,2021-04-13_17h48.46.804,searchDisc4,2020.2.10,Win32,60,,,space,0.237935,2,1,0.47931,,0,202,202,235,1,2a,7,2,4,
,,,,,,,,,,,,,,,,,,,,,,,,,,images/exp1a_trial_17_colour3_distractors43_r.png,r,2,005,001,2021-04-13_17h48.46.804,searchDisc4,2020.2.10,Win32,60,,,space,0.31257,2,1,0.604265,,0,203,203,17,1,1a,17,3,43,
,,,,,,,,,,,,,,,,,,,,,,,,,,images/exp2a_trial_112_colour0_distractors0_r.png,r,2,005,001,2021-04-13_17h48.46.804,searchDisc4,2020.2.10,Win32,60,,,space,2.41975,2,1,0.455665,,0,204,204,340,1,2a,112,0,0,
,,,,,,,,,,,,,,,,,,,,,,,,,,images/exp1b_trial_25_colour2_distractors4_l.png,l,1,005,001,2021-04-13_17h48.46.804,searchDisc4,2020.2.10,Win32,60,,,space,0.260555,1,1,0.643795,,0,205,205,139,1,1b,25,2,4,
,,,,,,,,,,,,,,,,,,,,,,,,,,images/exp2a_trial_40_colour1_distractors9_r.png,r,2,005,001,2021-04-13_17h48.46.804,searchDisc4,2020.2.10,Win32,60,,,space,0.265135,2,1,0.503165,,0,206,206,268,1,2a,40,1,9,
,,,,,,,,,,,,,,,,,,,,,,,,,,images/exp1b_trial_14_colour3_distractors9_r.png,r,2,005,001,2021-04-13_17h48.46.804,searchDisc4,2020.2.10,Win32,60,,,space,0.26843,2,1,0.465465,,0,207,207,128,1,1b,14,3,9,
,,,,,,,,,,,,,,,,,,,,,,,,,,images/exp2c_trial_80_colour1_distractors31_r.png,r,2,005,001,2021-04-13_17h48.46.804,searchDisc4,2020.2.10,Win32,60,,,space,0.4866,2,1,0.61702,,0,208,208,536,1,2c,80,1,31,
,,,,,,,,,,,,,,,,,,,,,,,,,,images/exp2b_trial_96_colour1_distractors9_l.png,l,1,005,001,2021-04-13_17h48.46.804,searchDisc4,2020.2.10,Win32,60,,,space,0.24736,1,1,0.634285,,0,209,209,438,1,2b,96,1,9,
,,,,,,,,,,,,,,,,,,,,,,,,,,images/exp1a_trial_50_colour3_distractors1_r.png,r,2,005,001,2021-04-13_17h48.46.804,searchDisc4,2020.2.10,Win32,60,,,space,0.24788,2,1,0.529235,,0,210,210,50,1,1a,50,3,1,
,,,,,,,,,,,,,,,,,,,,,,,,,,images/exp2b_trial_63_colour2_distractors4_l.png,l,1,005,001,2021-04-13_17h48.46.804,searchDisc4,2020.2.10,Win32,60,,,space,0.28108,1,1,0.466565,,0,211,211,405,1,2b,63,2,4,
,,,,,,,,,,,,,,,,,,,,,,,,,,images/exp2b_trial_113_colour0_distractors0_l.png,l,1,005,001,2021-04-13_17h48.46.804,searchDisc4,2020.2.10,Win32,60,,,space,0.291605,1,1,0.437325,,0,212,212,455,1,2b,113,0,0,
,,,,,,,,,,,,,,,,,,,,,,,,,,images/exp1a_trial_80_colour1_distractors31_r.png,r,2,005,001,2021-04-13_17h48.46.804,searchDisc4,2020.2.10,Win32,60,,,space,0.344825,2,1,0.507375,,0,213,213,80,1,1a,80,1,31,
,,,,,,,,,,,,,,,,,,,,,,,,,,images/exp2a_trial_81_colour1_distractors43_r.png,r,2,005,001,2021-04-13_17h48.46.804,searchDisc4,2020.2.10,Win32,60,,,space,0.326345,2,1,0.508735,,0,214,214,309,1,2a,81,1,43,
,,,,,,,,,,,,,,,,,,,,,,,,,,images/exp1a_trial_29_colour2_distractors43_l.png,l,1,005,001,2021-04-13_17h48.46.804,searchDisc4,2020.2.10,Win32,60,,,space,0.34718,1,1,0.976095,,0,215,215,29,1,1a,29,2,43,
,,,,,,,,,,,,,,,,,,,,,,,,,,images/exp2c_trial_82_colour2_distractors1_r.png,r,2,005,001,2021-04-13_17h48.46.804,searchDisc4,2020.2.10,Win32,60,,,space,0.295435,2,1,0.523935,,0,216,216,538,1,2c,82,2,1,
,,,,,,,,,,,,,,,,,,,,,,,,,,images/exp1b_trial_31_colour3_distractors4_l.png,l,1,005,001,2021-04-13_17h48.46.804,searchDisc4,2020.2.10,Win32,60,,,space,0.35541,1,1,0.69758,,0,217,217,145,1,1b,31,3,4,
,,,,,,,,,,,,,,,,,,,,,,,,,,images/exp2a_trial_75_colour0_distractors0_l.png,l,1,005,001,2021-04-13_17h48.46.804,searchDisc4,2020.2.10,Win32,60,,,space,0.357755,1,1,0.50053,,0,218,218,303,1,2a,75,0,0,
,,,,,,,,,,,,,,,,,,,,,,,,,,images/exp1b_trial_106_colour3_distractors1_l.png,l,1,005,001,2021-04-13_17h48.46.804,searchDisc4,2020.2.10,Win32,60,,,space,0.41796,1,1,0.66531,,0,219,219,220,1,1b,106,3,1,
,,,,,,,,,,,,,,,,,,,,,,,,,,images/exp1a_trial_10_colour2_distractors31_r.png,r,2,005,001,2021-04-13_17h48.46.804,searchDisc4,2020.2.10,Win32,60,,,space,0.27996,2,1,0.61784,,0,220,220,10,1,1a,10,2,31,
,,,,,,,,,,,,,,,,,,,,,,,,,,images/exp2a_trial_42_colour1_distractors31_r.png,r,2,005,001,2021-04-13_17h48.46.804,searchDisc4,2020.2.10,Win32,60,,,space,0.204345,2,1,0.591095,,0,221,221,270,1,2a,42,1,31,
,,,,,,,,,,,,,,,,,,,,,,,,,,images/exp1a_trial_57_colour1_distractors4_l.png,l,1,005,001,2021-04-13_17h48.46.804,searchDisc4,2020.2.10,Win32,60,,,space,0.26855,1,1,0.739145,,0,222,222,57,1,1a,57,1,4,
,,,,,,,,,,,,,,,,,,,,,,,,,,images/exp2a_trial_18_colour1_distractors1_l.png,l,1,005,001,2021-04-13_17h48.46.804,searchDisc4,2020.2.10,Win32,60,,,space,0.263635,1,1,0.46461,,0,223,223,246,1,2a,18,1,1,
,,,,,,,,,,,,,,,,,,,,,,,,,,images/exp1a_trial_54_colour3_distractors31_r.png,r,2,005,001,2021-04-13_17h48.46.804,searchDisc4,2020.2.10,Win32,60,,,space,0.39627,2,1,0.46837,,0,224,224,54,1,1a,54,3,31,
,,,,,,,,,,,,,,,,,,,,,,,,,,images/exp2b_trial_92_colour3_distractors31_r.png,r,2,005,001,2021-04-13_17h48.46.804,searchDisc4,2020.2.10,Win32,60,,,space,0.34723,2,1,0.619285,,0,225,225,434,1,2b,92,3,31,
,,,,,,,,,,,,,,,,,,,,,,,,,,images/exp2b_trial_112_colour0_distractors0_r.png,r,2,005,001,2021-04-13_17h48.46.804,searchDisc4,2020.2.10,Win32,60,,,space,0.22949,2,1,0.56706,,0,226,226,454,1,2b,112,0,0,
,,,,,,,,,,,,,,,,,,,,,,,,,,images/exp1b_trial_52_colour3_distractors9_r.png,r,2,005,001,2021-04-13_17h48.46.804,searchDisc4,2020.2.10,Win32,60,,,space,0.51483,2,1,0.499125,,0,227,227,166,1,1b,52,3,9,
,,,,,,,,,,,,,,,,,,,,,,,,,,images/exp1a_trial_22_colour1_distractors31_l.png,l,1,005,001,2021-04-13_17h48.46.804,searchDisc4,2020.2.10,Win32,60,,,space,0.26682,1,1,0.71636,,0,228,228,22,1,1a,22,1,31,
,,,,,,,,,,,,,,,,,,,,,,,,,,images/exp2b_trial_54_colour3_distractors31_r.png,r,2,005,001,2021-04-13_17h48.46.804,searchDisc4,2020.2.10,Win32,60,,,space,0.547105,2,1,0.772605,,0,229,229,396,1,2b,54,3,31,
,,,,,,,,,,,,,,,,,,,,,,,,,,images/exp1a_trial_34_colour3_distractors31_l.png,l,1,005,001,2021-04-13_17h48.46.804,searchDisc4,2020.2.10,Win32,60,,,space,0.23042,1,1,0.63685,,0,230,230,34,1,1a,34,3,31,
,,,,,,,,,,,,,,,,,,,,,,,,,,images/exp2c_trial_4_colour1_distractors31_r.png,r,2,005,001,2021-04-13_17h48.46.804,searchDisc4,2020.2.10,Win32,60,,,space,0.23805,2,1,0.521995,,0,231,231,460,1,2c,4,1,31,
,,,,,,,,,,,,,,,,,,,,,,,,,,images/exp1b_trial_10_colour2_distractors31_r.png,r,2,005,001,2021-04-13_17h48.46.804,searchDisc4,2020.2.10,Win32,60,,,space,0.41925,2,1,0.655445,,0,232,232,124,1,1b,10,2,31,
,,,,,,,,,,,,,,,,,,,,,,,,,,images/exp2b_trial_42_colour1_distractors31_r.png,r,2,005,001,2021-04-13_17h48.46.804,searchDisc4,2020.2.10,Win32,60,,,space,0.260805,2,1,0.645645,,0,233,233,384,1,2b,42,1,31,
,,,,,,,,,,,,,,,,,,,,,,,,,,images/exp2c_trial_79_colour1_distractors19_r.png,r,2,005,001,2021-04-13_17h48.46.804,searchDisc4,2020.2.10,Win32,60,,,space,0.194375,2,1,0.491215,,0,234,234,535,1,2c,79,1,19,
,,,,,,,,,,,,,,,,,,,,,,,,,,images/exp1a_trial_7_colour2_distractors4_r.png,r,2,005,001,2021-04-13_17h48.46.804,searchDisc4,2020.2.10,Win32,60,,,space,0.295265,2,1,0.788095,,0,235,235,7,1,1a,7,2,4,
,,,,,,,,,,,,,,,,,,,,,,,,,,images/exp1b_trial_17_colour3_distractors43_r.png,r,2,005,001,2021-04-13_17h48.46.804,searchDisc4,2020.2.10,Win32,60,,,space,0.508195,2,1,1.221875,,0,236,236,131,1,1b,17,3,43,
,,,,,,,,,,,,,,,,,,,,,,,,,,images/exp1a_trial_105_colour2_distractors43_l.png,l,1,005,001,2021-04-13_17h48.46.804,searchDisc4,2020.2.10,Win32,60,,,space,0.523855,1,1,0.6735,,0,237,237,105,1,1a,105,2,43,
,,,,,,,,,,,,,,,,,,,,,,,,,,images/exp2a_trial_103_colour2_distractors19_l.png,l,1,005,001,2021-04-13_17h48.46.804,searchDisc4,2020.2.10,Win32,60,,,space,0.303095,1,1,0.54086,,0,238,238,331,1,2a,103,2,19,
,,,,,,,,,,,,,,,,,,,,,,,,,,images/exp2a_trial_102_colour2_distractors9_l.png,l,1,005,001,2021-04-13_17h48.46.804,searchDisc4,2020.2.10,Win32,60,,,space,0.411685,1,1,0.523095,space,0,239,239,330,1,2a,102,2,9,13.61807
,,,,,,,,,,,,,,,,,,,,,,,,,,images/exp2a_trial_31_colour3_distractors4_l.png,l,1,005,001,2021-04-13_17h48.46.804,searchDisc4,2020.2.10,Win32,60,,,space,0.70437,1,1,0.456395,,0,240,240,259,1,2a,31,3,4,
,,,,,,,,,,,,,,,,,,,,,,,,,,images/exp2a_trial_87_colour2_distractors43_r.png,r,2,005,001,2021-04-13_17h48.46.804,searchDisc4,2020.2.10,Win32,60,,,space,0.40249,2,1,0.494585,,0,241,241,315,1,2a,87,2,43,
,,,,,,,,,,,,,,,,,,,,,,,,,,images/exp1a_trial_59_colour1_distractors19_l.png,l,1,005,001,2021-04-13_17h48.46.804,searchDisc4,2020.2.10,Win32,60,,,space,0.33813,1,1,0.50848,,0,242,242,59,1,1a,59,1,19,
,,,,,,,,,,,,,,,,,,,,,,,,,,images/exp1a_trial_72_colour3_distractors31_l.png,l,1,005,001,2021-04-13_17h48.46.804,searchDisc4,2020.2.10,Win32,60,,,space,0.32901,1,1,0.45694,,0,243,243,72,1,1a,72,3,31,
,,,,,,,,,,,,,,,,,,,,,,,,,,images/exp2c_trial_35_colour3_distractors43_l.png,l,1,005,001,2021-04-13_17h48.46.804,searchDisc4,2020.2.10,Win32,60,,,space,0.34716,1,1,0.502055,,0,244,244,491,1,2c,35,3,43,
,,,,,,,,,,,,,,,,,,,,,,,,,,images/exp2b_trial_33_colour3_distractors19_l.png,l,1,005,001,2021-04-13_17h48.46.804,searchDisc4,2020.2.10,Win32,60,,,space,0.34352,1,1,0.47546,,0,245,245,375,1,2b,33,3,19,
,,,,,,,,,,,,,,,,,,,,,,,,,,images/exp2a_trial_107_colour3_distractors4_l.png,l,1,005,001,2021-04-13_17h48.46.804,searchDisc4,2020.2.10,Win32,60,,,space,0.51585,1,1,0.43051,,0,246,246,335,1,2a,107,3,4,
,,,,,,,,,,,,,,,,,,,,,,,,,,images/exp2b_trial_21_colour1_distractors19_l.png,l,1,005,001,2021-04-13_17h48.46.804,searchDisc4,2020.2.10,Win32,60,,,space,0.31265,1,1,0.53309,,0,247,247,363,1,2b,21,1,19,
,,,,,,,,,,,,,,,,,,,,,,,,,,images/exp2b_trial_32_colour3_distractors9_l.png,l,1,005,001,2021-04-13_17h48.46.804,searchDisc4,2020.2.10,Win32,60,,,space,0.35774,1,1,0.50809,,0,248,248,374,1,2b,32,3,9,
,,,,,,,,,,,,,,,,,,,,,,,,,,images/exp1b_trial_20_colour1_distractors9_l.png,l,1,005,001,2021-04-13_17h48.46.804,searchDisc4,2020.2.10,Win32,60,,,space,0.352255,1,1,0.551765,,0,249,249,134,1,1b,20,1,9,
,,,,,,,,,,,,,,,,,,,,,,,,,,images/exp2b_trial_91_colour3_distractors19_r.png,r,2,005,001,2021-04-13_17h48.46.804,searchDisc4,2020.2.10,Win32,60,,,space,0.402925,2,1,0.52441,,0,250,250,433,1,2b,91,3,19,
,,,,,,,,,,,,,,,,,,,,,,,,,,images/exp2c_trial_31_colour3_distractors4_l.png,l,1,005,001,2021-04-13_17h48.46.804,searchDisc4,2020.2.10,Win32,60,,,space,0.254065,1,1,0.53673,,0,251,251,487,1,2c,31,3,4,
,,,,,,,,,,,,,,,,,,,,,,,,,,images/exp2a_trial_76_colour1_distractors1_r.png,r,2,005,001,2021-04-13_17h48.46.804,searchDisc4,2020.2.10,Win32,60,,,space,0.259725,2,1,0.523785,,0,252,252,304,1,2a,76,1,1,
,,,,,,,,,,,,,,,,,,,,,,,,,,images/exp2a_trial_94_colour1_distractors1_l.png,l,1,005,001,2021-04-13_17h48.46.804,searchDisc4,2020.2.10,Win32,60,,,space,0.28101,1,1,0.521865,,0,253,253,322,1,2a,94,1,1,
,,,,,,,,,,,,,,,,,,,,,,,,,,images/exp2b_trial_28_colour2_distractors31_l.png,l,1,005,001,2021-04-13_17h48.46.804,searchDisc4,2020.2.10,Win32,60,,,space,0.36255,1,1,0.495875,,0,254,254,370,1,2b,28,2,31,
,,,,,,,,,,,,,,,,,,,,,,,,,,images/exp1a_trial_38_colour1_distractors1_r.png,r,2,005,001,2021-04-13_17h48.46.804,searchDisc4,2020.2.10,Win32,60,,,space,0.40096,2,1,0.547775,,0,255,255,38,1,1a,38,1,1,
,,,,,,,,,,,,,,,,,,,,,,,,,,images/exp1a_trial_109_colour3_distractors19_l.png,l,1,005,001,2021-04-13_17h48.46.804,searchDisc4,2020.2.10,Win32,60,,,space,0.29743,1,1,0.525665,,0,256,256,109,1,1a,109,3,19,
,,,,,,,,,,,,,,,,,,,,,,,,,,images/exp1a_trial_69_colour3_distractors4_l.png,l,1,005,001,2021-04-13_17h48.46.804,searchDisc4,2020.2.10,Win32,60,,,space,0.45377,1,1,0.45606,,0,257,257,69,1,1a,69,3,4,
,,,,,,,,,,,,,,,,,,,,,,,,,,images/exp1a_trial_83_colour2_distractors4_r.png,r,2,005,001,2021-04-13_17h48.46.804,searchDisc4,2020.2.10,Win32,60,,,space,0.36427,2,1,0.572955,,0,258,258,83,1,1a,83,2,4,
,,,,,,,,,,,,,,,,,,,,,,,,,,images/exp1b_trial_46_colour2_distractors9_r.png,r,2,005,001,2021-04-13_17h48.46.804,searchDisc4,2020.2.10,Win32,60,,,space,0.26113,2,1,0.48866,,0,259,259,160,1,1b,46,2,9,
,,,,,,,,,,,,,,,,,,,,,,,,,,images/exp2b_trial_90_colour3_distractors9_r.png,r,2,005,001,2021-04-13_17h48.46.804,searchDisc4,2020.2.10,Win32,60,,,space,0.239155,2,1,0.48122,,0,260,260,432,1,2b,90,3,9,
,,,,,,,,,,,,,,,,,,,,,,,,,,images/exp1b_trial_91_colour3_distractors19_r.png,r,2,005,001,2021-04-13_17h48.46.804,searchDisc4,2020.2.10,Win32,60,,,space,0.299845,2,1,1.324965,,0,261,261,205,1,1b,91,3,19,
,,,,,,,,,,,,,,,,,,,,,,,,,,images/exp2a_trial_86_colour2_distractors31_r.png,r,2,005,001,2021-04-13_17h48.46.804,searchDisc4,2020.2.10,Win32,60,,,space,0.296835,2,1,0.411395,,0,262,262,314,1,2a,86,2,31,
,,,,,,,,,,,,,,,,,,,,,,,,,,images/exp1b_trial_86_colour2_distractors31_r.png,r,2,005,001,2021-04-13_17h48.46.804,searchDisc4,2020.2.10,Win32,60,,,space,0.32701,2,1,0.987285,,0,263,263,200,1,1b,86,2,31,
,,,,,,,,,,,,,,,,,,,,,,,,,,images/exp2c_trial_70_colour3_distractors9_l.png,l,1,005,001,2021-04-13_17h48.46.804,searchDisc4,2020.2.10,Win32,60,,,space,0.33137,1,1,0.57149,,0,264,264,526,1,2c,70,3,9,
,,,,,,,,,,,,,,,,,,,,,,,,,,images/exp2b_trial_107_colour3_distractors4_l.png,l,1,005,001,2021-04-13_17h48.46.804,searchDisc4,2020.2.10,Win32,60,,,space,0.298525,1,1,0.45053,,0,265,265,449,1,2b,107,3,4,
,,,,,,,,,,,,,,,,,,,,,,,,,,images/exp2a_trial_98_colour1_distractors31_l.png,l,1,005,001,2021-04-13_17h48.46.804,searchDisc4,2020.2.10,Win32,60,,,space,0.33478,1,1,0.545345,,0,266,266,326,1,2a,98,1,31,
,,,,,,,,,,,,,,,,,,,,,,,,,,images/exp1b_trial_27_colour2_distractors19_l.png,l,1,005,001,2021-04-13_17h48.46.804,searchDisc4,2020.2.10,Win32,60,,,space,0.473855,1,1,0.497545,,0,267,267,141,1,1b,27,2,19,
,,,,,,,,,,,,,,,,,,,,,,,,,,images/exp2a_trial_73_colour3_distractors43_l.png,l,1,005,001,2021-04-13_17h48.46.804,searchDisc4,2020.2.10,Win32,60,,,space,0.29619,1,1,0.531765,,0,268,268,301,1,2a,73,3,43,
,,,,,,,,,,,,,,,,,,,,,,,,,,images/exp1b_trial_78_colour1_distractors9_r.png,r,2,005,001,2021-04-13_17h48.46.804,searchDisc4,2020.2.10,Win32,60,,,space,0.439615,2,1,0.57849,,0,269,269,192,1,1b,78,1,9,
,,,,,,,,,,,,,,,,,,,,,,,,,,images/exp2b_trial_45_colour2_distractors4_r.png,r,2,005,001,2021-04-13_17h48.46.804,searchDisc4,2020.2.10,Win32,60,,,space,0.298715,2,1,0.4896,,0,270,270,387,1,2b,45,2,4,
,,,,,,,,,,,,,,,,,,,,,,,,,,images/exp1a_trial_90_colour3_distractors9_r.png,r,2,005,001,2021-04-13_17h48.46.804,searchDisc4,2020.2.10,Win32,60,,,space,0.344435,2,1,0.489095,,0,271,271,90,1,1a,90,3,9,
,,,,,,,,,,,,,,,,,,,,,,,,,,images/exp2b_trial_18_colour1_distractors1_l.png,l,1,005,001,2021-04-13_17h48.46.804,searchDisc4,2020.2.10,Win32,60,,,space,0.486575,2,0,0.40558,,0,272,272,360,1,2b,18,1,1,
,,,,,,,,,,,,,,,,,,,,,,,,,,images/exp1b_trial_75_colour0_distractors0_l.png,l,1,005,001,2021-04-13_17h48.46.804,searchDisc4,2020.2.10,Win32,60,,,space,1.103745,1,1,0.600325,,0,273,273,189,1,1b,75,0,0,
,,,,,,,,,,,,,,,,,,,,,,,,,,images/exp2b_trial_73_colour3_distractors43_l.png,l,1,005,001,2021-04-13_17h48.46.804,searchDisc4,2020.2.10,Win32,60,,,space,0.333,1,1,0.67361,,0,274,274,415,1,2b,73,3,43,
,,,,,,,,,,,,,,,,,,,,,,,,,,images/exp2b_trial_98_colour1_distractors31_l.png,l,1,005,001,2021-04-13_17h48.46.804,searchDisc4,2020.2.10,Win32,60,,,space,0.286545,1,1,0.51341,,0,275,275,440,1,2b,98,1,31,
,,,,,,,,,,,,,,,,,,,,,,,,,,images/exp1b_trial_63_colour2_distractors4_l.png,l,1,005,001,2021-04-13_17h48.46.804,searchDisc4,2020.2.10,Win32,60,,,space,0.401285,1,1,0.6897,,0,276,276,177,1,1b,63,2,4,
,,,,,,,,,,,,,,,,,,,,,,,,,,images/exp2c_trial_69_colour3_distractors4_l.png,l,1,005,001,2021-04-13_17h48.46.804,searchDisc4,2020.2.10,Win32,60,,,space,0.316385,1,1,0.383345,,0,277,277,525,1,2c,69,3,4,
,,,,,,,,,,,,,,,,,,,,,,,,,,images/exp2c_trial_28_colour2_distractors31_l.png,l,1,005,001,2021-04-13_17h48.46.804,searchDisc4,2020.2.10,Win32,60,,,space,0.361625,1,1,0.53108,,0,278,278,484,1,2c,28,2,31,
,,,,,,,,,,,,,,,,,,,,,,,,,,images/exp2b_trial_101_colour2_distractors4_l.png,l,1,005,001,2021-04-13_17h48.46.804,searchDisc4,2020.2.10,Win32,60,,,space,0.36631,1,1,0.386775,,0,279,279,443,1,2b,101,2,4,
,,,,,,,,,,,,,,,,,,,,,,,,,,images/exp1b_trial_105_colour2_distractors43_l.png,l,1,005,001,2021-04-13_17h48.46.804,searchDisc4,2020.2.10,Win32,60,,,space,0.36527,1,1,0.52945,,0,280,280,219,1,1b,105,2,43,
,,,,,,,,,,,,,,,,,,,,,,,,,,images/exp2b_trial_17_colour3_distractors43_r.png,r,2,005,001,2021-04-13_17h48.46.804,searchDisc4,2020.2.10,Win32,60,,,space,0.36106,2,1,0.635895,,0,281,281,359,1,2b,17,3,43,
,,,,,,,,,,,,,,,,,,,,,,,,,,images/exp2c_trial_78_colour1_distractors9_r.png,r,2,005,001,2021-04-13_17h48.46.804,searchDisc4,2020.2.10,Win32,60,,,space,0.2195,2,1,0.581085,,0,282,282,534,1,2c,78,1,9,
,,,,,,,,,,,,,,,,,,,,,,,,,,images/exp1b_trial_69_colour3_distractors4_l.png,l,1,005,001,2021-04-13_17h48.46.804,searchDisc4,2020.2.10,Win32,60,,,space,0.25036,1,1,0.492785,,0,283,283,183,1,1b,69,3,4,
,,,,,,,,,,,,,,,,,,,,,,,,,,images/exp2b_trial_100_colour2_distractors1_l.png,l,1,005,001,2021-04-13_17h48.46.804,searchDisc4,2020.2.10,Win32,60,,,space,0.360045,1,1,0.5047,,0,284,284,442,1,2b,100,2,1,
,,,,,,,,,,,,,,,,,,,,,,,,,,images/exp1a_trial_35_colour3_distractors43_l.png,l,1,005,001,2021-04-13_17h48.46.804,searchDisc4,2020.2.10,Win32,60,,,space,0.333505,1,1,0.492105,,0,285,285,35,1,1a,35,3,43,
,,,,,,,,,,,,,,,,,,,,,,,,,,images/exp1b_trial_54_colour3_distractors31_r.png,r,2,005,001,2021-04-13_17h48.46.804,searchDisc4,2020.2.10,Win32,60,,,space,0.3318,2,1,0.692095,,0,286,286,168,1,1b,54,3,31,
,,,,,,,,,,,,,,,,,,,,,,,,,,images/exp2b_trial_44_colour2_distractors1_r.png,r,2,005,001,2021-04-13_17h48.46.804,searchDisc4,2020.2.10,Win32,60,,,space,0.267515,2,1,0.460385,,0,287,287,386,1,2b,44,2,1,
,,,,,,,,,,,,,,,,,,,,,,,,,,images/exp1a_trial_60_colour1_distractors31_l.png,l,1,005,001,2021-04-13_17h48.46.804,searchDisc4,2020.2.10,Win32,60,,,space,0.354985,1,1,0.533375,,0,288,288,60,1,1a,60,1,31,
,,,,,,,,,,,,,,,,,,,,,,,,,,images/exp2b_trial_37_colour0_distractors0_l.png,l,1,005,001,2021-04-13_17h48.46.804,searchDisc4,2020.2.10,Win32,60,,,space,0.34384,1,1,0.39922,,0,289,289,379,1,2b,37,0,0,
,,,,,,,,,,,,,,,,,,,,,,,,,,images/exp1a_trial_55_colour3_distractors43_r.png,r,2,005,001,2021-04-13_17h48.46.804,searchDisc4,2020.2.10,Win32,60,,,space,0.37478,1,0,0.420875,,0,290,290,55,1,1a,55,3,43,
,,,,,,,,,,,,,,,,,,,,,,,,,,images/exp1a_trial_33_colour3_distractors19_l.png,l,1,005,001,2021-04-13_17h48.46.804,searchDisc4,2020.2.10,Win32,60,,,space,0.483315,1,1,0.55693,,0,291,291,33,1,1a,33,3,19,
,,,,,,,,,,,,,,,,,,,,,,,,,,images/exp2c_trial_62_colour2_distractors1_l.png,l,1,005,001,2021-04-13_17h48.46.804,searchDisc4,2020.2.10,Win32,60,,,space,0.34006,1,1,0.54381,,0,292,292,518,1,2c,62,2,1,
,,,,,,,,,,,,,,,,,,,,,,,,,,images/exp1a_trial_88_colour3_distractors1_r.png,r,2,005,001,2021-04-13_17h48.46.804,searchDisc4,2020.2.10,Win32,60,,,space,0.367965,1,0,0.37025,,0,293,293,88,1,1a,88,3,1,
,,,,,,,,,,,,,,,,,,,,,,,,,,images/exp1b_trial_85_colour2_distractors19_r.png,r,2,005,001,2021-04-13_17h48.46.804,searchDisc4,2020.2.10,Win32,60,,,space,0.46215,2,1,0.665225,,0,294,294,199,1,1b,85,2,19,
,,,,,,,,,,,,,,,,,,,,,,,,,,images/exp1a_trial_108_colour3_distractors9_l.png,l,1,005,001,2021-04-13_17h48.46.804,searchDisc4,2020.2.10,Win32,60,,,space,0.28297,1,1,0.590815,,0,295,295,108,1,1a,108,3,9,
,,,,,,,,,,,,,,,,,,,,,,,,,,images/exp2a_trial_72_colour3_distractors31_l.png,l,1,005,001,2021-04-13_17h48.46.804,searchDisc4,2020.2.10,Win32,60,,,space,0.26738,1,1,0.53001,,0,296,296,300,1,2a,72,3,31,
,,,,,,,,,,,,,,,,,,,,,,,,,,images/exp1b_trial_44_colour2_distractors1_r.png,r,2,005,001,2021-04-13_17h48.46.804,searchDisc4,2020.2.10,Win32,60,,,space,0.31863,2,1,0.424825,,0,297,297,158,1,1b,44,2,1,
,,,,,,,,,,,,,,,,,,,,,,,,,,images/exp2b_trial_0_colour1_distractors1_r.png,r,2,005,001,2021-04-13_17h48.46.804,searchDisc4,2020.2.10,Win32,60,,,space,0.31513,2,1,0.669425,,0,298,298,342,1,2b,0,1,1,
,,,,,,,,,,,,,,,,,,,,,,,,,,images/exp1b_trial_84_colour2_distractors9_r.png,r,2,005,001,2021-04-13_17h48.46.804,searchDisc4,2020.2.10,Win32,60,,,space,0.2678,2,1,0.607935,space,0,299,299,198,1,1b,84,2,9,0.232255
,,,,,,,,,,,,,,,,,,,,,,,,,,images/exp2a_trial_53_colour3_distractors19_r.png,r,2,005,001,2021-04-13_17h48.46.804,searchDisc4,2020.2.10,Win32,60,,,space,0.70039,2,1,0.58903,,0,300,300,281,1,2a,53,3,19,
,,,,,,,,,,,,,,,,,,,,,,,,,,images/exp1b_trial_62_colour2_distractors1_l.png,l,1,005,001,2021-04-13_17h48.46.804,searchDisc4,2020.2.10,Win32,60,,,space,0.297545,1,1,0.707555,,0,301,301,176,1,1b,62,2,1,
,,,,,,,,,,,,,,,,,,,,,,,,,,images/exp2a_trial_16_colour3_distractors31_r.png,r,2,005,001,2021-04-13_17h48.46.804,searchDisc4,2020.2.10,Win32,60,,,space,0.31235,2,1,0.74992,,0,302,302,244,1,2a,16,3,31,
,,,,,,,,,,,,,,,,,,,,,,,,,,images/exp2c_trial_22_colour1_distractors31_l.png,l,1,005,001,2021-04-13_17h48.46.804,searchDisc4,2020.2.10,Win32,60,,,space,0.25345,1,1,0.615825,,0,303,303,478,1,2c,22,1,31,
,,,,,,,,,,,,,,,,,,,,,,,,,,images/exp1a_trial_63_colour2_distractors4_l.png,l,1,005,001,2021-04-13_17h48.46.804,searchDisc4,2020.2.10,Win32,60,,,space,0.230735,1,1,0.83141,,0,304,304,63,1,1a,63,2,4,
,,,,,,,,,,,,,,,,,,,,,,,,,,images/exp2a_trial_58_colour1_distractors9_l.png,l,1,005,001,2021-04-13_17h48.46.804,searchDisc4,2020.2.10,Win32,60,,,space,0.227485,1,1,0.659515,,0,305,305,286,1,2a,58,1,9,
,,,,,,,,,,,,,,,,,,,,,,,,,,images/exp2c_trial_51_colour3_distractors4_r.png,r,2,005,001,2021-04-13_17h48.46.804,searchDisc4,2020.2.10,Win32,60,,,space,0.31767,2,1,0.541995,,0,306,306,507,1,2c,51,3,4,
,,,,,,,,,,,,,,,,,,,,,,,,,,images/exp2b_trial_53_colour3_distractors19_r.png,r,2,005,001,2021-04-13_17h48.46.804,searchDisc4,2020.2.10,Win32,60,,,space,0.268315,2,1,0.658215,,0,307,307,395,1,2b,53,3,19,
,,,,,,,,,,,,,,,,,,,,,,,,,,images/exp1a_trial_107_colour3_distractors4_l.png,l,1,005,001,2021-04-13_17h48.46.804,searchDisc4,2020.2.10,Win32,60,,,space,0.974255,1,1,0.72477,,0,308,308,107,1,1a,107,3,4,
,,,,,,,,,,,,,,,,,,,,,,,,,,images/exp2b_trial_106_colour3_distractors1_l.png,l,1,005,001,2021-04-13_17h48.46.804,searchDisc4,2020.2.10,Win32,60,,,space,0.42738,1,1,0.6085,,0,309,309,448,1,2b,106,3,1,
,,,,,,,,,,,,,,,,,,,,,,,,,,images/exp1a_trial_42_colour1_distractors31_r.png,r,2,005,001,2021-04-13_17h48.46.804,searchDisc4,2020.2.10,Win32,60,,,space,0.44762,2,1,0.54767,,0,310,310,42,1,1a,42,1,31,
,,,,,,,,,,,,,,,,,,,,,,,,,,images/exp2a_trial_80_colour1_distractors31_r.png,r,2,005,001,2021-04-13_17h48.46.804,searchDisc4,2020.2.10,Win32,60,,,space,0.2778,2,1,0.58813,,0,311,311,308,1,2a,80,1,31,
,,,,,,,,,,,,,,,,,,,,,,,,,,images/exp2c_trial_81_colour1_distractors43_r.png,r,2,005,001,2021-04-13_17h48.46.804,searchDisc4,2020.2.10,Win32,60,,,space,0.27435,2,1,0.40353,,0,312,312,537,1,2c,81,1,43,
,,,,,,,,,,,,,,,,,,,,,,,,,,images/exp2b_trial_27_colour2_distractors19_l.png,l,1,005,001,2021-04-13_17h48.46.804,searchDisc4,2020.2.10,Win32,60,,,space,0.353355,1,1,0.545165,,0,313,313,369,1,2b,27,2,19,
,,,,,,,,,,,,,,,,,,,,,,,,,,images/exp2a_trial_61_colour1_distractors43_l.png,l,1,005,001,2021-04-13_17h48.46.804,searchDisc4,2020.2.10,Win32,60,,,space,0.302115,1,1,0.61973,,0,314,314,289,1,2a,61,1,43,
,,,,,,,,,,,,,,,,,,,,,,,,,,images/exp2a_trial_88_colour3_distractors1_r.png,r,2,005,001,2021-04-13_17h48.46.804,searchDisc4,2020.2.10,Win32,60,,,space,0.307175,2,1,0.66641,,0,315,315,316,1,2a,88,3,1,
,,,,,,,,,,,,,,,,,,,,,,,,,,images/exp2c_trial_16_colour3_distractors31_r.png,r,2,005,001,2021-04-13_17h48.46.804,searchDisc4,2020.2.10,Win32,60,,,space,0.239865,2,1,0.507215,,0,316,316,472,1,2c,16,3,31,
,,,,,,,,,,,,,,,,,,,,,,,,,,images/exp1a_trial_98_colour1_distractors31_l.png,l,1,005,001,2021-04-13_17h48.46.804,searchDisc4,2020.2.10,Win32,60,,,space,0.345285,1,1,0.534095,,0,317,317,98,1,1a,98,1,31,
,,,,,,,,,,,,,,,,,,,,,,,,,,images/exp2b_trial_38_colour1_distractors1_r.png,r,2,005,001,2021-04-13_17h48.46.804,searchDisc4,2020.2.10,Win32,60,,,space,0.3954,2,1,0.386815,,0,318,318,380,1,2b,38,1,1,
,,,,,,,,,,,,,,,,,,,,,,,,,,images/exp1b_trial_1_colour1_distractors4_r.png,r,2,005,001,2021-04-13_17h48.46.804,searchDisc4,2020.2.10,Win32,60,,,space,0.42229,2,1,0.67738,,0,319,319,115,1,1b,1,1,4,
,,,,,,,,,,,,,,,,,,,,,,,,,,images/exp2c_trial_74_colour0_distractors0_r.png,r,2,005,001,2021-04-13_17h48.46.804,searchDisc4,2020.2.10,Win32,60,,,space,0.32266,2,1,0.381325,,0,320,320,530,1,2c,74,0,0,
,,,,,,,,,,,,,,,,,,,,,,,,,,images/exp2a_trial_43_colour1_distractors43_r.png,r,2,005,001,2021-04-13_17h48.46.804,searchDisc4,2020.2.10,Win32,60,,,space,0.369855,2,1,0.491625,,0,321,321,271,1,2a,43,1,43,
,,,,,,,,,,,,,,,,,,,,,,,,,,images/exp1b_trial_61_colour1_distractors43_l.png,l,1,005,001,2021-04-13_17h48.46.804,searchDisc4,2020.2.10,Win32,60,,,space,0.33031,1,1,0.543165,,0,322,322,175,1,1b,61,1,43,
,,,,,,,,,,,,,,,,,,,,,,,,,,images/exp1b_trial_34_colour3_distractors31_l.png,l,1,005,001,2021-04-13_17h48.46.804,searchDisc4,2020.2.10,Win32,60,,,space,0.37746,1,1,0.6868,,0,323,323,148,1,1b,34,3,31,
,,,,,,,,,,,,,,,,,,,,,,,,,,images/exp2b_trial_62_colour2_distractors1_l.png,l,1,005,001,2021-04-13_17h48.46.804,searchDisc4,2020.2.10,Win32,60,,,space,0.363455,1,1,0.49691,,0,324,324,404,1,2b,62,2,1,
,,,,,,,,,,,,,,,,,,,,,,,,,,images/exp1b_trial_26_colour2_distractors9_l.png,l,1,005,001,2021-04-13_17h48.46.804,searchDisc4,2020.2.10,Win32,60,,,space,0.351365,1,1,0.42231,,0,325,325,140,1,1b,26,2,9,
,,,,,,,,,,,,,,,,,,,,,,,,,,images/exp2b_trial_52_colour3_distractors9_r.png,r,2,005,001,2021-04-13_17h48.46.804,searchDisc4,2020.2.10,Win32,60,,,space,0.384615,2,1,0.45103,,0,326,326,394,1,2b,52,3,9,
,,,,,,,,,,,,,,,,,,,,,,,,,,images/exp1b_trial_66_colour2_distractors31_l.png,l,1,005,001,2021-04-13_17h48.46.804,searchDisc4,2020.2.10,Win32,60,,,space,0.30839,1,1,0.777455,,0,327,327,180,1,1b,66,2,31,
,,,,,,,,,,,,,,,,,,,,,,,,,,images/exp2c_trial_46_colour2_distractors9_r.png,r,2,005,001,2021-04-13_17h48.46.804,searchDisc4,2020.2.10,Win32,60,,,space,0.327835,2,1,0.540245,,0,328,328,502,1,2c,46,2,9,
,,,,,,,,,,,,,,,,,,,,,,,,,,images/exp2b_trial_61_colour1_distractors43_l.png,l,1,005,001,2021-04-13_17h48.46.804,searchDisc4,2020.2.10,Win32,60,,,space,0.304925,1,1,0.624945,,0,329,329,403,1,2b,61,1,43,
,,,,,,,,,,,,,,,,,,,,,,,,,,images/exp1b_trial_65_colour2_distractors19_l.png,l,1,005,001,2021-04-13_17h48.46.804,searchDisc4,2020.2.10,Win32,60,,,space,0.263975,1,1,0.619315,,0,330,330,179,1,1b,65,2,19,
,,,,,,,,,,,,,,,,,,,,,,,,,,images/exp2a_trial_25_colour2_distractors4_l.png,l,1,005,001,2021-04-13_17h48.46.804,searchDisc4,2020.2.10,Win32,60,,,space,0.26153,1,1,0.494995,,0,331,331,253,1,2a,25,2,4,
,,,,,,,,,,,,,,,,,,,,,,,,,,images/exp2b_trial_71_colour3_distractors19_l.png,l,1,005,001,2021-04-13_17h48.46.804,searchDisc4,2020.2.10,Win32,60,,,space,0.335625,1,1,0.486065,,0,332,332,413,1,2b,71,3,19,
,,,,,,,,,,,,,,,,,,,,,,,,,,images/exp2c_trial_37_colour0_distractors0_l.png,l,1,005,001,2021-04-13_17h48.46.804,searchDisc4,2020.2.10,Win32,60,,,space,0.35474,1,1,0.3205,,0,333,333,493,1,2c,37,0,0,
,,,,,,,,,,,,,,,,,,,,,,,,,,images/exp2a_trial_35_colour3_distractors43_l.png,l,1,005,001,2021-04-13_17h48.46.804,searchDisc4,2020.2.10,Win32,60,,,space,0.41513,1,1,0.4665,,0,334,334,263,1,2a,35,3,43,
,,,,,,,,,,,,,,,,,,,,,,,,,,images/exp2a_trial_64_colour2_distractors9_l.png,l,1,005,001,2021-04-13_17h48.46.804,searchDisc4,2020.2.10,Win32,60,,,space,0.311985,1,1,0.56627,,0,335,335,292,1,2a,64,2,9,
,,,,,,,,,,,,,,,,,,,,,,,,,,images/exp1b_trial_32_colour3_distractors9_l.png,l,1,005,001,2021-04-13_17h48.46.804,searchDisc4,2020.2.10,Win32,60,,,space,0.265915,1,1,1.27011,,0,336,336,146,1,1b,32,3,9,
,,,,,,,,,,,,,,,,,,,,,,,,,,images/exp2c_trial_19_colour1_distractors4_l.png,l,1,005,001,2021-04-13_17h48.46.804,searchDisc4,2020.2.10,Win32,60,,,space,0.26126,1,1,0.596255,,0,337,337,475,1,2c,19,1,4,
,,,,,,,,,,,,,,,,,,,,,,,,,,images/exp2c_trial_36_colour0_distractors0_r.png,r,2,005,001,2021-04-13_17h48.46.804,searchDisc4,2020.2.10,Win32,60,,,space,0.257405,2,1,0.576695,,0,338,338,492,1,2c,36,0,0,
,,,,,,,,,,,,,,,,,,,,,,,,,,images/exp2a_trial_54_colour3_distractors31_r.png,r,2,005,001,2021-04-13_17h48.46.804,searchDisc4,2020.2.10,Win32,60,,,space,0.245675,2,1,0.53553,,0,339,339,282,1,2a,54,3,31,
,,,,,,,,,,,,,,,,,,,,,,,,,,images/exp1b_trial_43_colour1_distractors43_r.png,r,2,005,001,2021-04-13_17h48.46.804,searchDisc4,2020.2.10,Win32,60,,,space,0.212185,2,1,0.791235,,0,340,340,157,1,1b,43,1,43,
,,,,,,,,,,,,,,,,,,,,,,,,,,images/exp2b_trial_12_colour3_distractors1_r.png,r,2,005,001,2021-04-13_17h48.46.804,searchDisc4,2020.2.10,Win32,60,,,space,0.28249,2,1,0.65452,,0,341,341,354,1,2b,12,3,1,
,,,,,,,,,,,,,,,,,,,,,,,,,,images/exp2a_trial_17_colour3_distractors43_r.png,r,2,005,001,2021-04-13_17h48.46.804,searchDisc4,2020.2.10,Win32,60,,,space,0.237905,2,1,0.55902,,0,342,342,245,1,2a,17,3,43,
,,,,,,,,,,,,,,,,,,,,,,,,,,images/exp2c_trial_73_colour3_distractors43_l.png,l,1,005,001,2021-04-13_17h48.46.804,searchDisc4,2020.2.10,Win32,60,,,space,0.27775,1,1,0.63352,,0,343,343,529,1,2c,73,3,43,
,,,,,,,,,,,,,,,,,,,,,,,,,,images/exp2b_trial_75_colour0_distractors0_l.png,l,1,005,001,2021-04-13_17h48.46.804,searchDisc4,2020.2.10,Win32,60,,,space,0.20382,1,1,0.69955,,0,344,344,417,1,2b,75,0,0,
,,,,,,,,,,,,,,,,,,,,,,,,,,images/exp1b_trial_42_colour1_distractors31_r.png,r,2,005,001,2021-04-13_17h48.46.804,searchDisc4,2020.2.10,Win32,60,,,space,0.19881,2,1,0.55879,,0,345,345,156,1,1b,42,1,31,
,,,,,,,,,,,,,,,,,,,,,,,,,,images/exp1b_trial_87_colour2_distractors43_r.png,r,2,005,001,2021-04-13_17h48.46.804,searchDisc4,2020.2.10,Win32,60,,,space,0.37845,2,1,0.965135,,0,346,346,201,1,1b,87,2,43,
,,,,,,,,,,,,,,,,,,,,,,,,,,images/exp2c_trial_71_colour3_distractors19_l.png,l,1,005,001,2021-04-13_17h48.46.804,searchDisc4,2020.2.10,Win32,60,,,space,0.330485,1,1,0.46807,,0,347,347,527,1,2c,71,3,19,
,,,,,,,,,,,,,,,,,,,,,,,,,,images/exp2a_trial_12_colour3_distractors1_r.png,r,2,005,001,2021-04-13_17h48.46.804,searchDisc4,2020.2.10,Win32,60,,,space,0.299155,2,1,0.388325,,0,348,348,240,1,2a,12,3,1,
,,,,,,,,,,,,,,,,,,,,,,,,,,images/exp1b_trial_77_colour1_distractors4_r.png,r,2,005,001,2021-04-13_17h48.46.804,searchDisc4,2020.2.10,Win32,60,,,space,0.36546,2,1,0.69476,,0,349,349,191,1,1b,77,1,4,
,,,,,,,,,,,,,,,,,,,,,,,,,,images/exp2c_trial_92_colour3_distractors31_r.png,r,2,005,001,2021-04-13_17h48.46.804,searchDisc4,2020.2.10,Win32,60,,,space,0.334435,1,0,0.575945,,0,350,350,548,1,2c,92,3,31,
,,,,,,,,,,,,,,,,,,,,,,,,,,images/exp1b_trial_80_colour1_distractors31_r.png,r,2,005,001,2021-04-13_17h48.46.804,searchDisc4,2020.2.10,Win32,60,,,space,0.58585,2,1,0.731265,,0,351,351,194,1,1b,80,1,31,
,,,,,,,,,,,,,,,,,,,,,,,,,,images/exp2a_trial_63_colour2_distractors4_l.png,l,1,005,001,2021-04-13_17h48.46.804,searchDisc4,2020.2.10,Win32,60,,,space,0.299855,1,1,0.556045,,0,352,352,291,1,2a,63,2,4,
,,,,,,,,,,,,,,,,,,,,,,,,,,images/exp1a_trial_93_colour3_distractors43_r.png,r,2,005,001,2021-04-13_17h48.46.804,searchDisc4,2020.2.10,Win32,60,,,space,0.2823,2,1,0.657205,,0,353,353,93,1,1a,93,3,43,
,,,,,,,,,,,,,,,,,,,,,,,,,,images/exp1b_trial_60_colour1_distractors31_l.png,l,1,005,001,2021-04-13_17h48.46.804,searchDisc4,2020.2.10,Win32,60,,,space,0.393005,1,1,0.59459,,0,354,354,174,1,1b,60,1,31,
,,,,,,,,,,,,,,,,,,,,,,,,,,images/exp1b_trial_36_colour0_distractors0_r.png,r,2,005,001,2021-04-13_17h48.46.804,searchDisc4,2020.2.10,Win32,60,,,space,0.36206,2,1,0.410495,,0,355,355,150,1,1b,36,0,0,
,,,,,,,,,,,,,,,,,,,,,,,,,,images/exp2c_trial_108_colour3_distractors9_l.png,l,1,005,001,2021-04-13_17h48.46.804,searchDisc4,2020.2.10,Win32,60,,,space,0.420835,1,1,0.73517,,0,356,356,564,1,2c,108,3,9,
,,,,,,,,,,,,,,,,,,,,,,,,,,images/exp2c_trial_49_colour2_distractors43_r.png,r,2,005,001,2021-04-13_17h48.46.804,searchDisc4,2020.2.10,Win32,60,,,space,0.295265,2,1,0.442035,,0,357,357,505,1,2c,49,2,43,
,,,,,,,,,,,,,,,,,,,,,,,,,,images/exp2c_trial_100_colour2_distractors1_l.png,l,1,005,001,2021-04-13_17h48.46.804,searchDisc4,2020.2.10,Win32,60,,,space,0.33414,1,1,0.50404,,0,358,358,556,1,2c,100,2,1,
,,,,,,,,,,,,,,,,,,,,,,,,,,images/exp1a_trial_100_colour2_distractors1_l.png,l,1,005,001,2021-04-13_17h48.46.804,searchDisc4,2020.2.10,Win32,60,,,space,0.2803,1,1,0.741675,space,0,359,359,100,1,1a,100,2,1,0.280205
,,,,,,,,,,,,,,,,,,,,,,,,,,images/exp1b_trial_18_colour1_distractors1_l.png,l,1,005,001,2021-04-13_17h48.46.804,searchDisc4,2020.2.10,Win32,60,,,space,0.552055,1,1,0.654445,,0,360,360,132,1,1b,18,1,1,
,,,,,,,,,,,,,,,,,,,,,,,,,,images/exp1b_trial_23_colour1_distractors43_l.png,l,1,005,001,2021-04-13_17h48.46.804,searchDisc4,2020.2.10,Win32,60,,,space,0.245885,1,1,0.602075,,0,361,361,137,1,1b,23,1,43,
,,,,,,,,,,,,,,,,,,,,,,,,,,images/exp2a_trial_100_colour2_distractors1_l.png,l,1,005,001,2021-04-13_17h48.46.804,searchDisc4,2020.2.10,Win32,60,,,space,0.296655,1,1,0.348465,,0,362,362,328,1,2a,100,2,1,
,,,,,,,,,,,,,,,,,,,,,,,,,,images/exp1b_trial_15_colour3_distractors19_r.png,r,2,005,001,2021-04-13_17h48.46.804,searchDisc4,2020.2.10,Win32,60,,,space,0.316765,2,1,0.64322,,0,363,363,129,1,1b,15,3,19,
,,,,,,,,,,,,,,,,,,,,,,,,,,images/exp2b_trial_49_colour2_distractors43_r.png,r,2,005,001,2021-04-13_17h48.46.804,searchDisc4,2020.2.10,Win32,60,,,space,0.184,2,1,0.5897,,0,364,364,391,1,2b,49,2,43,
,,,,,,,,,,,,,,,,,,,,,,,,,,images/exp2c_trial_40_colour1_distractors9_r.png,r,2,005,001,2021-04-13_17h48.46.804,searchDisc4,2020.2.10,Win32,60,,,space,0.566295,2,1,0.52457,,0,365,365,496,1,2c,40,1,9,
,,,,,,,,,,,,,,,,,,,,,,,,,,images/exp1a_trial_113_colour0_distractors0_l.png,l,1,005,001,2021-04-13_17h48.46.804,searchDisc4,2020.2.10,Win32,60,,,space,0.33655,1,1,0.52483,,0,366,366,113,1,1a,113,0,0,
,,,,,,,,,,,,,,,,,,,,,,,,,,images/exp2a_trial_95_colour1_distractors4_l.png,l,1,005,001,2021-04-13_17h48.46.804,searchDisc4,2020.2.10,Win32,60,,,space,0.2793,1,1,0.6022,,0,367,367,323,1,2a,95,1,4,
,,,,,,,,,,,,,,,,,,,,,,,,,,images/exp1b_trial_58_colour1_distractors9_l.png,l,1,005,001,2021-04-13_17h48.46.804,searchDisc4,2020.2.10,Win32,60,,,space,0.267525,1,1,0.602395,,0,368,368,172,1,1b,58,1,9,
,,,,,,,,,,,,,,,,,,,,,,,,,,images/exp2b_trial_105_colour2_distractors43_l.png,l,1,005,001,2021-04-13_17h48.46.804,searchDisc4,2020.2.10,Win32,60,,,space,0.2871,1,1,0.53756,,0,369,369,447,1,2b,105,2,43,
,,,,,,,,,,,,,,,,,,,,,,,,,,images/exp1b_trial_40_colour1_distractors9_r.png,r,2,005,001,2021-04-13_17h48.46.804,searchDisc4,2020.2.10,Win32,60,,,space,0.381085,2,1,0.72457,,0,370,370,154,1,1b,40,1,9,
,,,,,,,,,,,,,,,,,,,,,,,,,,images/exp2b_trial_9_colour2_distractors19_r.png,r,2,005,001,2021-04-13_17h48.46.804,searchDisc4,2020.2.10,Win32,60,,,space,0.25129,2,1,0.910505,,0,371,371,351,1,2b,9,2,19,
,,,,,,,,,,,,,,,,,,,,,,,,,,images/exp1a_trial_12_colour3_distractors1_r.png,r,2,005,001,2021-04-13_17h48.46.804,searchDisc4,2020.2.10,Win32,60,,,space,0.234225,2,1,0.594145,,0,372,372,12,1,1a,12,3,1,
,,,,,,,,,,,,,,,,,,,,,,,,,,images/exp2b_trial_89_colour3_distractors4_r.png,r,2,005,001,2021-04-13_17h48.46.804,searchDisc4,2020.2.10,Win32,60,,,space,0.245985,2,1,0.576925,,0,373,373,431,1,2b,89,3,4,
,,,,,,,,,,,,,,,,,,,,,,,,,,images/exp2c_trial_29_colour2_distractors43_l.png,l,1,005,001,2021-04-13_17h48.46.804,searchDisc4,2020.2.10,Win32,60,,,space,0.319025,1,1,0.57233,,0,374,374,485,1,2c,29,2,43,
,,,,,,,,,,,,,,,,,,,,,,,,,,images/exp1b_trial_2_colour1_distractors9_r.png,r,2,005,001,2021-04-13_17h48.46.804,searchDisc4,2020.2.10,Win32,60,,,space,0.212705,2,1,0.423885,,0,375,375,116,1,1b,2,1,9,
,,,,,,,,,,,,,,,,,,,,,,,,,,images/exp2b_trial_85_colour2_distractors19_r.png,r,2,005,001,2021-04-13_17h48.46.804,searchDisc4,2020.2.10,Win32,60,,,space,0.26972,2,1,0.50911,,0,376,376,427,1,2b,85,2,19,
,,,,,,,,,,,,,,,,,,,,,,,,,,images/exp2c_trial_98_colour1_distractors31_l.png,l,1,005,001,2021-04-13_17h48.46.804,searchDisc4,2020.2.10,Win32,60,,,space,0.23051,1,1,0.56427,,0,377,377,554,1,2c,98,1,31,
,,,,,,,,,,,,,,,,,,,,,,,,,,images/exp1b_trial_30_colour3_distractors1_l.png,l,1,005,001,2021-04-13_17h48.46.804,searchDisc4,2020.2.10,Win32,60,,,space,0.3014,1,1,0.560515,,0,378,378,144,1,1b,30,3,1,
,,,,,,,,,,,,,,,,,,,,,,,,,,images/exp2c_trial_83_colour2_distractors4_r.png,r,2,005,001,2021-04-13_17h48.46.804,searchDisc4,2020.2.10,Win32,60,,,space,0.295655,2,1,0.48651,,0,379,379,539,1,2c,83,2,4,
,,,,,,,,,,,,,,,,,,,,,,,,,,images/exp1a_trial_19_colour1_distractors4_l.png,l,1,005,001,2021-04-13_17h48.46.804,searchDisc4,2020.2.10,Win32,60,,,space,0.213535,1,1,0.425885,,0,380,380,19,1,1a,19,1,4,
,,,,,,,,,,,,,,,,,,,,,,,,,,images/exp2c_trial_101_colour2_distractors4_l.png,l,1,005,001,2021-04-13_17h48.46.804,searchDisc4,2020.2.10,Win32,60,,,space,0.280085,1,1,0.566285,,0,381,381,557,1,2c,101,2,4,
,,,,,,,,,,,,,,,,,,,,,,,,,,images/exp1b_trial_4_colour1_distractors31_r.png,r,2,005,001,2021-04-13_17h48.46.804,searchDisc4,2020.2.10,Win32,60,,,space,0.22993,2,1,0.49347,,0,382,382,118,1,1b,4,1,31,
,,,,,,,,,,,,,,,,,,,,,,,,,,images/exp2c_trial_14_colour3_distractors9_r.png,r,2,005,001,2021-04-13_17h48.46.804,searchDisc4,2020.2.10,Win32,60,,,space,0.23217,2,1,0.883415,,0,383,383,470,1,2c,14,3,9,
,,,,,,,,,,,,,,,,,,,,,,,,,,images/exp2b_trial_99_colour1_distractors43_l.png,l,1,005,001,2021-04-13_17h48.46.804,searchDisc4,2020.2.10,Win32,60,,,space,0.22886,1,1,0.5118,,0,384,384,441,1,2b,99,1,43,
,,,,,,,,,,,,,,,,,,,,,,,,,,images/exp1a_trial_112_colour0_distractors0_r.png,r,2,005,001,2021-04-13_17h48.46.804,searchDisc4,2020.2.10,Win32,60,,,space,0.27263,2,1,0.65212,,0,385,385,112,1,1a,112,0,0,
,,,,,,,,,,,,,,,,,,,,,,,,,,images/exp2a_trial_55_colour3_distractors43_r.png,r,2,005,001,2021-04-13_17h48.46.804,searchDisc4,2020.2.10,Win32,60,,,space,0.26714,2,1,0.546195,,0,386,386,283,1,2a,55,3,43,
,,,,,,,,,,,,,,,,,,,,,,,,,,images/exp2a_trial_30_colour3_distractors1_l.png,l,1,005,001,2021-04-13_17h48.46.804,searchDisc4,2020.2.10,Win32,60,,,space,0.442585,1,1,0.636725,,0,387,387,258,1,2a,30,3,1,
,,,,,,,,,,,,,,,,,,,,,,,,,,images/exp2a_trial_68_colour3_distractors1_l.png,l,1,005,001,2021-04-13_17h48.46.804,searchDisc4,2020.2.10,Win32,60,,,space,0.32993,1,1,0.564965,,0,388,388,296,1,2a,68,3,1,
,,,,,,,,,,,,,,,,,,,,,,,,,,images/exp2a_trial_44_colour2_distractors1_r.png,r,2,005,001,2021-04-13_17h48.46.804,searchDisc4,2020.2.10,Win32,60,,,space,0.351015,2,1,0.65124,,0,389,389,272,1,2a,44,2,1,
,,,,,,,,,,,,,,,,,,,,,,,,,,images/exp2b_trial_14_colour3_distractors9_r.png,r,2,005,001,2021-04-13_17h48.46.804,searchDisc4,2020.2.10,Win32,60,,,space,0.364405,2,1,0.52541,,0,390,390,356,1,2b,14,3,9,
,,,,,,,,,,,,,,,,,,,,,,,,,,images/exp2b_trial_60_colour1_distractors31_l.png,l,1,005,001,2021-04-13_17h48.46.804,searchDisc4,2020.2.10,Win32,60,,,space,0.43144,1,1,0.4725,,0,391,391,402,1,2b,60,1,31,
,,,,,,,,,,,,,,,,,,,,,,,,,,images/exp2c_trial_106_colour3_distractors1_l.png,l,1,005,001,2021-04-13_17h48.46.804,searchDisc4,2020.2.10,Win32,60,,,space,0.31917,1,1,0.45209,,0,392,392,562,1,2c,106,3,1,
,,,,,,,,,,,,,,,,,,,,,,,,,,images/exp1b_trial_45_colour2_distractors4_r.png,r,2,005,001,2021-04-13_17h48.46.804,searchDisc4,2020.2.10,Win32,60,,,space,0.312965,2,1,0.704365,,0,393,393,159,1,1b,45,2,4,
,,,,,,,,,,,,,,,,,,,,,,,,,,images/exp2a_trial_89_colour3_distractors4_r.png,r,2,005,001,2021-04-13_17h48.46.804,searchDisc4,2020.2.10,Win32,60,,,space,0.27746,2,1,0.54659,,0,394,394,317,1,2a,89,3,4,
,,,,,,,,,,,,,,,,,,,,,,,,,,images/exp2c_trial_48_colour2_distractors31_r.png,r,2,005,001,2021-04-13_17h48.46.804,searchDisc4,2020.2.10,Win32,60,,,space,0.262295,2,1,0.724185,,0,395,395,504,1,2c,48,2,31,
,,,,,,,,,,,,,,,,,,,,,,,,,,images/exp2a_trial_37_colour0_distractors0_l.png,l,1,005,001,2021-04-13_17h48.46.804,searchDisc4,2020.2.10,Win32,60,,,space,0.294355,1,1,0.540315,,0,396,396,265,1,2a,37,0,0,
,,,,,,,,,,,,,,,,,,,,,,,,,,images/exp1a_trial_27_colour2_distractors19_l.png,l,1,005,001,2021-04-13_17h48.46.804,searchDisc4,2020.2.10,Win32,60,,,space,0.261435,1,1,0.573755,,0,397,397,27,1,1a,27,2,19,
,,,,,,,,,,,,,,,,,,,,,,,,,,images/exp2c_trial_25_colour2_distractors4_l.png,l,1,005,001,2021-04-13_17h48.46.804,searchDisc4,2020.2.10,Win32,60,,,space,0.26847,1,1,0.473205,,0,398,398,481,1,2c,25,2,4,
,,,,,,,,,,,,,,,,,,,,,,,,,,images/exp1a_trial_94_colour1_distractors1_l.png,l,1,005,001,2021-04-13_17h48.46.804,searchDisc4,2020.2.10,Win32,60,,,space,0.311365,1,1,0.64121,,0,399,399,94,1,1a,94,1,1,
,,,,,,,,,,,,,,,,,,,,,,,,,,images/exp1a_trial_103_colour2_distractors19_l.png,l,1,005,001,2021-04-13_17h48.46.804,searchDisc4,2020.2.10,Win32,60,,,space,0.31632,1,1,0.751435,,0,400,400,103,1,1a,103,2,19,
,,,,,,,,,,,,,,,,,,,,,,,,,,images/exp1b_trial_35_colour3_distractors43_l.png,l,1,005,001,2021-04-13_17h48.46.804,searchDisc4,2020.2.10,Win32,60,,,space,0.334805,1,1,1.051575,,0,401,401,149,1,1b,35,3,43,
,,,,,,,,,,,,,,,,,,,,,,,,,,images/exp2b_trial_15_colour3_distractors19_r.png,r,2,005,001,2021-04-13_17h48.46.804,searchDisc4,2020.2.10,Win32,60,,,space,0.34909,2,1,0.87844,,0,402,402,357,1,2b,15,3,19,
,,,,,,,,,,,,,,,,,,,,,,,,,,images/exp2a_trial_29_colour2_distractors43_l.png,l,1,005,001,2021-04-13_17h48.46.804,searchDisc4,2020.2.10,Win32,60,,,space,0.354025,1,1,0.49573,,0,403,403,257,1,2a,29,2,43,
,,,,,,,,,,,,,,,,,,,,,,,,,,images/exp2a_trial_97_colour1_distractors19_l.png,l,1,005,001,2021-04-13_17h48.46.804,searchDisc4,2020.2.10,Win32,60,,,space,0.25373,1,1,0.454115,,0,404,404,325,1,2a,97,1,19,
,,,,,,,,,,,,,,,,,,,,,,,,,,images/exp2c_trial_111_colour3_distractors43_l.png,l,1,005,001,2021-04-13_17h48.46.804,searchDisc4,2020.2.10,Win32,60,,,space,0.38453,1,1,0.62311,,0,405,405,567,1,2c,111,3,43,
,,,,,,,,,,,,,,,,,,,,,,,,,,images/exp2b_trial_31_colour3_distractors4_l.png,l,1,005,001,2021-04-13_17h48.46.804,searchDisc4,2020.2.10,Win32,60,,,space,0.277515,1,1,0.524355,,0,406,406,373,1,2b,31,3,4,
,,,,,,,,,,,,,,,,,,,,,,,,,,images/exp2a_trial_67_colour2_distractors43_l.png,l,1,005,001,2021-04-13_17h48.46.804,searchDisc4,2020.2.10,Win32,60,,,space,0.28771,1,1,0.39529,,0,407,407,295,1,2a,67,2,43,
,,,,,,,,,,,,,,,,,,,,,,,,,,images/exp2b_trial_51_colour3_distractors4_r.png,r,2,005,001,2021-04-13_17h48.46.804,searchDisc4,2020.2.10,Win32,60,,,space,0.33563,2,1,0.701745,,0,408,408,393,1,2b,51,3,4,
,,,,,,,,,,,,,,,,,,,,,,,,,,images/exp2c_trial_11_colour2_distractors43_r.png,r,2,005,001,2021-04-13_17h48.46.804,searchDisc4,2020.2.10,Win32,60,,,space,0.25484,2,1,0.50263,,0,409,409,467,1,2c,11,2,43,
,,,,,,,,,,,,,,,,,,,,,,,,,,images/exp1b_trial_22_colour1_distractors31_l.png,l,1,005,001,2021-04-13_17h48.46.804,searchDisc4,2020.2.10,Win32,60,,,space,0.24652,1,1,0.61384,,0,410,410,136,1,1b,22,1,31,
,,,,,,,,,,,,,,,,,,,,,,,,,,images/exp2a_trial_85_colour2_distractors19_r.png,r,2,005,001,2021-04-13_17h48.46.804,searchDisc4,2020.2.10,Win32,60,,,space,0.25572,2,1,0.757105,,0,411,411,313,1,2a,85,2,19,
,,,,,,,,,,,,,,,,,,,,,,,,,,images/exp2c_trial_64_colour2_distractors9_l.png,l,1,005,001,2021-04-13_17h48.46.804,searchDisc4,2020.2.10,Win32,60,,,space,0.196875,2,0,0.550885,,0,412,412,520,1,2c,64,2,9,
,,,,,,,,,,,,,,,,,,,,,,,,,,images/exp1b_trial_103_colour2_distractors19_l.png,l,1,005,001,2021-04-13_17h48.46.804,searchDisc4,2020.2.10,Win32,60,,,space,0.601995,1,1,0.707685,,0,413,413,217,1,1b,103,2,19,
,,,,,,,,,,,,,,,,,,,,,,,,,,images/exp2c_trial_113_colour0_distractors0_l.png,l,1,005,001,2021-04-13_17h48.46.804,searchDisc4,2020.2.10,Win32,60,,,space,0.24799,1,1,0.47481,,0,414,414,569,1,2c,113,0,0,
,,,,,,,,,,,,,,,,,,,,,,,,,,images/exp2c_trial_102_colour2_distractors9_l.png,l,1,005,001,2021-04-13_17h48.46.804,searchDisc4,2020.2.10,Win32,60,,,space,0.456765,1,1,0.488145,,0,415,415,558,1,2c,102,2,9,
,,,,,,,,,,,,,,,,,,,,,,,,,,images/exp1b_trial_111_colour3_distractors43_l.png,l,1,005,001,2021-04-13_17h48.46.804,searchDisc4,2020.2.10,Win32,60,,,space,0.445925,2,0,0.82305,,0,416,416,225,1,1b,111,3,43,
,,,,,,,,,,,,,,,,,,,,,,,,,,images/exp1a_trial_25_colour2_distractors4_l.png,l,1,005,001,2021-04-13_17h48.46.804,searchDisc4,2020.2.10,Win32,60,,,space,0.571545,1,1,0.79077,,0,417,417,25,1,1a,25,2,4,
,,,,,,,,,,,,,,,,,,,,,,,,,,images/exp1b_trial_113_colour0_distractors0_l.png,l,1,005,001,2021-04-13_17h48.46.804,searchDisc4,2020.2.10,Win32,60,,,space,0.32829,1,1,0.60936,,0,418,418,227,1,1b,113,0,0,
,,,,,,,,,,,,,,,,,,,,,,,,,,images/exp2b_trial_58_colour1_distractors9_l.png,l,1,005,001,2021-04-13_17h48.46.804,searchDisc4,2020.2.10,Win32,60,,,space,0.2696,1,1,0.459425,space,0,419,419,400,1,2b,58,1,9,10.25044
,,,,,,,,,,,,,,,,,,,,,,,,,,images/exp2b_trial_108_colour3_distractors9_l.png,l,1,005,001,2021-04-13_17h48.46.804,searchDisc4,2020.2.10,Win32,60,,,space,0.58115,1,1,0.656845,,0,420,420,450,1,2b,108,3,9,
,,,,,,,,,,,,,,,,,,,,,,,,,,images/exp1b_trial_109_colour3_distractors19_l.png,l,1,005,001,2021-04-13_17h48.46.804,searchDisc4,2020.2.10,Win32,60,,,space,0.361655,1,1,2.34838,,0,421,421,223,1,1b,109,3,19,
,,,,,,,,,,,,,,,,,,,,,,,,,,images/exp1b_trial_7_colour2_distractors4_r.png,r,2,005,001,2021-04-13_17h48.46.804,searchDisc4,2020.2.10,Win32,60,,,space,0.34358,2,1,0.756065,,0,422,422,121,1,1b,7,2,4,
,,,,,,,,,,,,,,,,,,,,,,,,,,images/exp2c_trial_39_colour1_distractors4_r.png,r,2,005,001,2021-04-13_17h48.46.804,searchDisc4,2020.2.10,Win32,60,,,space,0.208365,2,1,0.425375,,0,423,423,495,1,2c,39,1,4,
,,,,,,,,,,,,,,,,,,,,,,,,,,images/exp1b_trial_73_colour3_distractors43_l.png,l,1,005,001,2021-04-13_17h48.46.804,searchDisc4,2020.2.10,Win32,60,,,space,0.2455,1,1,0.62947,,0,424,424,187,1,1b,73,3,43,
,,,,,,,,,,,,,,,,,,,,,,,,,,images/exp1a_trial_36_colour0_distractors0_r.png,r,2,005,001,2021-04-13_17h48.46.804,searchDisc4,2020.2.10,Win32,60,,,space,0.21508,2,1,0.49012,,0,425,425,36,1,1a,36,0,0,
,,,,,,,,,,,,,,,,,,,,,,,,,,images/exp1a_trial_32_colour3_distractors9_l.png,l,1,005,001,2021-04-13_17h48.46.804,searchDisc4,2020.2.10,Win32,60,,,space,0.330875,1,1,0.425105,,0,426,426,32,1,1a,32,3,9,
,,,,,,,,,,,,,,,,,,,,,,,,,,images/exp2b_trial_3_colour1_distractors19_r.png,r,2,005,001,2021-04-13_17h48.46.804,searchDisc4,2020.2.10,Win32,60,,,space,0.218105,2,1,0.541145,,0,427,427,345,1,2b,3,1,19,
,,,,,,,,,,,,,,,,,,,,,,,,,,images/exp2b_trial_74_colour0_distractors0_r.png,r,2,005,001,2021-04-13_17h48.46.804,searchDisc4,2020.2.10,Win32,60,,,space,0.19782,2,1,0.471135,,0,428,428,416,1,2b,74,0,0,
,,,,,,,,,,,,,,,,,,,,,,,,,,images/exp1a_trial_104_colour2_distractors31_l.png,l,1,005,001,2021-04-13_17h48.46.804,searchDisc4,2020.2.10,Win32,60,,,space,0.305525,2,0,0.43953,,0,429,429,104,1,1a,104,2,31,
,,,,,,,,,,,,,,,,,,,,,,,,,,images/exp2b_trial_97_colour1_distractors19_l.png,l,1,005,001,2021-04-13_17h48.46.804,searchDisc4,2020.2.10,Win32,60,,,space,0.38388,1,1,0.40823,,0,430,430,439,1,2b,97,1,19,
,,,,,,,,,,,,,,,,,,,,,,,,,,images/exp2a_trial_38_colour1_distractors1_r.png,r,2,005,001,2021-04-13_17h48.46.804,searchDisc4,2020.2.10,Win32,60,,,space,0.306205,2,1,0.431115,,0,431,431,266,1,2a,38,1,1,
,,,,,,,,,,,,,,,,,,,,,,,,,,images/exp2a_trial_11_colour2_distractors43_r.png,r,2,005,001,2021-04-13_17h48.46.804,searchDisc4,2020.2.10,Win32,60,,,space,0.344585,2,1,0.502795,,0,432,432,239,1,2a,11,2,43,
,,,,,,,,,,,,,,,,,,,,,,,,,,images/exp2b_trial_6_colour2_distractors1_r.png,r,2,005,001,2021-04-13_17h48.46.804,searchDisc4,2020.2.10,Win32,60,,,space,0.31971,2,1,0.43981,,0,433,433,348,1,2b,6,2,1,
,,,,,,,,,,,,,,,,,,,,,,,,,,images/exp1a_trial_37_colour0_distractors0_l.png,l,1,005,001,2021-04-13_17h48.46.804,searchDisc4,2020.2.10,Win32,60,,,space,0.231255,1,1,0.41052,,0,434,434,37,1,1a,37,0,0,
,,,,,,,,,,,,,,,,,,,,,,,,,,images/exp2c_trial_76_colour1_distractors1_r.png,r,2,005,001,2021-04-13_17h48.46.804,searchDisc4,2020.2.10,Win32,60,,,space,0.536695,2,1,0.452735,,0,435,435,532,1,2c,76,1,1,
,,,,,,,,,,,,,,,,,,,,,,,,,,images/exp2b_trial_36_colour0_distractors0_r.png,r,2,005,001,2021-04-13_17h48.46.804,searchDisc4,2020.2.10,Win32,60,,,space,0.36867,2,1,0.50226,,0,436,436,378,1,2b,36,0,0,
,,,,,,,,,,,,,,,,,,,,,,,,,,images/exp2b_trial_46_colour2_distractors9_r.png,r,2,005,001,2021-04-13_17h48.46.804,searchDisc4,2020.2.10,Win32,60,,,space,0.95221,2,1,0.36871,,0,437,437,388,1,2b,46,2,9,
,,,,,,,,,,,,,,,,,,,,,,,,,,images/exp1a_trial_47_colour2_distractors19_r.png,r,2,005,001,2021-04-13_17h48.46.804,searchDisc4,2020.2.10,Win32,60,,,space,0.398195,2,1,0.50059,,0,438,438,47,1,1a,47,2,19,
,,,,,,,,,,,,,,,,,,,,,,,,,,images/exp1a_trial_15_colour3_distractors19_r.png,r,2,005,001,2021-04-13_17h48.46.804,searchDisc4,2020.2.10,Win32,60,,,space,0.361825,2,1,0.43148,,0,439,439,15,1,1a,15,3,19,
,,,,,,,,,,,,,,,,,,,,,,,,,,images/exp2c_trial_56_colour1_distractors1_l.png,l,1,005,001,2021-04-13_17h48.46.804,searchDisc4,2020.2.10,Win32,60,,,space,0.352595,1,1,0.383695,,0,440,440,512,1,2c,56,1,1,
,,,,,,,,,,,,,,,,,,,,,,,,,,images/exp1b_trial_64_colour2_distractors9_l.png,l,1,005,001,2021-04-13_17h48.46.804,searchDisc4,2020.2.10,Win32,60,,,space,0.313235,1,1,0.4535,,0,441,441,178,1,1b,64,2,9,
,,,,,,,,,,,,,,,,,,,,,,,,,,images/exp2a_trial_22_colour1_distractors31_l.png,l,1,005,001,2021-04-13_17h48.46.804,searchDisc4,2020.2.10,Win32,60,,,space,0.329165,1,1,0.484325,,0,442,442,250,1,2a,22,1,31,
,,,,,,,,,,,,,,,,,,,,,,,,,,images/exp1b_trial_55_colour3_distractors43_r.png,r,2,005,001,2021-04-13_17h48.46.804,searchDisc4,2020.2.10,Win32,60,,,space,0.33341,2,1,1.11793,,0,443,443,169,1,1b,55,3,43,
,,,,,,,,,,,,,,,,,,,,,,,,,,images/exp1b_trial_5_colour1_distractors43_r.png,r,2,005,001,2021-04-13_17h48.46.804,searchDisc4,2020.2.10,Win32,60,,,space,0.33477,2,1,0.634925,,0,444,444,119,1,1b,5,1,43,
,,,,,,,,,,,,,,,,,,,,,,,,,,images/exp2b_trial_1_colour1_distractors4_r.png,r,2,005,001,2021-04-13_17h48.46.804,searchDisc4,2020.2.10,Win32,60,,,space,0.29931,2,1,0.47852,,0,445,445,343,1,2b,1,1,4,
,,,,,,,,,,,,,,,,,,,,,,,,,,images/exp2b_trial_94_colour1_distractors1_l.png,l,1,005,001,2021-04-13_17h48.46.804,searchDisc4,2020.2.10,Win32,60,,,space,0.30146,1,1,0.54972,,0,446,446,436,1,2b,94,1,1,
,,,,,,,,,,,,,,,,,,,,,,,,,,images/exp1a_trial_18_colour1_distractors1_l.png,l,1,005,001,2021-04-13_17h48.46.804,searchDisc4,2020.2.10,Win32,60,,,space,0.262955,1,1,0.518785,,0,447,447,18,1,1a,18,1,1,
,,,,,,,,,,,,,,,,,,,,,,,,,,images/exp1b_trial_8_colour2_distractors9_r.png,r,2,005,001,2021-04-13_17h48.46.804,searchDisc4,2020.2.10,Win32,60,,,space,0.29594,2,1,0.58139,,0,448,448,122,1,1b,8,2,9,
,,,,,,,,,,,,,,,,,,,,,,,,,,images/exp2c_trial_3_colour1_distractors19_r.png,r,2,005,001,2021-04-13_17h48.46.804,searchDisc4,2020.2.10,Win32,60,,,space,0.361365,2,1,0.545495,,0,449,449,459,1,2c,3,1,19,
,,,,,,,,,,,,,,,,,,,,,,,,,,images/exp2b_trial_78_colour1_distractors9_r.png,r,2,005,001,2021-04-13_17h48.46.804,searchDisc4,2020.2.10,Win32,60,,,space,0.31858,2,1,0.47201,,0,450,450,420,1,2b,78,1,9,
,,,,,,,,,,,,,,,,,,,,,,,,,,images/exp2c_trial_65_colour2_distractors19_l.png,l,1,005,001,2021-04-13_17h48.46.804,searchDisc4,2020.2.10,Win32,60,,,space,0.445095,1,1,0.747135,,0,451,451,521,1,2c,65,2,19,
,,,,,,,,,,,,,,,,,,,,,,,,,,images/exp2a_trial_1_colour1_distractors4_r.png,r,2,005,001,2021-04-13_17h48.46.804,searchDisc4,2020.2.10,Win32,60,,,space,0.402535,2,1,0.455185,,0,452,452,229,1,2a,1,1,4,
,,,,,,,,,,,,,,,,,,,,,,,,,,images/exp2c_trial_0_colour1_distractors1_r.png,r,2,005,001,2021-04-13_17h48.46.804,searchDisc4,2020.2.10,Win32,60,,,space,0.45852,2,1,0.392445,,0,453,453,456,1,2c,0,1,1,
,,,,,,,,,,,,,,,,,,,,,,,,,,images/exp2b_trial_10_colour2_distractors31_r.png,r,2,005,001,2021-04-13_17h48.46.804,searchDisc4,2020.2.10,Win32,60,,,space,0.256595,2,1,0.421375,,0,454,454,352,1,2b,10,2,31,
,,,,,,,,,,,,,,,,,,,,,,,,,,images/exp1a_trial_87_colour2_distractors43_r.png,r,2,005,001,2021-04-13_17h48.46.804,searchDisc4,2020.2.10,Win32,60,,,space,0.4116,2,1,0.471405,,0,455,455,87,1,1a,87,2,43,
,,,,,,,,,,,,,,,,,,,,,,,,,,images/exp2c_trial_17_colour3_distractors43_r.png,r,2,005,001,2021-04-13_17h48.46.804,searchDisc4,2020.2.10,Win32,60,,,space,0.33327,2,1,0.491925,,0,456,456,473,1,2c,17,3,43,
,,,,,,,,,,,,,,,,,,,,,,,,,,images/exp1a_trial_81_colour1_distractors43_r.png,r,2,005,001,2021-04-13_17h48.46.804,searchDisc4,2020.2.10,Win32,60,,,space,0.269445,2,1,0.514595,,0,457,457,81,1,1a,81,1,43,
,,,,,,,,,,,,,,,,,,,,,,,,,,images/exp2c_trial_30_colour3_distractors1_l.png,l,1,005,001,2021-04-13_17h48.46.804,searchDisc4,2020.2.10,Win32,60,,,space,0.270405,1,1,0.55533,,0,458,458,486,1,2c,30,3,1,
,,,,,,,,,,,,,,,,,,,,,,,,,,images/exp1b_trial_12_colour3_distractors1_r.png,r,2,005,001,2021-04-13_17h48.46.804,searchDisc4,2020.2.10,Win32,60,,,space,0.250895,2,1,0.60517,,0,459,459,126,1,1b,12,3,1,
,,,,,,,,,,,,,,,,,,,,,,,,,,images/exp2b_trial_13_colour3_distractors4_r.png,r,2,005,001,2021-04-13_17h48.46.804,searchDisc4,2020.2.10,Win32,60,,,space,0.288775,2,1,0.48423,,0,460,460,355,1,2b,13,3,4,
,,,,,,,,,,,,,,,,,,,,,,,,,,images/exp2c_trial_7_colour2_distractors4_r.png,r,2,005,001,2021-04-13_17h48.46.804,searchDisc4,2020.2.10,Win32,60,,,space,0.28781,2,1,0.46551,,0,461,461,463,1,2c,7,2,4,
,,,,,,,,,,,,,,,,,,,,,,,,,,images/exp1b_trial_48_colour2_distractors31_r.png,r,2,005,001,2021-04-13_17h48.46.804,searchDisc4,2020.2.10,Win32,60,,,space,0.3015,2,1,0.473705,,0,462,462,162,1,1b,48,2,31,
,,,,,,,,,,,,,,,,,,,,,,,,,,images/exp2c_trial_112_colour0_distractors0_r.png,r,2,005,001,2021-04-13_17h48.46.804,searchDisc4,2020.2.10,Win32,60,,,space,0.36028,2,1,0.478575,,0,463,463,568,1,2c,112,0,0,
,,,,,,,,,,,,,,,,,,,,,,,,,,images/exp2c_trial_54_colour3_distractors31_r.png,r,2,005,001,2021-04-13_17h48.46.804,searchDisc4,2020.2.10,Win32,60,,,space,0.36307,2,1,0.42544,,0,464,464,510,1,2c,54,3,31,
,,,,,,,,,,,,,,,,,,,,,,,,,,images/exp1a_trial_2_colour1_distractors9_r.png,r,2,005,001,2021-04-13_17h48.46.804,searchDisc4,2020.2.10,Win32,60,,,space,0.385685,2,1,0.52667,,0,465,465,2,1,1a,2,1,9,
,,,,,,,,,,,,,,,,,,,,,,,,,,images/exp1a_trial_6_colour2_distractors1_r.png,r,2,005,001,2021-04-13_17h48.46.804,searchDisc4,2020.2.10,Win32,60,,,space,0.348315,2,1,0.46233,,0,466,466,6,1,1a,6,2,1,
,,,,,,,,,,,,,,,,,,,,,,,,,,images/exp1b_trial_74_colour0_distractors0_r.png,r,2,005,001,2021-04-13_17h48.46.804,searchDisc4,2020.2.10,Win32,60,,,space,0.51417,2,1,0.471895,,0,467,467,188,1,1b,74,0,0,
,,,,,,,,,,,,,,,,,,,,,,,,,,images/exp2c_trial_60_colour1_distractors31_l.png,l,1,005,001,2021-04-13_17h48.46.804,searchDisc4,2020.2.10,Win32,60,,,space,0.16377,1,1,0.55526,,0,468,468,516,1,2c,60,1,31,
,,,,,,,,,,,,,,,,,,,,,,,,,,images/exp2b_trial_77_colour1_distractors4_r.png,r,2,005,001,2021-04-13_17h48.46.804,searchDisc4,2020.2.10,Win32,60,,,space,0.245965,2,1,0.553,,0,469,469,419,1,2b,77,1,4,
,,,,,,,,,,,,,,,,,,,,,,,,,,images/exp1a_trial_62_colour2_distractors1_l.png,l,1,005,001,2021-04-13_17h48.46.804,searchDisc4,2020.2.10,Win32,60,,,space,0.22122,1,1,0.78254,,0,470,470,62,1,1a,62,2,1,
,,,,,,,,,,,,,,,,,,,,,,,,,,images/exp2b_trial_76_colour1_distractors1_r.png,r,2,005,001,2021-04-13_17h48.46.804,searchDisc4,2020.2.10,Win32,60,,,space,0.195625,2,1,0.368295,,0,471,471,418,1,2b,76,1,1,
,,,,,,,,,,,,,,,,,,,,,,,,,,images/exp2a_trial_33_colour3_distractors19_l.png,l,1,005,001,2021-04-13_17h48.46.804,searchDisc4,2020.2.10,Win32,60,,,space,0.26757,1,1,0.429365,,0,472,472,261,1,2a,33,3,19,
,,,,,,,,,,,,,,,,,,,,,,,,,,images/exp1a_trial_97_colour1_distractors19_l.png,l,1,005,001,2021-04-13_17h48.46.804,searchDisc4,2020.2.10,Win32,60,,,space,0.330325,2,0,0.345355,,0,473,473,97,1,1a,97,1,19,
,,,,,,,,,,,,,,,,,,,,,,,,,,images/exp2a_trial_101_colour2_distractors4_l.png,l,1,005,001,2021-04-13_17h48.46.804,searchDisc4,2020.2.10,Win32,60,,,space,0.684805,1,1,0.517435,,0,474,474,329,1,2a,101,2,4,
,,,,,,,,,,,,,,,,,,,,,,,,,,images/exp1a_trial_70_colour3_distractors9_l.png,l,1,005,001,2021-04-13_17h48.46.804,searchDisc4,2020.2.10,Win32,60,,,space,0.191875,1,1,0.38069,,0,475,475,70,1,1a,70,3,9,
,,,,,,,,,,,,,,,,,,,,,,,,,,images/exp2a_trial_82_colour2_distractors1_r.png,r,2,005,001,2021-04-13_17h48.46.804,searchDisc4,2020.2.10,Win32,60,,,space,0.28413,2,1,0.59438,,0,476,476,310,1,2a,82,2,1,
