X Scale,Y Scale,key_resp_10.keys,key_resp_10.rt,key_resp_11.keys,key_resp_11.rt,key_resp_12.keys,key_resp_12.rt,key_resp_13.keys,key_resp_13.rt,key_resp_5.keys,key_resp_5.rt,key_resp_8.keys,key_resp_8.rt,key_resp_6.keys,key_resp_6.rt,key_resp_7.keys,key_resp_7.rt,key_resp_4.keys,key_resp_4.corr,key_resp_4.rt,trials_2.thisRepN,trials_2.thisTrialN,trials_2.thisN,trials_2.thisIndex,trials_2.ran,ImageFile,targ_side,correctAnswer,participant,session,date,expName,psychopyVersion,OS,frameRate,key_resp_3.keys,key_resp_3.rt,key_resp_9.keys,key_resp_9.rt,key_resp_2.keys,key_resp_2.corr,key_resp_2.rt,key_resp.keys,trials.thisRepN,trials.thisTrialN,trials.thisN,trials.thisIndex,trials.ran,exp,trial,colour,distNo,key_resp.rt
19.8,19.8,space,9.31752,space,47.309325,space,5.772865,space,1.98942,space,7.12604,space,19.137795,space,5.180355,space,9.27144,1,1,4.879995,0,0,0,13,1,Practice arrays/exp1a_trial_28_colour2_distractors31_l.png,l,1,006,001,2021-04-14_15h44.27.197,searchDisc4,2020.2.10,Win32,60,,,,,,,,,,,,,,,,,,
,,,,,,,,,,,,,,,,space,1.39009,1,1,1.11027,0,1,1,17,1,Practice arrays/exp1a_trial_35_colour3_distractors43_l.png,l,1,006,001,2021-04-14_15h44.27.197,searchDisc4,2020.2.10,Win32,60,,,,,,,,,,,,,,,,,,
,,,,,,,,,,,,,,,,space,0.57568,2,1,1.35537,0,2,2,8,1,Practice arrays/exp1a_trial_16_colour3_distractors31_r.png,r,2,006,001,2021-04-14_15h44.27.197,searchDisc4,2020.2.10,Win32,60,,,,,,,,,,,,,,,,,,
,,,,,,,,,,,,,,,,space,0.624695,1,1,0.812475,0,3,3,14,1,Practice arrays/exp1a_trial_29_colour2_distractors43_l.png,l,1,006,001,2021-04-14_15h44.27.197,searchDisc4,2020.2.10,Win32,60,,,,,,,,,,,,,,,,,,
,,,,,,,,,,,,,,,,space,0.38353,1,1,0.728935,0,4,4,9,1,Practice arrays/exp1a_trial_19_colour1_distractors4_l.png,l,1,006,001,2021-04-14_15h44.27.197,searchDisc4,2020.2.10,Win32,60,,,,,,,,,,,,,,,,,,
,,,,,,,,,,,,,,,,space,0.62343,2,1,1.250045,0,5,5,18,1,Practice arrays/exp1a_trial_36_colour0_distractors0_r.png,r,2,006,001,2021-04-14_15h44.27.197,searchDisc4,2020.2.10,Win32,60,,,,,,,,,,,,,,,,,,
,,,,,,,,,,,,,,,,space,0.490295,1,1,0.76102,0,6,6,16,1,Practice arrays/exp1a_trial_33_colour3_distractors19_l.png,l,1,006,001,2021-04-14_15h44.27.197,searchDisc4,2020.2.10,Win32,60,,,,,,,,,,,,,,,,,,
,,,,,,,,,,,,,,,,space,1.40598,1,1,0.896455,0,7,7,11,1,Practice arrays/exp1a_trial_21_colour1_distractors19_l.png,l,1,006,001,2021-04-14_15h44.27.197,searchDisc4,2020.2.10,Win32,60,,,,,,,,,,,,,,,,,,
,,,,,,,,,,,,,,,,space,0.63955,1,1,0.849435,0,8,8,10,1,Practice arrays/exp1a_trial_20_colour1_distractors9_l.png,l,1,006,001,2021-04-14_15h44.27.197,searchDisc4,2020.2.10,Win32,60,,,,,,,,,,,,,,,,,,
,,,,,,,,,,,,,,,,space,0.906095,1,1,0.84902,0,9,9,12,1,Practice arrays/exp1a_trial_25_colour2_distractors4_l.png,l,1,006,001,2021-04-14_15h44.27.197,searchDisc4,2020.2.10,Win32,60,,,,,,,,,,,,,,,,,,
,,,,,,,,,,,,,,,,space,0.79364,2,1,0.6768,0,10,10,1,1,Practice arrays/exp1a_trial_3_colour1_distractors19_r.png,r,2,006,001,2021-04-14_15h44.27.197,searchDisc4,2020.2.10,Win32,60,,,,,,,,,,,,,,,,,,
,,,,,,,,,,,,,,,,space,0.95011,2,1,0.65756,0,11,11,7,1,Practice arrays/exp1a_trial_13_colour3_distractors4_r.png,r,2,006,001,2021-04-14_15h44.27.197,searchDisc4,2020.2.10,Win32,60,,,,,,,,,,,,,,,,,,
,,,,,,,,,,,,,,,,space,1.116815,2,1,0.69029,0,12,12,0,1,Practice arrays/exp1a_trial_0_colour1_distractors1_r.png,r,2,006,001,2021-04-14_15h44.27.197,searchDisc4,2020.2.10,Win32,60,,,,,,,,,,,,,,,,,,
,,,,,,,,,,,,,,,,space,0.521365,2,1,0.591965,0,13,13,6,1,Practice arrays/exp1a_trial_12_colour3_distractors1_r.png,r,2,006,001,2021-04-14_15h44.27.197,searchDisc4,2020.2.10,Win32,60,,,,,,,,,,,,,,,,,,
,,,,,,,,,,,,,,,,space,0.52287,2,1,0.69711,0,14,14,3,1,Practice arrays/exp1a_trial_7_colour2_distractors4_r.png,r,2,006,001,2021-04-14_15h44.27.197,searchDisc4,2020.2.10,Win32,60,,,,,,,,,,,,,,,,,,
,,,,,,,,,,,,,,,,space,0.519755,2,1,0.66873,0,15,15,2,1,Practice arrays/exp1a_trial_5_colour1_distractors43_r.png,r,2,006,001,2021-04-14_15h44.27.197,searchDisc4,2020.2.10,Win32,60,,,,,,,,,,,,,,,,,,
,,,,,,,,,,,,,,,,space,0.50204,1,1,0.61385,0,16,16,15,1,Practice arrays/exp1a_trial_32_colour3_distractors9_l.png,l,1,006,001,2021-04-14_15h44.27.197,searchDisc4,2020.2.10,Win32,60,,,,,,,,,,,,,,,,,,
,,,,,,,,,,,,,,,,space,0.343015,2,1,0.932315,0,17,17,5,1,Practice arrays/exp1a_trial_10_colour2_distractors31_r.png,r,2,006,001,2021-04-14_15h44.27.197,searchDisc4,2020.2.10,Win32,60,,,,,,,,,,,,,,,,,,
,,,,,,,,,,,,,,,,space,0.37019,2,1,0.74231,0,18,18,4,1,Practice arrays/exp1a_trial_8_colour2_distractors9_r.png,r,2,006,001,2021-04-14_15h44.27.197,searchDisc4,2020.2.10,Win32,60,,,,,,,,,,,,,,,,,,
,,,,,,,,,,,,,,,,space,0.579525,1,1,0.68716,0,19,19,19,1,Practice arrays/exp1a_trial_37_colour0_distractors0_l.png,l,1,006,001,2021-04-14_15h44.27.197,searchDisc4,2020.2.10,Win32,60,,,,,,,,,,,,,,,,,,
,,,,,,,,,,,,,,,,,,,,,,,,,,images/exp1a_trial_106_colour3_distractors1_l.png,l,1,006,001,2021-04-14_15h44.27.197,searchDisc4,2020.2.10,Win32,60,space,3.99193,space,0.660225,1,1,0.810175,,0,0,0,106,1,1a,106,3,1,
,,,,,,,,,,,,,,,,,,,,,,,,,,images/exp2a_trial_94_colour1_distractors1_l.png,l,1,006,001,2021-04-14_15h44.27.197,searchDisc4,2020.2.10,Win32,60,,,space,0.90315,1,1,0.773675,,0,1,1,322,1,2a,94,1,1,
,,,,,,,,,,,,,,,,,,,,,,,,,,images/exp1a_trial_63_colour2_distractors4_l.png,l,1,006,001,2021-04-14_15h44.27.197,searchDisc4,2020.2.10,Win32,60,,,space,0.754855,1,1,0.8084,,0,2,2,63,1,1a,63,2,4,
,,,,,,,,,,,,,,,,,,,,,,,,,,images/exp1b_trial_100_colour2_distractors1_l.png,l,1,006,001,2021-04-14_15h44.27.197,searchDisc4,2020.2.10,Win32,60,,,space,0.5626,1,1,1.02271,,0,3,3,214,1,1b,100,2,1,
,,,,,,,,,,,,,,,,,,,,,,,,,,images/exp2c_trial_68_colour3_distractors1_l.png,l,1,006,001,2021-04-14_15h44.27.197,searchDisc4,2020.2.10,Win32,60,,,space,0.610075,1,1,0.71015,,0,4,4,524,1,2c,68,3,1,
,,,,,,,,,,,,,,,,,,,,,,,,,,images/exp1a_trial_81_colour1_distractors43_r.png,r,2,006,001,2021-04-14_15h44.27.197,searchDisc4,2020.2.10,Win32,60,,,space,0.52459,2,1,0.689445,,0,5,5,81,1,1a,81,1,43,
,,,,,,,,,,,,,,,,,,,,,,,,,,images/exp2b_trial_43_colour1_distractors43_r.png,r,2,006,001,2021-04-14_15h44.27.197,searchDisc4,2020.2.10,Win32,60,,,space,0.562495,2,1,0.56846,,0,6,6,385,1,2b,43,1,43,
,,,,,,,,,,,,,,,,,,,,,,,,,,images/exp2b_trial_66_colour2_distractors31_l.png,l,1,006,001,2021-04-14_15h44.27.197,searchDisc4,2020.2.10,Win32,60,,,space,0.44401,1,1,0.81224,,0,7,7,408,1,2b,66,2,31,
,,,,,,,,,,,,,,,,,,,,,,,,,,images/exp1b_trial_70_colour3_distractors9_l.png,l,1,006,001,2021-04-14_15h44.27.197,searchDisc4,2020.2.10,Win32,60,,,space,0.384225,1,1,1.05289,,0,8,8,184,1,1b,70,3,9,
,,,,,,,,,,,,,,,,,,,,,,,,,,images/exp2c_trial_2_colour1_distractors9_r.png,r,2,006,001,2021-04-14_15h44.27.197,searchDisc4,2020.2.10,Win32,60,,,space,0.404995,2,1,0.809045,,0,9,9,458,1,2c,2,1,9,
,,,,,,,,,,,,,,,,,,,,,,,,,,images/exp2b_trial_58_colour1_distractors9_l.png,l,1,006,001,2021-04-14_15h44.27.197,searchDisc4,2020.2.10,Win32,60,,,space,0.3699,1,1,0.68618,,0,10,10,400,1,2b,58,1,9,
,,,,,,,,,,,,,,,,,,,,,,,,,,images/exp2b_trial_57_colour1_distractors4_l.png,l,1,006,001,2021-04-14_15h44.27.197,searchDisc4,2020.2.10,Win32,60,,,space,0.303225,1,1,0.639485,,0,11,11,399,1,2b,57,1,4,
,,,,,,,,,,,,,,,,,,,,,,,,,,images/exp2b_trial_2_colour1_distractors9_r.png,r,2,006,001,2021-04-14_15h44.27.197,searchDisc4,2020.2.10,Win32,60,,,space,0.295995,2,1,0.69544,,0,12,12,344,1,2b,2,1,9,
,,,,,,,,,,,,,,,,,,,,,,,,,,images/exp2a_trial_110_colour3_distractors31_l.png,l,1,006,001,2021-04-14_15h44.27.197,searchDisc4,2020.2.10,Win32,60,,,space,0.430975,1,1,0.855605,,0,13,13,338,1,2a,110,3,31,
,,,,,,,,,,,,,,,,,,,,,,,,,,images/exp2b_trial_46_colour2_distractors9_r.png,r,2,006,001,2021-04-14_15h44.27.197,searchDisc4,2020.2.10,Win32,60,,,space,0.29885,2,1,0.70628,,0,14,14,388,1,2b,46,2,9,
,,,,,,,,,,,,,,,,,,,,,,,,,,images/exp1b_trial_19_colour1_distractors4_l.png,l,1,006,001,2021-04-14_15h44.27.197,searchDisc4,2020.2.10,Win32,60,,,space,0.304565,1,1,0.73585,,0,15,15,133,1,1b,19,1,4,
,,,,,,,,,,,,,,,,,,,,,,,,,,images/exp1a_trial_6_colour2_distractors1_r.png,r,2,006,001,2021-04-14_15h44.27.197,searchDisc4,2020.2.10,Win32,60,,,space,0.28515,2,1,0.69232,,0,16,16,6,1,1a,6,2,1,
,,,,,,,,,,,,,,,,,,,,,,,,,,images/exp2a_trial_99_colour1_distractors43_l.png,l,1,006,001,2021-04-14_15h44.27.197,searchDisc4,2020.2.10,Win32,60,,,space,0.36559,1,1,0.70297,,0,17,17,327,1,2a,99,1,43,
,,,,,,,,,,,,,,,,,,,,,,,,,,images/exp2a_trial_3_colour1_distractors19_r.png,r,2,006,001,2021-04-14_15h44.27.197,searchDisc4,2020.2.10,Win32,60,,,space,0.296415,2,1,0.69531,,0,18,18,231,1,2a,3,1,19,
,,,,,,,,,,,,,,,,,,,,,,,,,,images/exp2c_trial_103_colour2_distractors19_l.png,l,1,006,001,2021-04-14_15h44.27.197,searchDisc4,2020.2.10,Win32,60,,,space,0.286945,1,1,0.615385,,0,19,19,559,1,2c,103,2,19,
,,,,,,,,,,,,,,,,,,,,,,,,,,images/exp2b_trial_50_colour3_distractors1_r.png,r,2,006,001,2021-04-14_15h44.27.197,searchDisc4,2020.2.10,Win32,60,,,space,0.313085,2,1,0.624935,,0,20,20,392,1,2b,50,3,1,
,,,,,,,,,,,,,,,,,,,,,,,,,,images/exp2b_trial_112_colour0_distractors0_r.png,r,2,006,001,2021-04-14_15h44.27.197,searchDisc4,2020.2.10,Win32,60,,,space,0.28266,2,1,0.73834,,0,21,21,454,1,2b,112,0,0,
,,,,,,,,,,,,,,,,,,,,,,,,,,images/exp2a_trial_23_colour1_distractors43_l.png,l,1,006,001,2021-04-14_15h44.27.197,searchDisc4,2020.2.10,Win32,60,,,space,0.26406,1,1,0.705165,,0,22,22,251,1,2a,23,1,43,
,,,,,,,,,,,,,,,,,,,,,,,,,,images/exp2b_trial_6_colour2_distractors1_r.png,r,2,006,001,2021-04-14_15h44.27.197,searchDisc4,2020.2.10,Win32,60,,,space,0.27181,2,1,0.696735,,0,23,23,348,1,2b,6,2,1,
,,,,,,,,,,,,,,,,,,,,,,,,,,images/exp1b_trial_6_colour2_distractors1_r.png,r,2,006,001,2021-04-14_15h44.27.197,searchDisc4,2020.2.10,Win32,60,,,space,0.215835,2,1,0.54655,,0,24,24,120,1,1b,6,2,1,
,,,,,,,,,,,,,,,,,,,,,,,,,,images/exp2c_trial_57_colour1_distractors4_l.png,l,1,006,001,2021-04-14_15h44.27.197,searchDisc4,2020.2.10,Win32,60,,,space,0.215605,1,1,0.544845,,0,25,25,513,1,2c,57,1,4,
,,,,,,,,,,,,,,,,,,,,,,,,,,images/exp2a_trial_11_colour2_distractors43_r.png,r,2,006,001,2021-04-14_15h44.27.197,searchDisc4,2020.2.10,Win32,60,,,space,0.23854,2,1,0.6062,,0,26,26,239,1,2a,11,2,43,
,,,,,,,,,,,,,,,,,,,,,,,,,,images/exp1b_trial_113_colour0_distractors0_l.png,l,1,006,001,2021-04-14_15h44.27.197,searchDisc4,2020.2.10,Win32,60,,,space,0.26736,1,1,0.819235,,0,27,27,227,1,1b,113,0,0,
,,,,,,,,,,,,,,,,,,,,,,,,,,images/exp1a_trial_33_colour3_distractors19_l.png,l,1,006,001,2021-04-14_15h44.27.197,searchDisc4,2020.2.10,Win32,60,,,space,0.278315,1,1,0.68719,,0,28,28,33,1,1a,33,3,19,
,,,,,,,,,,,,,,,,,,,,,,,,,,images/exp1a_trial_90_colour3_distractors9_r.png,r,2,006,001,2021-04-14_15h44.27.197,searchDisc4,2020.2.10,Win32,60,,,space,0.182395,2,1,0.680215,,0,29,29,90,1,1a,90,3,9,
,,,,,,,,,,,,,,,,,,,,,,,,,,images/exp2c_trial_29_colour2_distractors43_l.png,l,1,006,001,2021-04-14_15h44.27.197,searchDisc4,2020.2.10,Win32,60,,,space,0.32186,1,1,0.744485,,0,30,30,485,1,2c,29,2,43,
,,,,,,,,,,,,,,,,,,,,,,,,,,images/exp1b_trial_9_colour2_distractors19_r.png,r,2,006,001,2021-04-14_15h44.27.197,searchDisc4,2020.2.10,Win32,60,,,space,0.23682,2,1,0.888055,,0,31,31,123,1,1b,9,2,19,
,,,,,,,,,,,,,,,,,,,,,,,,,,images/exp1a_trial_99_colour1_distractors43_l.png,l,1,006,001,2021-04-14_15h44.27.197,searchDisc4,2020.2.10,Win32,60,,,space,0.21647,1,1,0.647175,,0,32,32,99,1,1a,99,1,43,
,,,,,,,,,,,,,,,,,,,,,,,,,,images/exp1b_trial_71_colour3_distractors19_l.png,l,1,006,001,2021-04-14_15h44.27.197,searchDisc4,2020.2.10,Win32,60,,,space,0.20976,1,1,1.54803,,0,33,33,185,1,1b,71,3,19,
,,,,,,,,,,,,,,,,,,,,,,,,,,images/exp1b_trial_75_colour0_distractors0_l.png,l,1,006,001,2021-04-14_15h44.27.197,searchDisc4,2020.2.10,Win32,60,,,space,0.202275,1,1,0.581895,,0,34,34,189,1,1b,75,0,0,
,,,,,,,,,,,,,,,,,,,,,,,,,,images/exp1a_trial_110_colour3_distractors31_l.png,l,1,006,001,2021-04-14_15h44.27.197,searchDisc4,2020.2.10,Win32,60,,,space,0.209005,1,1,0.67585,,0,35,35,110,1,1a,110,3,31,
,,,,,,,,,,,,,,,,,,,,,,,,,,images/exp1b_trial_105_colour2_distractors43_l.png,l,1,006,001,2021-04-14_15h44.27.197,searchDisc4,2020.2.10,Win32,60,,,space,0.2593,1,1,1.133575,,0,36,36,219,1,1b,105,2,43,
,,,,,,,,,,,,,,,,,,,,,,,,,,images/exp1a_trial_42_colour1_distractors31_r.png,r,2,006,001,2021-04-14_15h44.27.197,searchDisc4,2020.2.10,Win32,60,,,space,0.243265,2,1,0.72416,,0,37,37,42,1,1a,42,1,31,
,,,,,,,,,,,,,,,,,,,,,,,,,,images/exp2b_trial_51_colour3_distractors4_r.png,r,2,006,001,2021-04-14_15h44.27.197,searchDisc4,2020.2.10,Win32,60,,,space,0.316825,2,1,0.6825,,0,38,38,393,1,2b,51,3,4,
,,,,,,,,,,,,,,,,,,,,,,,,,,images/exp2a_trial_106_colour3_distractors1_l.png,l,1,006,001,2021-04-14_15h44.27.197,searchDisc4,2020.2.10,Win32,60,,,space,0.193425,1,1,0.661915,,0,39,39,334,1,2a,106,3,1,
,,,,,,,,,,,,,,,,,,,,,,,,,,images/exp2b_trial_36_colour0_distractors0_r.png,r,2,006,001,2021-04-14_15h44.27.197,searchDisc4,2020.2.10,Win32,60,,,space,0.18965,2,1,0.73632,,0,40,40,378,1,2b,36,0,0,
,,,,,,,,,,,,,,,,,,,,,,,,,,images/exp1a_trial_30_colour3_distractors1_l.png,l,1,006,001,2021-04-14_15h44.27.197,searchDisc4,2020.2.10,Win32,60,,,space,0.247325,1,1,0.64139,,0,41,41,30,1,1a,30,3,1,
,,,,,,,,,,,,,,,,,,,,,,,,,,images/exp1a_trial_5_colour1_distractors43_r.png,r,2,006,001,2021-04-14_15h44.27.197,searchDisc4,2020.2.10,Win32,60,,,space,0.210375,2,1,0.64359,,0,42,42,5,1,1a,5,1,43,
,,,,,,,,,,,,,,,,,,,,,,,,,,images/exp2c_trial_49_colour2_distractors43_r.png,r,2,006,001,2021-04-14_15h44.27.197,searchDisc4,2020.2.10,Win32,60,,,space,0.25456,2,1,0.7136,,0,43,43,505,1,2c,49,2,43,
,,,,,,,,,,,,,,,,,,,,,,,,,,images/exp1b_trial_104_colour2_distractors31_l.png,l,1,006,001,2021-04-14_15h44.27.197,searchDisc4,2020.2.10,Win32,60,,,space,0.214105,1,1,0.937765,,0,44,44,218,1,1b,104,2,31,
,,,,,,,,,,,,,,,,,,,,,,,,,,images/exp2a_trial_67_colour2_distractors43_l.png,l,1,006,001,2021-04-14_15h44.27.197,searchDisc4,2020.2.10,Win32,60,,,space,0.216545,1,1,0.766665,,0,45,45,295,1,2a,67,2,43,
,,,,,,,,,,,,,,,,,,,,,,,,,,images/exp2b_trial_63_colour2_distractors4_l.png,l,1,006,001,2021-04-14_15h44.27.197,searchDisc4,2020.2.10,Win32,60,,,space,0.20573,1,1,0.64133,,0,46,46,405,1,2b,63,2,4,
,,,,,,,,,,,,,,,,,,,,,,,,,,images/exp1b_trial_28_colour2_distractors31_l.png,l,1,006,001,2021-04-14_15h44.27.197,searchDisc4,2020.2.10,Win32,60,,,space,0.2105,1,1,0.597875,,0,47,47,142,1,1b,28,2,31,
,,,,,,,,,,,,,,,,,,,,,,,,,,images/exp2a_trial_95_colour1_distractors4_l.png,l,1,006,001,2021-04-14_15h44.27.197,searchDisc4,2020.2.10,Win32,60,,,space,0.2393,1,1,0.679415,,0,48,48,323,1,2a,95,1,4,
,,,,,,,,,,,,,,,,,,,,,,,,,,images/exp1b_trial_102_colour2_distractors9_l.png,l,1,006,001,2021-04-14_15h44.27.197,searchDisc4,2020.2.10,Win32,60,,,space,0.25795,1,1,0.539745,,0,49,49,216,1,1b,102,2,9,
,,,,,,,,,,,,,,,,,,,,,,,,,,images/exp1b_trial_65_colour2_distractors19_l.png,l,1,006,001,2021-04-14_15h44.27.197,searchDisc4,2020.2.10,Win32,60,,,space,0.28884,1,1,0.575195,,0,50,50,179,1,1b,65,2,19,
,,,,,,,,,,,,,,,,,,,,,,,,,,images/exp2b_trial_25_colour2_distractors4_l.png,l,1,006,001,2021-04-14_15h44.27.197,searchDisc4,2020.2.10,Win32,60,,,space,0.245075,1,1,0.55012,,0,51,51,367,1,2b,25,2,4,
,,,,,,,,,,,,,,,,,,,,,,,,,,images/exp2a_trial_29_colour2_distractors43_l.png,l,1,006,001,2021-04-14_15h44.27.197,searchDisc4,2020.2.10,Win32,60,,,space,0.23564,1,1,0.580025,,0,52,52,257,1,2a,29,2,43,
,,,,,,,,,,,,,,,,,,,,,,,,,,images/exp2c_trial_6_colour2_distractors1_r.png,r,2,006,001,2021-04-14_15h44.27.197,searchDisc4,2020.2.10,Win32,60,,,space,0.209085,2,1,0.779915,,0,53,53,462,1,2c,6,2,1,
,,,,,,,,,,,,,,,,,,,,,,,,,,images/exp2a_trial_111_colour3_distractors43_l.png,l,1,006,001,2021-04-14_15h44.27.197,searchDisc4,2020.2.10,Win32,60,,,space,0.336,1,1,0.707105,,0,54,54,339,1,2a,111,3,43,
,,,,,,,,,,,,,,,,,,,,,,,,,,images/exp1b_trial_67_colour2_distractors43_l.png,l,1,006,001,2021-04-14_15h44.27.197,searchDisc4,2020.2.10,Win32,60,,,space,0.1888,1,1,0.798835,,0,55,55,181,1,1b,67,2,43,
,,,,,,,,,,,,,,,,,,,,,,,,,,images/exp2c_trial_48_colour2_distractors31_r.png,r,2,006,001,2021-04-14_15h44.27.197,searchDisc4,2020.2.10,Win32,60,,,space,0.17136,2,1,0.893315,,0,56,56,504,1,2c,48,2,31,
,,,,,,,,,,,,,,,,,,,,,,,,,,images/exp2b_trial_32_colour3_distractors9_l.png,l,1,006,001,2021-04-14_15h44.27.197,searchDisc4,2020.2.10,Win32,60,,,space,0.24681,1,1,0.746145,,0,57,57,374,1,2b,32,3,9,
,,,,,,,,,,,,,,,,,,,,,,,,,,images/exp2a_trial_49_colour2_distractors43_r.png,r,2,006,001,2021-04-14_15h44.27.197,searchDisc4,2020.2.10,Win32,60,,,space,0.20574,2,1,0.767325,,0,58,58,277,1,2a,49,2,43,
,,,,,,,,,,,,,,,,,,,,,,,,,,images/exp2c_trial_34_colour3_distractors31_l.png,l,1,006,001,2021-04-14_15h44.27.197,searchDisc4,2020.2.10,Win32,60,,,space,0.236645,1,1,0.614485,space,0,59,59,490,1,2c,34,3,31,0.16787
,,,,,,,,,,,,,,,,,,,,,,,,,,images/exp2c_trial_109_colour3_distractors19_l.png,l,1,006,001,2021-04-14_15h44.27.197,searchDisc4,2020.2.10,Win32,60,,,space,1.45856,1,1,0.58699,,0,60,60,565,1,2c,109,3,19,
,,,,,,,,,,,,,,,,,,,,,,,,,,images/exp2c_trial_17_colour3_distractors43_r.png,r,2,006,001,2021-04-14_15h44.27.197,searchDisc4,2020.2.10,Win32,60,,,space,0.183165,2,1,0.62524,,0,61,61,473,1,2c,17,3,43,
,,,,,,,,,,,,,,,,,,,,,,,,,,images/exp2a_trial_14_colour3_distractors9_r.png,r,2,006,001,2021-04-14_15h44.27.197,searchDisc4,2020.2.10,Win32,60,,,space,0.197005,2,1,1.61394,,0,62,62,242,1,2a,14,3,9,
,,,,,,,,,,,,,,,,,,,,,,,,,,images/exp2a_trial_65_colour2_distractors19_l.png,l,1,006,001,2021-04-14_15h44.27.197,searchDisc4,2020.2.10,Win32,60,,,space,0.251225,1,1,1.0833,,0,63,63,293,1,2a,65,2,19,
,,,,,,,,,,,,,,,,,,,,,,,,,,images/exp2b_trial_60_colour1_distractors31_l.png,l,1,006,001,2021-04-14_15h44.27.197,searchDisc4,2020.2.10,Win32,60,,,space,0.23592,1,1,0.710635,,0,64,64,402,1,2b,60,1,31,
,,,,,,,,,,,,,,,,,,,,,,,,,,images/exp1b_trial_33_colour3_distractors19_l.png,l,1,006,001,2021-04-14_15h44.27.197,searchDisc4,2020.2.10,Win32,60,,,space,0.20469,1,1,1.040665,,0,65,65,147,1,1b,33,3,19,
,,,,,,,,,,,,,,,,,,,,,,,,,,images/exp2b_trial_94_colour1_distractors1_l.png,l,1,006,001,2021-04-14_15h44.27.197,searchDisc4,2020.2.10,Win32,60,,,space,0.21762,1,1,0.613245,,0,66,66,436,1,2b,94,1,1,
,,,,,,,,,,,,,,,,,,,,,,,,,,images/exp2a_trial_43_colour1_distractors43_r.png,r,2,006,001,2021-04-14_15h44.27.197,searchDisc4,2020.2.10,Win32,60,,,space,0.246755,2,1,0.74384,,0,67,67,271,1,2a,43,1,43,
,,,,,,,,,,,,,,,,,,,,,,,,,,images/exp2a_trial_69_colour3_distractors4_l.png,l,1,006,001,2021-04-14_15h44.27.197,searchDisc4,2020.2.10,Win32,60,,,space,0.253325,1,1,0.687075,,0,68,68,297,1,2a,69,3,4,
,,,,,,,,,,,,,,,,,,,,,,,,,,images/exp1a_trial_51_colour3_distractors4_r.png,r,2,006,001,2021-04-14_15h44.27.197,searchDisc4,2020.2.10,Win32,60,,,space,0.261695,2,1,0.551845,,0,69,69,51,1,1a,51,3,4,
,,,,,,,,,,,,,,,,,,,,,,,,,,images/exp1a_trial_72_colour3_distractors31_l.png,l,1,006,001,2021-04-14_15h44.27.197,searchDisc4,2020.2.10,Win32,60,,,space,0.20341,1,1,0.53203,,0,70,70,72,1,1a,72,3,31,
,,,,,,,,,,,,,,,,,,,,,,,,,,images/exp2b_trial_14_colour3_distractors9_r.png,r,2,006,001,2021-04-14_15h44.27.197,searchDisc4,2020.2.10,Win32,60,,,space,0.220845,2,1,0.839975,,0,71,71,356,1,2b,14,3,9,
,,,,,,,,,,,,,,,,,,,,,,,,,,images/exp2c_trial_82_colour2_distractors1_r.png,r,2,006,001,2021-04-14_15h44.27.197,searchDisc4,2020.2.10,Win32,60,,,space,0.48898,2,1,0.735935,,0,72,72,538,1,2c,82,2,1,
,,,,,,,,,,,,,,,,,,,,,,,,,,images/exp2a_trial_108_colour3_distractors9_l.png,l,1,006,001,2021-04-14_15h44.27.197,searchDisc4,2020.2.10,Win32,60,,,space,0.27081,1,1,1.4697,,0,73,73,336,1,2a,108,3,9,
,,,,,,,,,,,,,,,,,,,,,,,,,,images/exp1a_trial_23_colour1_distractors43_l.png,l,1,006,001,2021-04-14_15h44.27.197,searchDisc4,2020.2.10,Win32,60,,,space,0.343285,1,1,1.14054,,0,74,74,23,1,1a,23,1,43,
,,,,,,,,,,,,,,,,,,,,,,,,,,images/exp1a_trial_10_colour2_distractors31_r.png,r,2,006,001,2021-04-14_15h44.27.197,searchDisc4,2020.2.10,Win32,60,,,space,0.2256,2,1,0.637485,,0,75,75,10,1,1a,10,2,31,
,,,,,,,,,,,,,,,,,,,,,,,,,,images/exp2c_trial_24_colour2_distractors1_l.png,l,1,006,001,2021-04-14_15h44.27.197,searchDisc4,2020.2.10,Win32,60,,,space,0.311,1,1,0.67088,,0,76,76,480,1,2c,24,2,1,
,,,,,,,,,,,,,,,,,,,,,,,,,,images/exp2b_trial_95_colour1_distractors4_l.png,l,1,006,001,2021-04-14_15h44.27.197,searchDisc4,2020.2.10,Win32,60,,,space,0.2387,1,1,0.67243,,0,77,77,437,1,2b,95,1,4,
,,,,,,,,,,,,,,,,,,,,,,,,,,images/exp1b_trial_4_colour1_distractors31_r.png,r,2,006,001,2021-04-14_15h44.27.197,searchDisc4,2020.2.10,Win32,60,,,space,0.23276,2,1,0.59375,,0,78,78,118,1,1b,4,1,31,
,,,,,,,,,,,,,,,,,,,,,,,,,,images/exp2a_trial_105_colour2_distractors43_l.png,l,1,006,001,2021-04-14_15h44.27.197,searchDisc4,2020.2.10,Win32,60,,,space,0.22131,1,1,0.55805,,0,79,79,333,1,2a,105,2,43,
,,,,,,,,,,,,,,,,,,,,,,,,,,images/exp2a_trial_100_colour2_distractors1_l.png,l,1,006,001,2021-04-14_15h44.27.197,searchDisc4,2020.2.10,Win32,60,,,space,0.228925,1,1,1.19213,,0,80,80,328,1,2a,100,2,1,
,,,,,,,,,,,,,,,,,,,,,,,,,,images/exp2c_trial_88_colour3_distractors1_r.png,r,2,006,001,2021-04-14_15h44.27.197,searchDisc4,2020.2.10,Win32,60,,,space,0.2189,2,1,0.66286,,0,81,81,544,1,2c,88,3,1,
,,,,,,,,,,,,,,,,,,,,,,,,,,images/exp1b_trial_48_colour2_distractors31_r.png,r,2,006,001,2021-04-14_15h44.27.197,searchDisc4,2020.2.10,Win32,60,,,space,0.22182,2,1,0.783155,,0,82,82,162,1,1b,48,2,31,
,,,,,,,,,,,,,,,,,,,,,,,,,,images/exp2b_trial_18_colour1_distractors1_l.png,l,1,006,001,2021-04-14_15h44.27.197,searchDisc4,2020.2.10,Win32,60,,,space,0.235535,1,1,0.55001,,0,83,83,360,1,2b,18,1,1,
,,,,,,,,,,,,,,,,,,,,,,,,,,images/exp2b_trial_44_colour2_distractors1_r.png,r,2,006,001,2021-04-14_15h44.27.197,searchDisc4,2020.2.10,Win32,60,,,space,0.275185,2,1,1.03575,,0,84,84,386,1,2b,44,2,1,
,,,,,,,,,,,,,,,,,,,,,,,,,,images/exp2b_trial_53_colour3_distractors19_r.png,r,2,006,001,2021-04-14_15h44.27.197,searchDisc4,2020.2.10,Win32,60,,,space,0.35636,2,1,0.681585,,0,85,85,395,1,2b,53,3,19,
,,,,,,,,,,,,,,,,,,,,,,,,,,images/exp1b_trial_103_colour2_distractors19_l.png,l,1,006,001,2021-04-14_15h44.27.197,searchDisc4,2020.2.10,Win32,60,,,space,0.28973,1,1,1.01807,,0,86,86,217,1,1b,103,2,19,
,,,,,,,,,,,,,,,,,,,,,,,,,,images/exp2b_trial_20_colour1_distractors9_l.png,l,1,006,001,2021-04-14_15h44.27.197,searchDisc4,2020.2.10,Win32,60,,,space,0.250565,1,1,0.676155,,0,87,87,362,1,2b,20,1,9,
,,,,,,,,,,,,,,,,,,,,,,,,,,images/exp2b_trial_98_colour1_distractors31_l.png,l,1,006,001,2021-04-14_15h44.27.197,searchDisc4,2020.2.10,Win32,60,,,space,0.28535,1,1,0.573465,,0,88,88,440,1,2b,98,1,31,
,,,,,,,,,,,,,,,,,,,,,,,,,,images/exp1b_trial_44_colour2_distractors1_r.png,r,2,006,001,2021-04-14_15h44.27.197,searchDisc4,2020.2.10,Win32,60,,,space,0.23199,2,1,0.71571,,0,89,89,158,1,1b,44,2,1,
,,,,,,,,,,,,,,,,,,,,,,,,,,images/exp2a_trial_31_colour3_distractors4_l.png,l,1,006,001,2021-04-14_15h44.27.197,searchDisc4,2020.2.10,Win32,60,,,space,0.26592,1,1,0.61008,,0,90,90,259,1,2a,31,3,4,
,,,,,,,,,,,,,,,,,,,,,,,,,,images/exp2c_trial_10_colour2_distractors31_r.png,r,2,006,001,2021-04-14_15h44.27.197,searchDisc4,2020.2.10,Win32,60,,,space,0.27702,2,1,0.69394,,0,91,91,466,1,2c,10,2,31,
,,,,,,,,,,,,,,,,,,,,,,,,,,images/exp2b_trial_79_colour1_distractors19_r.png,r,2,006,001,2021-04-14_15h44.27.197,searchDisc4,2020.2.10,Win32,60,,,space,0.261045,2,1,0.62283,,0,92,92,421,1,2b,79,1,19,
,,,,,,,,,,,,,,,,,,,,,,,,,,images/exp1a_trial_71_colour3_distractors19_l.png,l,1,006,001,2021-04-14_15h44.27.197,searchDisc4,2020.2.10,Win32,60,,,space,0.2246,1,1,0.53572,,0,93,93,71,1,1a,71,3,19,
,,,,,,,,,,,,,,,,,,,,,,,,,,images/exp1b_trial_55_colour3_distractors43_r.png,r,2,006,001,2021-04-14_15h44.27.197,searchDisc4,2020.2.10,Win32,60,,,space,0.26555,2,1,1.22577,,0,94,94,169,1,1b,55,3,43,
,,,,,,,,,,,,,,,,,,,,,,,,,,images/exp1a_trial_78_colour1_distractors9_r.png,r,2,006,001,2021-04-14_15h44.27.197,searchDisc4,2020.2.10,Win32,60,,,space,0.259355,2,1,0.66912,,0,95,95,78,1,1a,78,1,9,
,,,,,,,,,,,,,,,,,,,,,,,,,,images/exp2a_trial_53_colour3_distractors19_r.png,r,2,006,001,2021-04-14_15h44.27.197,searchDisc4,2020.2.10,Win32,60,,,space,0.26094,2,1,0.605555,,0,96,96,281,1,2a,53,3,19,
,,,,,,,,,,,,,,,,,,,,,,,,,,images/exp2b_trial_55_colour3_distractors43_r.png,r,2,006,001,2021-04-14_15h44.27.197,searchDisc4,2020.2.10,Win32,60,,,space,0.25707,2,1,0.56225,,0,97,97,397,1,2b,55,3,43,
,,,,,,,,,,,,,,,,,,,,,,,,,,images/exp1a_trial_16_colour3_distractors31_r.png,r,2,006,001,2021-04-14_15h44.27.197,searchDisc4,2020.2.10,Win32,60,,,space,0.237995,2,1,0.775635,,0,98,98,16,1,1a,16,3,31,
,,,,,,,,,,,,,,,,,,,,,,,,,,images/exp1b_trial_99_colour1_distractors43_l.png,l,1,006,001,2021-04-14_15h44.27.197,searchDisc4,2020.2.10,Win32,60,,,space,0.251485,1,1,1.019885,,0,99,99,213,1,1b,99,1,43,
,,,,,,,,,,,,,,,,,,,,,,,,,,images/exp2b_trial_104_colour2_distractors31_l.png,l,1,006,001,2021-04-14_15h44.27.197,searchDisc4,2020.2.10,Win32,60,,,space,0.22418,1,1,0.56004,,0,100,100,446,1,2b,104,2,31,
,,,,,,,,,,,,,,,,,,,,,,,,,,images/exp1b_trial_10_colour2_distractors31_r.png,r,2,006,001,2021-04-14_15h44.27.197,searchDisc4,2020.2.10,Win32,60,,,space,0.2064,2,1,0.82586,,0,101,101,124,1,1b,10,2,31,
,,,,,,,,,,,,,,,,,,,,,,,,,,images/exp2b_trial_70_colour3_distractors9_l.png,l,1,006,001,2021-04-14_15h44.27.197,searchDisc4,2020.2.10,Win32,60,,,space,0.23627,1,1,0.65469,,0,102,102,412,1,2b,70,3,9,
,,,,,,,,,,,,,,,,,,,,,,,,,,images/exp1a_trial_107_colour3_distractors4_l.png,l,1,006,001,2021-04-14_15h44.27.197,searchDisc4,2020.2.10,Win32,60,,,space,0.30331,1,1,0.66988,,0,103,103,107,1,1a,107,3,4,
,,,,,,,,,,,,,,,,,,,,,,,,,,images/exp2a_trial_50_colour3_distractors1_r.png,r,2,006,001,2021-04-14_15h44.27.197,searchDisc4,2020.2.10,Win32,60,,,space,0.199625,2,1,0.72231,,0,104,104,278,1,2a,50,3,1,
,,,,,,,,,,,,,,,,,,,,,,,,,,images/exp2a_trial_109_colour3_distractors19_l.png,l,1,006,001,2021-04-14_15h44.27.197,searchDisc4,2020.2.10,Win32,60,,,space,0.279935,1,1,0.87908,,0,105,105,337,1,2a,109,3,19,
,,,,,,,,,,,,,,,,,,,,,,,,,,images/exp2a_trial_28_colour2_distractors31_l.png,l,1,006,001,2021-04-14_15h44.27.197,searchDisc4,2020.2.10,Win32,60,,,space,0.24932,1,1,0.544225,,0,106,106,256,1,2a,28,2,31,
,,,,,,,,,,,,,,,,,,,,,,,,,,images/exp2c_trial_80_colour1_distractors31_r.png,r,2,006,001,2021-04-14_15h44.27.197,searchDisc4,2020.2.10,Win32,60,,,space,0.23014,2,1,0.72816,,0,107,107,536,1,2c,80,1,31,
,,,,,,,,,,,,,,,,,,,,,,,,,,images/exp2c_trial_92_colour3_distractors31_r.png,r,2,006,001,2021-04-14_15h44.27.197,searchDisc4,2020.2.10,Win32,60,,,space,0.246375,2,1,0.750345,,0,108,108,548,1,2c,92,3,31,
,,,,,,,,,,,,,,,,,,,,,,,,,,images/exp1a_trial_60_colour1_distractors31_l.png,l,1,006,001,2021-04-14_15h44.27.197,searchDisc4,2020.2.10,Win32,60,,,space,0.21302,1,1,0.64765,,0,109,109,60,1,1a,60,1,31,
,,,,,,,,,,,,,,,,,,,,,,,,,,images/exp2a_trial_86_colour2_distractors31_r.png,r,2,006,001,2021-04-14_15h44.27.197,searchDisc4,2020.2.10,Win32,60,,,space,0.201145,2,1,0.618785,,0,110,110,314,1,2a,86,2,31,
,,,,,,,,,,,,,,,,,,,,,,,,,,images/exp1b_trial_112_colour0_distractors0_r.png,r,2,006,001,2021-04-14_15h44.27.197,searchDisc4,2020.2.10,Win32,60,,,space,0.22256,2,1,0.969775,,0,111,111,226,1,1b,112,0,0,
,,,,,,,,,,,,,,,,,,,,,,,,,,images/exp1a_trial_73_colour3_distractors43_l.png,l,1,006,001,2021-04-14_15h44.27.197,searchDisc4,2020.2.10,Win32,60,,,space,0.55753,1,1,0.811505,,0,112,112,73,1,1a,73,3,43,
,,,,,,,,,,,,,,,,,,,,,,,,,,images/exp1a_trial_25_colour2_distractors4_l.png,l,1,006,001,2021-04-14_15h44.27.197,searchDisc4,2020.2.10,Win32,60,,,space,0.30892,1,1,0.78102,,0,113,113,25,1,1a,25,2,4,
,,,,,,,,,,,,,,,,,,,,,,,,,,images/exp1a_trial_87_colour2_distractors43_r.png,r,2,006,001,2021-04-14_15h44.27.197,searchDisc4,2020.2.10,Win32,60,,,space,0.2238,2,1,0.817555,,0,114,114,87,1,1a,87,2,43,
,,,,,,,,,,,,,,,,,,,,,,,,,,images/exp1b_trial_40_colour1_distractors9_r.png,r,2,006,001,2021-04-14_15h44.27.197,searchDisc4,2020.2.10,Win32,60,,,space,0.22876,2,1,0.88628,,0,115,115,154,1,1b,40,1,9,
,,,,,,,,,,,,,,,,,,,,,,,,,,images/exp2b_trial_1_colour1_distractors4_r.png,r,2,006,001,2021-04-14_15h44.27.197,searchDisc4,2020.2.10,Win32,60,,,space,0.254815,2,1,0.800555,,0,116,116,343,1,2b,1,1,4,
,,,,,,,,,,,,,,,,,,,,,,,,,,images/exp1a_trial_109_colour3_distractors19_l.png,l,1,006,001,2021-04-14_15h44.27.197,searchDisc4,2020.2.10,Win32,60,,,space,0.20256,1,1,0.69427,,0,117,117,109,1,1a,109,3,19,
,,,,,,,,,,,,,,,,,,,,,,,,,,images/exp2a_trial_98_colour1_distractors31_l.png,l,1,006,001,2021-04-14_15h44.27.197,searchDisc4,2020.2.10,Win32,60,,,space,0.18217,1,1,0.68914,,0,118,118,326,1,2a,98,1,31,
,,,,,,,,,,,,,,,,,,,,,,,,,,images/exp1b_trial_110_colour3_distractors31_l.png,l,1,006,001,2021-04-14_15h44.27.197,searchDisc4,2020.2.10,Win32,60,,,space,0.160695,1,1,0.9018,space,0,119,119,224,1,1b,110,3,31,0.21862
,,,,,,,,,,,,,,,,,,,,,,,,,,images/exp1a_trial_59_colour1_distractors19_l.png,l,1,006,001,2021-04-14_15h44.27.197,searchDisc4,2020.2.10,Win32,60,,,space,1.25986,1,1,0.65858,,0,120,120,59,1,1a,59,1,19,
,,,,,,,,,,,,,,,,,,,,,,,,,,images/exp1b_trial_52_colour3_distractors9_r.png,r,2,006,001,2021-04-14_15h44.27.197,searchDisc4,2020.2.10,Win32,60,,,space,0.205675,2,1,0.825435,,0,121,121,166,1,1b,52,3,9,
,,,,,,,,,,,,,,,,,,,,,,,,,,images/exp2a_trial_92_colour3_distractors31_r.png,r,2,006,001,2021-04-14_15h44.27.197,searchDisc4,2020.2.10,Win32,60,,,space,0.227255,2,1,0.572485,,0,122,122,320,1,2a,92,3,31,
,,,,,,,,,,,,,,,,,,,,,,,,,,images/exp2a_trial_16_colour3_distractors31_r.png,r,2,006,001,2021-04-14_15h44.27.197,searchDisc4,2020.2.10,Win32,60,,,space,0.24165,2,1,0.80935,,0,123,123,244,1,2a,16,3,31,
,,,,,,,,,,,,,,,,,,,,,,,,,,images/exp2b_trial_82_colour2_distractors1_r.png,r,2,006,001,2021-04-14_15h44.27.197,searchDisc4,2020.2.10,Win32,60,,,space,0.3027,2,1,0.67767,,0,124,124,424,1,2b,82,2,1,
,,,,,,,,,,,,,,,,,,,,,,,,,,images/exp2b_trial_34_colour3_distractors31_l.png,l,1,006,001,2021-04-14_15h44.27.197,searchDisc4,2020.2.10,Win32,60,,,space,0.253705,1,1,0.623095,,0,125,125,376,1,2b,34,3,31,
,,,,,,,,,,,,,,,,,,,,,,,,,,images/exp2c_trial_15_colour3_distractors19_r.png,r,2,006,001,2021-04-14_15h44.27.197,searchDisc4,2020.2.10,Win32,60,,,space,0.176615,2,1,0.47714,,0,126,126,471,1,2c,15,3,19,
,,,,,,,,,,,,,,,,,,,,,,,,,,images/exp2a_trial_4_colour1_distractors31_r.png,r,2,006,001,2021-04-14_15h44.27.197,searchDisc4,2020.2.10,Win32,60,,,space,0.30133,2,1,0.651295,,0,127,127,232,1,2a,4,1,31,
,,,,,,,,,,,,,,,,,,,,,,,,,,images/exp2b_trial_45_colour2_distractors4_r.png,r,2,006,001,2021-04-14_15h44.27.197,searchDisc4,2020.2.10,Win32,60,,,space,0.261925,2,1,0.534895,,0,128,128,387,1,2b,45,2,4,
,,,,,,,,,,,,,,,,,,,,,,,,,,images/exp1b_trial_23_colour1_distractors43_l.png,l,1,006,001,2021-04-14_15h44.27.197,searchDisc4,2020.2.10,Win32,60,,,space,0.260375,2,0,0.71745,,0,129,129,137,1,1b,23,1,43,
,,,,,,,,,,,,,,,,,,,,,,,,,,images/exp1b_trial_107_colour3_distractors4_l.png,l,1,006,001,2021-04-14_15h44.27.197,searchDisc4,2020.2.10,Win32,60,,,space,0.619785,1,1,2.16725,,0,130,130,221,1,1b,107,3,4,
,,,,,,,,,,,,,,,,,,,,,,,,,,images/exp2b_trial_48_colour2_distractors31_r.png,r,2,006,001,2021-04-14_15h44.27.197,searchDisc4,2020.2.10,Win32,60,,,space,0.3549,2,1,0.592575,,0,131,131,390,1,2b,48,2,31,
,,,,,,,,,,,,,,,,,,,,,,,,,,images/exp2a_trial_8_colour2_distractors9_r.png,r,2,006,001,2021-04-14_15h44.27.197,searchDisc4,2020.2.10,Win32,60,,,space,0.23555,2,1,0.61301,,0,132,132,236,1,2a,8,2,9,
,,,,,,,,,,,,,,,,,,,,,,,,,,images/exp2a_trial_41_colour1_distractors19_r.png,r,2,006,001,2021-04-14_15h44.27.197,searchDisc4,2020.2.10,Win32,60,,,space,0.232055,2,1,0.640735,,0,133,133,269,1,2a,41,1,19,
,,,,,,,,,,,,,,,,,,,,,,,,,,images/exp2c_trial_31_colour3_distractors4_l.png,l,1,006,001,2021-04-14_15h44.27.197,searchDisc4,2020.2.10,Win32,60,,,space,0.21133,1,1,0.6469,,0,134,134,487,1,2c,31,3,4,
,,,,,,,,,,,,,,,,,,,,,,,,,,images/exp2a_trial_44_colour2_distractors1_r.png,r,2,006,001,2021-04-14_15h44.27.197,searchDisc4,2020.2.10,Win32,60,,,space,0.167195,2,1,0.859975,,0,135,135,272,1,2a,44,2,1,
,,,,,,,,,,,,,,,,,,,,,,,,,,images/exp1a_trial_26_colour2_distractors9_l.png,l,1,006,001,2021-04-14_15h44.27.197,searchDisc4,2020.2.10,Win32,60,,,space,0.236645,1,1,0.716995,,0,136,136,26,1,1a,26,2,9,
,,,,,,,,,,,,,,,,,,,,,,,,,,images/exp1a_trial_58_colour1_distractors9_l.png,l,1,006,001,2021-04-14_15h44.27.197,searchDisc4,2020.2.10,Win32,60,,,space,0.196995,1,1,0.617085,,0,137,137,58,1,1a,58,1,9,
,,,,,,,,,,,,,,,,,,,,,,,,,,images/exp2c_trial_86_colour2_distractors31_r.png,r,2,006,001,2021-04-14_15h44.27.197,searchDisc4,2020.2.10,Win32,60,,,space,0.17899,2,1,0.67961,,0,138,138,542,1,2c,86,2,31,
,,,,,,,,,,,,,,,,,,,,,,,,,,images/exp2a_trial_34_colour3_distractors31_l.png,l,1,006,001,2021-04-14_15h44.27.197,searchDisc4,2020.2.10,Win32,60,,,space,0.27917,1,1,0.75726,,0,139,139,262,1,2a,34,3,31,
,,,,,,,,,,,,,,,,,,,,,,,,,,images/exp1b_trial_54_colour3_distractors31_r.png,r,2,006,001,2021-04-14_15h44.27.197,searchDisc4,2020.2.10,Win32,60,,,space,0.204585,2,1,1.920385,,0,140,140,168,1,1b,54,3,31,
,,,,,,,,,,,,,,,,,,,,,,,,,,images/exp2c_trial_33_colour3_distractors19_l.png,l,1,006,001,2021-04-14_15h44.27.197,searchDisc4,2020.2.10,Win32,60,,,space,0.29476,1,1,0.838025,,0,141,141,489,1,2c,33,3,19,
,,,,,,,,,,,,,,,,,,,,,,,,,,images/exp1b_trial_59_colour1_distractors19_l.png,l,1,006,001,2021-04-14_15h44.27.197,searchDisc4,2020.2.10,Win32,60,,,space,0.24891,1,1,0.637735,,0,142,142,173,1,1b,59,1,19,
,,,,,,,,,,,,,,,,,,,,,,,,,,images/exp2c_trial_99_colour1_distractors43_l.png,l,1,006,001,2021-04-14_15h44.27.197,searchDisc4,2020.2.10,Win32,60,,,space,0.21038,1,1,0.598215,,0,143,143,555,1,2c,99,1,43,
,,,,,,,,,,,,,,,,,,,,,,,,,,images/exp2a_trial_30_colour3_distractors1_l.png,l,1,006,001,2021-04-14_15h44.27.197,searchDisc4,2020.2.10,Win32,60,,,space,0.21682,1,1,0.58652,,0,144,144,258,1,2a,30,3,1,
,,,,,,,,,,,,,,,,,,,,,,,,,,images/exp2c_trial_77_colour1_distractors4_r.png,r,2,006,001,2021-04-14_15h44.27.197,searchDisc4,2020.2.10,Win32,60,,,space,0.23861,2,1,0.665045,,0,145,145,533,1,2c,77,1,4,
,,,,,,,,,,,,,,,,,,,,,,,,,,images/exp1b_trial_21_colour1_distractors19_l.png,l,1,006,001,2021-04-14_15h44.27.197,searchDisc4,2020.2.10,Win32,60,,,space,0.192685,1,1,0.6518,,0,146,146,135,1,1b,21,1,19,
,,,,,,,,,,,,,,,,,,,,,,,,,,images/exp1b_trial_35_colour3_distractors43_l.png,l,1,006,001,2021-04-14_15h44.27.197,searchDisc4,2020.2.10,Win32,60,,,space,0.205585,1,1,1.705095,,0,147,147,149,1,1b,35,3,43,
,,,,,,,,,,,,,,,,,,,,,,,,,,images/exp2a_trial_57_colour1_distractors4_l.png,l,1,006,001,2021-04-14_15h44.27.197,searchDisc4,2020.2.10,Win32,60,,,space,0.17571,1,1,0.68481,,0,148,148,285,1,2a,57,1,4,
,,,,,,,,,,,,,,,,,,,,,,,,,,images/exp2c_trial_87_colour2_distractors43_r.png,r,2,006,001,2021-04-14_15h44.27.197,searchDisc4,2020.2.10,Win32,60,,,space,0.21184,2,1,0.607595,,0,149,149,543,1,2c,87,2,43,
,,,,,,,,,,,,,,,,,,,,,,,,,,images/exp1a_trial_24_colour2_distractors1_l.png,l,1,006,001,2021-04-14_15h44.27.197,searchDisc4,2020.2.10,Win32,60,,,space,0.2101,1,1,0.779095,,0,150,150,24,1,1a,24,2,1,
,,,,,,,,,,,,,,,,,,,,,,,,,,images/exp1b_trial_61_colour1_distractors43_l.png,l,1,006,001,2021-04-14_15h44.27.197,searchDisc4,2020.2.10,Win32,60,,,space,0.24892,1,1,0.545175,,0,151,151,175,1,1b,61,1,43,
,,,,,,,,,,,,,,,,,,,,,,,,,,images/exp2c_trial_60_colour1_distractors31_l.png,l,1,006,001,2021-04-14_15h44.27.197,searchDisc4,2020.2.10,Win32,60,,,space,0.206785,1,1,0.730575,,0,152,152,516,1,2c,60,1,31,
,,,,,,,,,,,,,,,,,,,,,,,,,,images/exp2b_trial_87_colour2_distractors43_r.png,r,2,006,001,2021-04-14_15h44.27.197,searchDisc4,2020.2.10,Win32,60,,,space,0.18367,2,1,0.874745,,0,153,153,429,1,2b,87,2,43,
,,,,,,,,,,,,,,,,,,,,,,,,,,images/exp2b_trial_102_colour2_distractors9_l.png,l,1,006,001,2021-04-14_15h44.27.197,searchDisc4,2020.2.10,Win32,60,,,space,0.203775,1,1,0.663465,,0,154,154,444,1,2b,102,2,9,
,,,,,,,,,,,,,,,,,,,,,,,,,,images/exp2c_trial_56_colour1_distractors1_l.png,l,1,006,001,2021-04-14_15h44.27.197,searchDisc4,2020.2.10,Win32,60,,,space,0.174995,1,1,0.629535,,0,155,155,512,1,2c,56,1,1,
,,,,,,,,,,,,,,,,,,,,,,,,,,images/exp1a_trial_75_colour0_distractors0_l.png,l,1,006,001,2021-04-14_15h44.27.197,searchDisc4,2020.2.10,Win32,60,,,space,0.18246,1,1,0.52044,,0,156,156,75,1,1a,75,0,0,
,,,,,,,,,,,,,,,,,,,,,,,,,,images/exp1b_trial_0_colour1_distractors1_r.png,r,2,006,001,2021-04-14_15h44.27.197,searchDisc4,2020.2.10,Win32,60,,,space,0.255625,2,1,0.649225,,0,157,157,114,1,1b,0,1,1,
,,,,,,,,,,,,,,,,,,,,,,,,,,images/exp2b_trial_88_colour3_distractors1_r.png,r,2,006,001,2021-04-14_15h44.27.197,searchDisc4,2020.2.10,Win32,60,,,space,0.265265,2,1,0.72783,,0,158,158,430,1,2b,88,3,1,
,,,,,,,,,,,,,,,,,,,,,,,,,,images/exp1a_trial_67_colour2_distractors43_l.png,l,1,006,001,2021-04-14_15h44.27.197,searchDisc4,2020.2.10,Win32,60,,,space,0.167525,1,1,0.69133,,0,159,159,67,1,1a,67,2,43,
,,,,,,,,,,,,,,,,,,,,,,,,,,images/exp1a_trial_105_colour2_distractors43_l.png,l,1,006,001,2021-04-14_15h44.27.197,searchDisc4,2020.2.10,Win32,60,,,space,0.22755,1,1,0.837625,,0,160,160,105,1,1a,105,2,43,
,,,,,,,,,,,,,,,,,,,,,,,,,,images/exp2b_trial_27_colour2_distractors19_l.png,l,1,006,001,2021-04-14_15h44.27.197,searchDisc4,2020.2.10,Win32,60,,,space,0.175955,1,1,0.70793,,0,161,161,369,1,2b,27,2,19,
,,,,,,,,,,,,,,,,,,,,,,,,,,images/exp2a_trial_6_colour2_distractors1_r.png,r,2,006,001,2021-04-14_15h44.27.197,searchDisc4,2020.2.10,Win32,60,,,space,0.22748,2,1,0.96654,,0,162,162,234,1,2a,6,2,1,
,,,,,,,,,,,,,,,,,,,,,,,,,,images/exp2a_trial_74_colour0_distractors0_r.png,r,2,006,001,2021-04-14_15h44.27.197,searchDisc4,2020.2.10,Win32,60,,,space,0.15439,2,1,0.54391,,0,163,163,302,1,2a,74,0,0,
,,,,,,,,,,,,,,,,,,,,,,,,,,images/exp1b_trial_87_colour2_distractors43_r.png,r,2,006,001,2021-04-14_15h44.27.197,searchDisc4,2020.2.10,Win32,60,,,space,0.21307,2,1,2.023115,,0,164,164,201,1,1b,87,2,43,
,,,,,,,,,,,,,,,,,,,,,,,,,,images/exp1a_trial_7_colour2_distractors4_r.png,r,2,006,001,2021-04-14_15h44.27.197,searchDisc4,2020.2.10,Win32,60,,,space,0.38633,2,1,0.925495,,0,165,165,7,1,1a,7,2,4,
,,,,,,,,,,,,,,,,,,,,,,,,,,images/exp1a_trial_82_colour2_distractors1_r.png,r,2,006,001,2021-04-14_15h44.27.197,searchDisc4,2020.2.10,Win32,60,,,space,0.236515,2,1,0.759225,,0,166,166,82,1,1a,82,2,1,
,,,,,,,,,,,,,,,,,,,,,,,,,,images/exp1b_trial_27_colour2_distractors19_l.png,l,1,006,001,2021-04-14_15h44.27.197,searchDisc4,2020.2.10,Win32,60,,,space,0.20342,1,1,0.73429,,0,167,167,141,1,1b,27,2,19,
,,,,,,,,,,,,,,,,,,,,,,,,,,images/exp2b_trial_28_colour2_distractors31_l.png,l,1,006,001,2021-04-14_15h44.27.197,searchDisc4,2020.2.10,Win32,60,,,space,0.1882,1,1,0.69672,,0,168,168,370,1,2b,28,2,31,
,,,,,,,,,,,,,,,,,,,,,,,,,,images/exp2b_trial_92_colour3_distractors31_r.png,r,2,006,001,2021-04-14_15h44.27.197,searchDisc4,2020.2.10,Win32,60,,,space,0.19103,2,1,0.64348,,0,169,169,434,1,2b,92,3,31,
,,,,,,,,,,,,,,,,,,,,,,,,,,images/exp2c_trial_37_colour0_distractors0_l.png,l,1,006,001,2021-04-14_15h44.27.197,searchDisc4,2020.2.10,Win32,60,,,space,0.204845,1,1,0.566085,,0,170,170,493,1,2c,37,0,0,
,,,,,,,,,,,,,,,,,,,,,,,,,,images/exp2b_trial_76_colour1_distractors1_r.png,r,2,006,001,2021-04-14_15h44.27.197,searchDisc4,2020.2.10,Win32,60,,,space,0.219875,2,1,0.496105,,0,171,171,418,1,2b,76,1,1,
,,,,,,,,,,,,,,,,,,,,,,,,,,images/exp2c_trial_7_colour2_distractors4_r.png,r,2,006,001,2021-04-14_15h44.27.197,searchDisc4,2020.2.10,Win32,60,,,space,0.1812,2,1,0.601365,,0,172,172,463,1,2c,7,2,4,
,,,,,,,,,,,,,,,,,,,,,,,,,,images/exp2b_trial_13_colour3_distractors4_r.png,r,2,006,001,2021-04-14_15h44.27.197,searchDisc4,2020.2.10,Win32,60,,,space,0.188345,2,1,0.53681,,0,173,173,355,1,2b,13,3,4,
,,,,,,,,,,,,,,,,,,,,,,,,,,images/exp1a_trial_53_colour3_distractors19_r.png,r,2,006,001,2021-04-14_15h44.27.197,searchDisc4,2020.2.10,Win32,60,,,space,0.219805,2,1,0.67678,,0,174,174,53,1,1a,53,3,19,
,,,,,,,,,,,,,,,,,,,,,,,,,,images/exp2b_trial_64_colour2_distractors9_l.png,l,1,006,001,2021-04-14_15h44.27.197,searchDisc4,2020.2.10,Win32,60,,,space,0.198155,1,1,0.627455,,0,175,175,406,1,2b,64,2,9,
,,,,,,,,,,,,,,,,,,,,,,,,,,images/exp2c_trial_58_colour1_distractors9_l.png,l,1,006,001,2021-04-14_15h44.27.197,searchDisc4,2020.2.10,Win32,60,,,space,0.18245,1,1,0.63363,,0,176,176,514,1,2c,58,1,9,
,,,,,,,,,,,,,,,,,,,,,,,,,,images/exp2a_trial_1_colour1_distractors4_r.png,r,2,006,001,2021-04-14_15h44.27.197,searchDisc4,2020.2.10,Win32,60,,,space,0.26532,2,1,0.586595,,0,177,177,229,1,2a,1,1,4,
,,,,,,,,,,,,,,,,,,,,,,,,,,images/exp2b_trial_0_colour1_distractors1_r.png,r,2,006,001,2021-04-14_15h44.27.197,searchDisc4,2020.2.10,Win32,60,,,space,0.1906,2,1,0.555135,,0,178,178,342,1,2b,0,1,1,
,,,,,,,,,,,,,,,,,,,,,,,,,,images/exp2c_trial_98_colour1_distractors31_l.png,l,1,006,001,2021-04-14_15h44.27.197,searchDisc4,2020.2.10,Win32,60,,,space,0.18332,1,1,0.611795,space,0,179,179,554,1,2c,98,1,31,0.148235
,,,,,,,,,,,,,,,,,,,,,,,,,,images/exp1a_trial_98_colour1_distractors31_l.png,l,1,006,001,2021-04-14_15h44.27.197,searchDisc4,2020.2.10,Win32,60,,,space,1.423405,1,1,0.726455,,0,180,180,98,1,1a,98,1,31,
,,,,,,,,,,,,,,,,,,,,,,,,,,images/exp2b_trial_71_colour3_distractors19_l.png,l,1,006,001,2021-04-14_15h44.27.197,searchDisc4,2020.2.10,Win32,60,,,space,0.199695,1,1,0.6419,,0,181,181,413,1,2b,71,3,19,
,,,,,,,,,,,,,,,,,,,,,,,,,,images/exp2a_trial_22_colour1_distractors31_l.png,l,1,006,001,2021-04-14_15h44.27.197,searchDisc4,2020.2.10,Win32,60,,,space,0.20276,1,1,0.54224,,0,182,182,250,1,2a,22,1,31,
,,,,,,,,,,,,,,,,,,,,,,,,,,images/exp1b_trial_8_colour2_distractors9_r.png,r,2,006,001,2021-04-14_15h44.27.197,searchDisc4,2020.2.10,Win32,60,,,space,0.189135,2,1,0.73594,,0,183,183,122,1,1b,8,2,9,
,,,,,,,,,,,,,,,,,,,,,,,,,,images/exp1a_trial_74_colour0_distractors0_r.png,r,2,006,001,2021-04-14_15h44.27.197,searchDisc4,2020.2.10,Win32,60,,,space,0.174,2,1,0.618605,,0,184,184,74,1,1a,74,0,0,
,,,,,,,,,,,,,,,,,,,,,,,,,,images/exp1b_trial_39_colour1_distractors4_r.png,r,2,006,001,2021-04-14_15h44.27.197,searchDisc4,2020.2.10,Win32,60,,,space,0.219565,2,1,0.55199,,0,185,185,153,1,1b,39,1,4,
,,,,,,,,,,,,,,,,,,,,,,,,,,images/exp1b_trial_66_colour2_distractors31_l.png,l,1,006,001,2021-04-14_15h44.27.197,searchDisc4,2020.2.10,Win32,60,,,space,0.212395,1,1,0.630835,,0,186,186,180,1,1b,66,2,31,
,,,,,,,,,,,,,,,,,,,,,,,,,,images/exp1b_trial_26_colour2_distractors9_l.png,l,1,006,001,2021-04-14_15h44.27.197,searchDisc4,2020.2.10,Win32,60,,,space,0.177045,1,1,0.574275,,0,187,187,140,1,1b,26,2,9,
,,,,,,,,,,,,,,,,,,,,,,,,,,images/exp2a_trial_47_colour2_distractors19_r.png,r,2,006,001,2021-04-14_15h44.27.197,searchDisc4,2020.2.10,Win32,60,,,space,0.184835,2,1,0.660395,,0,188,188,275,1,2a,47,2,19,
,,,,,,,,,,,,,,,,,,,,,,,,,,images/exp1a_trial_15_colour3_distractors19_r.png,r,2,006,001,2021-04-14_15h44.27.197,searchDisc4,2020.2.10,Win32,60,,,space,0.22202,2,1,0.73667,,0,189,189,15,1,1a,15,3,19,
,,,,,,,,,,,,,,,,,,,,,,,,,,images/exp2b_trial_90_colour3_distractors9_r.png,r,2,006,001,2021-04-14_15h44.27.197,searchDisc4,2020.2.10,Win32,60,,,space,0.51016,2,1,0.652595,,0,190,190,432,1,2b,90,3,9,
,,,,,,,,,,,,,,,,,,,,,,,,,,images/exp1b_trial_53_colour3_distractors19_r.png,r,2,006,001,2021-04-14_15h44.27.197,searchDisc4,2020.2.10,Win32,60,,,space,0.20617,2,1,0.704655,,0,191,191,167,1,1b,53,3,19,
,,,,,,,,,,,,,,,,,,,,,,,,,,images/exp2a_trial_103_colour2_distractors19_l.png,l,1,006,001,2021-04-14_15h44.27.197,searchDisc4,2020.2.10,Win32,60,,,space,0.16032,1,1,0.725,,0,192,192,331,1,2a,103,2,19,
,,,,,,,,,,,,,,,,,,,,,,,,,,images/exp1a_trial_103_colour2_distractors19_l.png,l,1,006,001,2021-04-14_15h44.27.197,searchDisc4,2020.2.10,Win32,60,,,space,0.211955,1,1,0.638055,,0,193,193,103,1,1a,103,2,19,
,,,,,,,,,,,,,,,,,,,,,,,,,,images/exp1a_trial_13_colour3_distractors4_r.png,r,2,006,001,2021-04-14_15h44.27.197,searchDisc4,2020.2.10,Win32,60,,,space,0.200485,2,1,0.60443,,0,194,194,13,1,1a,13,3,4,
,,,,,,,,,,,,,,,,,,,,,,,,,,images/exp2a_trial_25_colour2_distractors4_l.png,l,1,006,001,2021-04-14_15h44.27.197,searchDisc4,2020.2.10,Win32,60,,,space,0.133985,1,1,0.581145,,0,195,195,253,1,2a,25,2,4,
,,,,,,,,,,,,,,,,,,,,,,,,,,images/exp1b_trial_84_colour2_distractors9_r.png,r,2,006,001,2021-04-14_15h44.27.197,searchDisc4,2020.2.10,Win32,60,,,space,0.232195,2,1,0.70595,,0,196,196,198,1,1b,84,2,9,
,,,,,,,,,,,,,,,,,,,,,,,,,,images/exp2c_trial_96_colour1_distractors9_l.png,l,1,006,001,2021-04-14_15h44.27.197,searchDisc4,2020.2.10,Win32,60,,,space,0.16081,1,1,0.558625,,0,197,197,552,1,2c,96,1,9,
,,,,,,,,,,,,,,,,,,,,,,,,,,images/exp2a_trial_61_colour1_distractors43_l.png,l,1,006,001,2021-04-14_15h44.27.197,searchDisc4,2020.2.10,Win32,60,,,space,0.22651,1,1,0.68227,,0,198,198,289,1,2a,61,1,43,
,,,,,,,,,,,,,,,,,,,,,,,,,,images/exp1a_trial_45_colour2_distractors4_r.png,r,2,006,001,2021-04-14_15h44.27.197,searchDisc4,2020.2.10,Win32,60,,,space,0.18259,2,1,0.64168,,0,199,199,45,1,1a,45,2,4,
,,,,,,,,,,,,,,,,,,,,,,,,,,images/exp1a_trial_36_colour0_distractors0_r.png,r,2,006,001,2021-04-14_15h44.27.197,searchDisc4,2020.2.10,Win32,60,,,space,0.154325,2,1,0.65534,,0,200,200,36,1,1a,36,0,0,
,,,,,,,,,,,,,,,,,,,,,,,,,,images/exp2a_trial_36_colour0_distractors0_r.png,r,2,006,001,2021-04-14_15h44.27.197,searchDisc4,2020.2.10,Win32,60,,,space,0.23256,2,1,0.467035,,0,201,201,264,1,2a,36,0,0,
,,,,,,,,,,,,,,,,,,,,,,,,,,images/exp1a_trial_49_colour2_distractors43_r.png,r,2,006,001,2021-04-14_15h44.27.197,searchDisc4,2020.2.10,Win32,60,,,space,0.21092,2,1,0.852705,,0,202,202,49,1,1a,49,2,43,
,,,,,,,,,,,,,,,,,,,,,,,,,,images/exp2c_trial_91_colour3_distractors19_r.png,r,2,006,001,2021-04-14_15h44.27.197,searchDisc4,2020.2.10,Win32,60,,,space,0.19074,2,1,0.53055,,0,203,203,547,1,2c,91,3,19,
,,,,,,,,,,,,,,,,,,,,,,,,,,images/exp2b_trial_83_colour2_distractors4_r.png,r,2,006,001,2021-04-14_15h44.27.197,searchDisc4,2020.2.10,Win32,60,,,space,0.200105,2,1,0.572245,,0,204,204,425,1,2b,83,2,4,
,,,,,,,,,,,,,,,,,,,,,,,,,,images/exp1b_trial_3_colour1_distractors19_r.png,r,2,006,001,2021-04-14_15h44.27.197,searchDisc4,2020.2.10,Win32,60,,,space,0.23214,2,1,0.742365,,0,205,205,117,1,1b,3,1,19,
,,,,,,,,,,,,,,,,,,,,,,,,,,images/exp2b_trial_96_colour1_distractors9_l.png,l,1,006,001,2021-04-14_15h44.27.197,searchDisc4,2020.2.10,Win32,60,,,space,0.79056,1,1,0.699065,,0,206,206,438,1,2b,96,1,9,
,,,,,,,,,,,,,,,,,,,,,,,,,,images/exp2b_trial_22_colour1_distractors31_l.png,l,1,006,001,2021-04-14_15h44.27.197,searchDisc4,2020.2.10,Win32,60,,,space,0.185135,1,1,0.515335,,0,207,207,364,1,2b,22,1,31,
,,,,,,,,,,,,,,,,,,,,,,,,,,images/exp2c_trial_59_colour1_distractors19_l.png,l,1,006,001,2021-04-14_15h44.27.197,searchDisc4,2020.2.10,Win32,60,,,space,0.227435,1,1,0.555315,,0,208,208,515,1,2c,59,1,19,
,,,,,,,,,,,,,,,,,,,,,,,,,,images/exp2b_trial_103_colour2_distractors19_l.png,l,1,006,001,2021-04-14_15h44.27.197,searchDisc4,2020.2.10,Win32,60,,,space,0.28329,1,1,0.53143,,0,209,209,445,1,2b,103,2,19,
,,,,,,,,,,,,,,,,,,,,,,,,,,images/exp2c_trial_84_colour2_distractors9_r.png,r,2,006,001,2021-04-14_15h44.27.197,searchDisc4,2020.2.10,Win32,60,,,space,0.20845,2,1,0.652105,,0,210,210,540,1,2c,84,2,9,
,,,,,,,,,,,,,,,,,,,,,,,,,,images/exp2c_trial_35_colour3_distractors43_l.png,l,1,006,001,2021-04-14_15h44.27.197,searchDisc4,2020.2.10,Win32,60,,,space,0.20443,1,1,0.735025,,0,211,211,491,1,2c,35,3,43,
,,,,,,,,,,,,,,,,,,,,,,,,,,images/exp1b_trial_82_colour2_distractors1_r.png,r,2,006,001,2021-04-14_15h44.27.197,searchDisc4,2020.2.10,Win32,60,,,space,0.19744,2,1,0.639995,,0,212,212,196,1,1b,82,2,1,
,,,,,,,,,,,,,,,,,,,,,,,,,,images/exp1a_trial_83_colour2_distractors4_r.png,r,2,006,001,2021-04-14_15h44.27.197,searchDisc4,2020.2.10,Win32,60,,,space,0.250835,2,1,0.664425,,0,213,213,83,1,1a,83,2,4,
,,,,,,,,,,,,,,,,,,,,,,,,,,images/exp1a_trial_52_colour3_distractors9_r.png,r,2,006,001,2021-04-14_15h44.27.197,searchDisc4,2020.2.10,Win32,60,,,space,0.21203,2,1,0.55169,,0,214,214,52,1,1a,52,3,9,
,,,,,,,,,,,,,,,,,,,,,,,,,,images/exp1b_trial_72_colour3_distractors31_l.png,l,1,006,001,2021-04-14_15h44.27.197,searchDisc4,2020.2.10,Win32,60,,,space,0.22799,1,1,2.039475,,0,215,215,186,1,1b,72,3,31,
,,,,,,,,,,,,,,,,,,,,,,,,,,images/exp1b_trial_109_colour3_distractors19_l.png,l,1,006,001,2021-04-14_15h44.27.197,searchDisc4,2020.2.10,Win32,60,,,space,0.19252,1,1,1.23671,,0,216,216,223,1,1b,109,3,19,
,,,,,,,,,,,,,,,,,,,,,,,,,,images/exp2b_trial_111_colour3_distractors43_l.png,l,1,006,001,2021-04-14_15h44.27.197,searchDisc4,2020.2.10,Win32,60,,,space,0.19964,1,1,0.681575,,0,217,217,453,1,2b,111,3,43,
,,,,,,,,,,,,,,,,,,,,,,,,,,images/exp1a_trial_91_colour3_distractors19_r.png,r,2,006,001,2021-04-14_15h44.27.197,searchDisc4,2020.2.10,Win32,60,,,space,0.17644,2,1,0.76576,,0,218,218,91,1,1a,91,3,19,
,,,,,,,,,,,,,,,,,,,,,,,,,,images/exp1a_trial_27_colour2_distractors19_l.png,l,1,006,001,2021-04-14_15h44.27.197,searchDisc4,2020.2.10,Win32,60,,,space,0.169675,1,1,0.82147,,0,219,219,27,1,1a,27,2,19,
,,,,,,,,,,,,,,,,,,,,,,,,,,images/exp2b_trial_75_colour0_distractors0_l.png,l,1,006,001,2021-04-14_15h44.27.197,searchDisc4,2020.2.10,Win32,60,,,space,0.19228,1,1,0.54732,,0,220,220,417,1,2b,75,0,0,
,,,,,,,,,,,,,,,,,,,,,,,,,,images/exp1b_trial_63_colour2_distractors4_l.png,l,1,006,001,2021-04-14_15h44.27.197,searchDisc4,2020.2.10,Win32,60,,,space,0.161015,1,1,0.78214,,0,221,221,177,1,1b,63,2,4,
,,,,,,,,,,,,,,,,,,,,,,,,,,images/exp2a_trial_66_colour2_distractors31_l.png,l,1,006,001,2021-04-14_15h44.27.197,searchDisc4,2020.2.10,Win32,60,,,space,0.162085,1,1,0.694305,,0,222,222,294,1,2a,66,2,31,
,,,,,,,,,,,,,,,,,,,,,,,,,,images/exp1a_trial_62_colour2_distractors1_l.png,l,1,006,001,2021-04-14_15h44.27.197,searchDisc4,2020.2.10,Win32,60,,,space,0.182145,1,1,0.763805,,0,223,223,62,1,1a,62,2,1,
,,,,,,,,,,,,,,,,,,,,,,,,,,images/exp1a_trial_2_colour1_distractors9_r.png,r,2,006,001,2021-04-14_15h44.27.197,searchDisc4,2020.2.10,Win32,60,,,space,0.2062,2,1,0.663965,,0,224,224,2,1,1a,2,1,9,
,,,,,,,,,,,,,,,,,,,,,,,,,,images/exp1b_trial_34_colour3_distractors31_l.png,l,1,006,001,2021-04-14_15h44.27.197,searchDisc4,2020.2.10,Win32,60,,,space,0.169485,1,1,0.696915,,0,225,225,148,1,1b,34,3,31,
,,,,,,,,,,,,,,,,,,,,,,,,,,images/exp1b_trial_101_colour2_distractors4_l.png,l,1,006,001,2021-04-14_15h44.27.197,searchDisc4,2020.2.10,Win32,60,,,space,0.2293,1,1,0.581545,,0,226,226,215,1,1b,101,2,4,
,,,,,,,,,,,,,,,,,,,,,,,,,,images/exp1b_trial_1_colour1_distractors4_r.png,r,2,006,001,2021-04-14_15h44.27.197,searchDisc4,2020.2.10,Win32,60,,,space,0.20322,1,0,0.62293,,0,227,227,115,1,1b,1,1,4,
,,,,,,,,,,,,,,,,,,,,,,,,,,images/exp2a_trial_77_colour1_distractors4_r.png,r,2,006,001,2021-04-14_15h44.27.197,searchDisc4,2020.2.10,Win32,60,,,space,0.736465,2,1,0.83008,,0,228,228,305,1,2a,77,1,4,
,,,,,,,,,,,,,,,,,,,,,,,,,,images/exp2b_trial_7_colour2_distractors4_r.png,r,2,006,001,2021-04-14_15h44.27.197,searchDisc4,2020.2.10,Win32,60,,,space,0.2149,2,1,1.795855,,0,229,229,349,1,2b,7,2,4,
,,,,,,,,,,,,,,,,,,,,,,,,,,images/exp1a_trial_89_colour3_distractors4_r.png,r,2,006,001,2021-04-14_15h44.27.197,searchDisc4,2020.2.10,Win32,60,,,space,0.213645,2,1,0.49749,,0,230,230,89,1,1a,89,3,4,
,,,,,,,,,,,,,,,,,,,,,,,,,,images/exp1a_trial_92_colour3_distractors31_r.png,r,2,006,001,2021-04-14_15h44.27.197,searchDisc4,2020.2.10,Win32,60,,,space,0.19189,2,1,0.55499,,0,231,231,92,1,1a,92,3,31,
,,,,,,,,,,,,,,,,,,,,,,,,,,images/exp2a_trial_42_colour1_distractors31_r.png,r,2,006,001,2021-04-14_15h44.27.197,searchDisc4,2020.2.10,Win32,60,,,space,0.216535,2,1,0.666255,,0,232,232,270,1,2a,42,1,31,
,,,,,,,,,,,,,,,,,,,,,,,,,,images/exp2c_trial_101_colour2_distractors4_l.png,l,1,006,001,2021-04-14_15h44.27.197,searchDisc4,2020.2.10,Win32,60,,,space,0.251475,1,1,0.67719,,0,233,233,557,1,2c,101,2,4,
,,,,,,,,,,,,,,,,,,,,,,,,,,images/exp2c_trial_40_colour1_distractors9_r.png,r,2,006,001,2021-04-14_15h44.27.197,searchDisc4,2020.2.10,Win32,60,,,space,0.21274,2,1,0.631945,,0,234,234,496,1,2c,40,1,9,
,,,,,,,,,,,,,,,,,,,,,,,,,,images/exp2a_trial_56_colour1_distractors1_l.png,l,1,006,001,2021-04-14_15h44.27.197,searchDisc4,2020.2.10,Win32,60,,,space,0.20191,1,1,0.59759,,0,235,235,284,1,2a,56,1,1,
,,,,,,,,,,,,,,,,,,,,,,,,,,images/exp1a_trial_111_colour3_distractors43_l.png,l,1,006,001,2021-04-14_15h44.27.197,searchDisc4,2020.2.10,Win32,60,,,space,0.215005,1,1,0.69392,,0,236,236,111,1,1a,111,3,43,
,,,,,,,,,,,,,,,,,,,,,,,,,,images/exp1b_trial_94_colour1_distractors1_l.png,l,1,006,001,2021-04-14_15h44.27.197,searchDisc4,2020.2.10,Win32,60,,,space,0.19302,1,1,0.58147,,0,237,237,208,1,1b,94,1,1,
,,,,,,,,,,,,,,,,,,,,,,,,,,images/exp1b_trial_58_colour1_distractors9_l.png,l,1,006,001,2021-04-14_15h44.27.197,searchDisc4,2020.2.10,Win32,60,,,space,0.16836,1,1,0.701645,,0,238,238,172,1,1b,58,1,9,
,,,,,,,,,,,,,,,,,,,,,,,,,,images/exp2b_trial_33_colour3_distractors19_l.png,l,1,006,001,2021-04-14_15h44.27.197,searchDisc4,2020.2.10,Win32,60,,,space,0.21206,1,1,0.71163,space,0,239,239,375,1,2b,33,3,19,0.22768
,,,,,,,,,,,,,,,,,,,,,,,,,,images/exp1a_trial_80_colour1_distractors31_r.png,r,2,006,001,2021-04-14_15h44.27.197,searchDisc4,2020.2.10,Win32,60,,,space,0.98865,2,1,1.023025,,0,240,240,80,1,1a,80,1,31,
,,,,,,,,,,,,,,,,,,,,,,,,,,images/exp2c_trial_113_colour0_distractors0_l.png,l,1,006,001,2021-04-14_15h44.27.197,searchDisc4,2020.2.10,Win32,60,,,space,0.2107,1,1,0.7983,,0,241,241,569,1,2c,113,0,0,
,,,,,,,,,,,,,,,,,,,,,,,,,,images/exp2a_trial_76_colour1_distractors1_r.png,r,2,006,001,2021-04-14_15h44.27.197,searchDisc4,2020.2.10,Win32,60,,,space,0.21635,2,1,0.624805,,0,242,242,304,1,2a,76,1,1,
,,,,,,,,,,,,,,,,,,,,,,,,,,images/exp2c_trial_67_colour2_distractors43_l.png,l,1,006,001,2021-04-14_15h44.27.197,searchDisc4,2020.2.10,Win32,60,,,space,0.25332,1,1,0.703205,,0,243,243,523,1,2c,67,2,43,
,,,,,,,,,,,,,,,,,,,,,,,,,,images/exp1b_trial_108_colour3_distractors9_l.png,l,1,006,001,2021-04-14_15h44.27.197,searchDisc4,2020.2.10,Win32,60,,,space,0.18315,1,1,0.85704,,0,244,244,222,1,1b,108,3,9,
,,,,,,,,,,,,,,,,,,,,,,,,,,images/exp1a_trial_18_colour1_distractors1_l.png,l,1,006,001,2021-04-14_15h44.27.197,searchDisc4,2020.2.10,Win32,60,,,space,0.202275,1,1,0.56607,,0,245,245,18,1,1a,18,1,1,
,,,,,,,,,,,,,,,,,,,,,,,,,,images/exp2b_trial_81_colour1_distractors43_r.png,r,2,006,001,2021-04-14_15h44.27.197,searchDisc4,2020.2.10,Win32,60,,,space,0.209745,2,1,0.67618,,0,246,246,423,1,2b,81,1,43,
,,,,,,,,,,,,,,,,,,,,,,,,,,images/exp2c_trial_27_colour2_distractors19_l.png,l,1,006,001,2021-04-14_15h44.27.197,searchDisc4,2020.2.10,Win32,60,,,space,0.17314,1,1,0.763255,,0,247,247,483,1,2c,27,2,19,
,,,,,,,,,,,,,,,,,,,,,,,,,,images/exp2a_trial_38_colour1_distractors1_r.png,r,2,006,001,2021-04-14_15h44.27.197,searchDisc4,2020.2.10,Win32,60,,,space,0.18982,2,1,0.688445,,0,248,248,266,1,2a,38,1,1,
,,,,,,,,,,,,,,,,,,,,,,,,,,images/exp2a_trial_78_colour1_distractors9_r.png,r,2,006,001,2021-04-14_15h44.27.197,searchDisc4,2020.2.10,Win32,60,,,space,0.23195,2,1,0.682135,,0,249,249,306,1,2a,78,1,9,
,,,,,,,,,,,,,,,,,,,,,,,,,,images/exp1a_trial_88_colour3_distractors1_r.png,r,2,006,001,2021-04-14_15h44.27.197,searchDisc4,2020.2.10,Win32,60,,,space,0.178285,2,1,0.527065,,0,250,250,88,1,1a,88,3,1,
,,,,,,,,,,,,,,,,,,,,,,,,,,images/exp2c_trial_32_colour3_distractors9_l.png,l,1,006,001,2021-04-14_15h44.27.197,searchDisc4,2020.2.10,Win32,60,,,space,0.205355,1,1,0.64943,,0,251,251,488,1,2c,32,3,9,
,,,,,,,,,,,,,,,,,,,,,,,,,,images/exp2b_trial_97_colour1_distractors19_l.png,l,1,006,001,2021-04-14_15h44.27.197,searchDisc4,2020.2.10,Win32,60,,,space,0.169325,1,1,0.695885,,0,252,252,439,1,2b,97,1,19,
,,,,,,,,,,,,,,,,,,,,,,,,,,images/exp1b_trial_89_colour3_distractors4_r.png,r,2,006,001,2021-04-14_15h44.27.197,searchDisc4,2020.2.10,Win32,60,,,space,0.18227,2,1,0.825585,,0,253,253,203,1,1b,89,3,4,
,,,,,,,,,,,,,,,,,,,,,,,,,,images/exp1a_trial_79_colour1_distractors19_r.png,r,2,006,001,2021-04-14_15h44.27.197,searchDisc4,2020.2.10,Win32,60,,,space,0.16332,2,1,0.686585,,0,254,254,79,1,1a,79,1,19,
,,,,,,,,,,,,,,,,,,,,,,,,,,images/exp1a_trial_85_colour2_distractors19_r.png,r,2,006,001,2021-04-14_15h44.27.197,searchDisc4,2020.2.10,Win32,60,,,space,0.16802,2,1,0.690745,,0,255,255,85,1,1a,85,2,19,
,,,,,,,,,,,,,,,,,,,,,,,,,,images/exp1b_trial_15_colour3_distractors19_r.png,r,2,006,001,2021-04-14_15h44.27.197,searchDisc4,2020.2.10,Win32,60,,,space,0.18805,2,1,1.640885,,0,256,256,129,1,1b,15,3,19,
,,,,,,,,,,,,,,,,,,,,,,,,,,images/exp2a_trial_9_colour2_distractors19_r.png,r,2,006,001,2021-04-14_15h44.27.197,searchDisc4,2020.2.10,Win32,60,,,space,1.554025,2,1,0.574375,,0,257,257,237,1,2a,9,2,19,
,,,,,,,,,,,,,,,,,,,,,,,,,,images/exp2c_trial_111_colour3_distractors43_l.png,l,1,006,001,2021-04-14_15h44.27.197,searchDisc4,2020.2.10,Win32,60,,,space,0.19492,1,1,0.78825,,0,258,258,567,1,2c,111,3,43,
,,,,,,,,,,,,,,,,,,,,,,,,,,images/exp2c_trial_54_colour3_distractors31_r.png,r,2,006,001,2021-04-14_15h44.27.197,searchDisc4,2020.2.10,Win32,60,,,space,0.21051,2,1,0.90219,,0,259,259,510,1,2c,54,3,31,
,,,,,,,,,,,,,,,,,,,,,,,,,,images/exp2c_trial_43_colour1_distractors43_r.png,r,2,006,001,2021-04-14_15h44.27.197,searchDisc4,2020.2.10,Win32,60,,,space,0.21211,2,1,0.74714,,0,260,260,499,1,2c,43,1,43,
,,,,,,,,,,,,,,,,,,,,,,,,,,images/exp2c_trial_14_colour3_distractors9_r.png,r,2,006,001,2021-04-14_15h44.27.197,searchDisc4,2020.2.10,Win32,60,,,space,0.15689,2,1,0.625765,,0,261,261,470,1,2c,14,3,9,
,,,,,,,,,,,,,,,,,,,,,,,,,,images/exp1a_trial_55_colour3_distractors43_r.png,r,2,006,001,2021-04-14_15h44.27.197,searchDisc4,2020.2.10,Win32,60,,,space,0.244365,2,1,0.629345,,0,262,262,55,1,1a,55,3,43,
,,,,,,,,,,,,,,,,,,,,,,,,,,images/exp2a_trial_18_colour1_distractors1_l.png,l,1,006,001,2021-04-14_15h44.27.197,searchDisc4,2020.2.10,Win32,60,,,space,0.199785,1,1,0.64368,,0,263,263,246,1,2a,18,1,1,
,,,,,,,,,,,,,,,,,,,,,,,,,,images/exp2c_trial_110_colour3_distractors31_l.png,l,1,006,001,2021-04-14_15h44.27.197,searchDisc4,2020.2.10,Win32,60,,,space,0.204835,1,1,0.541025,,0,264,264,566,1,2c,110,3,31,
,,,,,,,,,,,,,,,,,,,,,,,,,,images/exp2b_trial_21_colour1_distractors19_l.png,l,1,006,001,2021-04-14_15h44.27.197,searchDisc4,2020.2.10,Win32,60,,,space,0.189135,1,1,0.655895,,0,265,265,363,1,2b,21,1,19,
,,,,,,,,,,,,,,,,,,,,,,,,,,images/exp2a_trial_72_colour3_distractors31_l.png,l,1,006,001,2021-04-14_15h44.27.197,searchDisc4,2020.2.10,Win32,60,,,space,0.22593,1,1,0.730055,,0,266,266,300,1,2a,72,3,31,
,,,,,,,,,,,,,,,,,,,,,,,,,,images/exp1a_trial_101_colour2_distractors4_l.png,l,1,006,001,2021-04-14_15h44.27.197,searchDisc4,2020.2.10,Win32,60,,,space,0.19442,1,1,0.62269,,0,267,267,101,1,1a,101,2,4,
,,,,,,,,,,,,,,,,,,,,,,,,,,images/exp2c_trial_95_colour1_distractors4_l.png,l,1,006,001,2021-04-14_15h44.27.197,searchDisc4,2020.2.10,Win32,60,,,space,0.20021,1,1,0.514805,,0,268,268,551,1,2c,95,1,4,
,,,,,,,,,,,,,,,,,,,,,,,,,,images/exp1b_trial_60_colour1_distractors31_l.png,l,1,006,001,2021-04-14_15h44.27.197,searchDisc4,2020.2.10,Win32,60,,,space,0.225485,1,1,0.55588,,0,269,269,174,1,1b,60,1,31,
,,,,,,,,,,,,,,,,,,,,,,,,,,images/exp1b_trial_32_colour3_distractors9_l.png,l,1,006,001,2021-04-14_15h44.27.197,searchDisc4,2020.2.10,Win32,60,,,space,0.209225,1,1,1.268,,0,270,270,146,1,1b,32,3,9,
,,,,,,,,,,,,,,,,,,,,,,,,,,images/exp2b_trial_72_colour3_distractors31_l.png,l,1,006,001,2021-04-14_15h44.27.197,searchDisc4,2020.2.10,Win32,60,,,space,0.21278,1,1,0.832635,,0,271,271,414,1,2b,72,3,31,
,,,,,,,,,,,,,,,,,,,,,,,,,,images/exp2a_trial_104_colour2_distractors31_l.png,l,1,006,001,2021-04-14_15h44.27.197,searchDisc4,2020.2.10,Win32,60,,,space,0.20942,1,1,0.563695,,0,272,272,332,1,2a,104,2,31,
,,,,,,,,,,,,,,,,,,,,,,,,,,images/exp2a_trial_113_colour0_distractors0_l.png,l,1,006,001,2021-04-14_15h44.27.197,searchDisc4,2020.2.10,Win32,60,,,space,0.209155,1,1,0.49125,,0,273,273,341,1,2a,113,0,0,
,,,,,,,,,,,,,,,,,,,,,,,,,,images/exp2b_trial_17_colour3_distractors43_r.png,r,2,006,001,2021-04-14_15h44.27.197,searchDisc4,2020.2.10,Win32,60,,,space,0.25859,2,1,0.69253,,0,274,274,359,1,2b,17,3,43,
,,,,,,,,,,,,,,,,,,,,,,,,,,images/exp2a_trial_33_colour3_distractors19_l.png,l,1,006,001,2021-04-14_15h44.27.197,searchDisc4,2020.2.10,Win32,60,,,space,0.220075,1,1,0.54956,,0,275,275,261,1,2a,33,3,19,
,,,,,,,,,,,,,,,,,,,,,,,,,,images/exp1a_trial_77_colour1_distractors4_r.png,r,2,006,001,2021-04-14_15h44.27.197,searchDisc4,2020.2.10,Win32,60,,,space,0.24399,2,1,0.59827,,0,276,276,77,1,1a,77,1,4,
,,,,,,,,,,,,,,,,,,,,,,,,,,images/exp1b_trial_38_colour1_distractors1_r.png,r,2,006,001,2021-04-14_15h44.27.197,searchDisc4,2020.2.10,Win32,60,,,space,0.22497,2,1,0.74691,,0,277,277,152,1,1b,38,1,1,
,,,,,,,,,,,,,,,,,,,,,,,,,,images/exp2b_trial_101_colour2_distractors4_l.png,l,1,006,001,2021-04-14_15h44.27.197,searchDisc4,2020.2.10,Win32,60,,,space,0.208145,1,1,0.67592,,0,278,278,443,1,2b,101,2,4,
,,,,,,,,,,,,,,,,,,,,,,,,,,images/exp2b_trial_29_colour2_distractors43_l.png,l,1,006,001,2021-04-14_15h44.27.197,searchDisc4,2020.2.10,Win32,60,,,space,0.187675,1,1,0.58276,,0,279,279,371,1,2b,29,2,43,
,,,,,,,,,,,,,,,,,,,,,,,,,,images/exp1b_trial_45_colour2_distractors4_r.png,r,2,006,001,2021-04-14_15h44.27.197,searchDisc4,2020.2.10,Win32,60,,,space,0.187325,2,1,0.589935,,0,280,280,159,1,1b,45,2,4,
,,,,,,,,,,,,,,,,,,,,,,,,,,images/exp2a_trial_96_colour1_distractors9_l.png,l,1,006,001,2021-04-14_15h44.27.197,searchDisc4,2020.2.10,Win32,60,,,space,0.178275,1,1,0.64323,,0,281,281,324,1,2a,96,1,9,
,,,,,,,,,,,,,,,,,,,,,,,,,,images/exp2a_trial_15_colour3_distractors19_r.png,r,2,006,001,2021-04-14_15h44.27.197,searchDisc4,2020.2.10,Win32,60,,,space,0.15974,2,1,0.668515,,0,282,282,243,1,2a,15,3,19,
,,,,,,,,,,,,,,,,,,,,,,,,,,images/exp1b_trial_46_colour2_distractors9_r.png,r,2,006,001,2021-04-14_15h44.27.197,searchDisc4,2020.2.10,Win32,60,,,space,0.301555,2,1,0.965035,,0,283,283,160,1,1b,46,2,9,
,,,,,,,,,,,,,,,,,,,,,,,,,,images/exp2b_trial_105_colour2_distractors43_l.png,l,1,006,001,2021-04-14_15h44.27.197,searchDisc4,2020.2.10,Win32,60,,,space,0.192895,1,1,0.64529,,0,284,284,447,1,2b,105,2,43,
,,,,,,,,,,,,,,,,,,,,,,,,,,images/exp2c_trial_53_colour3_distractors19_r.png,r,2,006,001,2021-04-14_15h44.27.197,searchDisc4,2020.2.10,Win32,60,,,space,0.199065,2,1,0.73717,,0,285,285,509,1,2c,53,3,19,
,,,,,,,,,,,,,,,,,,,,,,,,,,images/exp2b_trial_77_colour1_distractors4_r.png,r,2,006,001,2021-04-14_15h44.27.197,searchDisc4,2020.2.10,Win32,60,,,space,0.206555,2,1,0.897185,,0,286,286,419,1,2b,77,1,4,
,,,,,,,,,,,,,,,,,,,,,,,,,,images/exp2b_trial_73_colour3_distractors43_l.png,l,1,006,001,2021-04-14_15h44.27.197,searchDisc4,2020.2.10,Win32,60,,,space,0.160745,1,1,0.75007,,0,287,287,415,1,2b,73,3,43,
,,,,,,,,,,,,,,,,,,,,,,,,,,images/exp1a_trial_86_colour2_distractors31_r.png,r,2,006,001,2021-04-14_15h44.27.197,searchDisc4,2020.2.10,Win32,60,,,space,0.202705,2,1,0.669335,,0,288,288,86,1,1a,86,2,31,
,,,,,,,,,,,,,,,,,,,,,,,,,,images/exp2a_trial_35_colour3_distractors43_l.png,l,1,006,001,2021-04-14_15h44.27.197,searchDisc4,2020.2.10,Win32,60,,,space,0.174025,1,1,0.549395,,0,289,289,263,1,2a,35,3,43,
,,,,,,,,,,,,,,,,,,,,,,,,,,images/exp1b_trial_25_colour2_distractors4_l.png,l,1,006,001,2021-04-14_15h44.27.197,searchDisc4,2020.2.10,Win32,60,,,space,0.207765,1,1,0.771375,,0,290,290,139,1,1b,25,2,4,
,,,,,,,,,,,,,,,,,,,,,,,,,,images/exp2b_trial_12_colour3_distractors1_r.png,r,2,006,001,2021-04-14_15h44.27.197,searchDisc4,2020.2.10,Win32,60,,,space,0.182825,2,1,0.612755,,0,291,291,354,1,2b,12,3,1,
,,,,,,,,,,,,,,,,,,,,,,,,,,images/exp2a_trial_13_colour3_distractors4_r.png,r,2,006,001,2021-04-14_15h44.27.197,searchDisc4,2020.2.10,Win32,60,,,space,0.211295,2,1,0.685775,,0,292,292,241,1,2a,13,3,4,
,,,,,,,,,,,,,,,,,,,,,,,,,,images/exp1a_trial_37_colour0_distractors0_l.png,l,1,006,001,2021-04-14_15h44.27.197,searchDisc4,2020.2.10,Win32,60,,,space,0.19953,1,1,0.643725,,0,293,293,37,1,1a,37,0,0,
,,,,,,,,,,,,,,,,,,,,,,,,,,images/exp2b_trial_4_colour1_distractors31_r.png,r,2,006,001,2021-04-14_15h44.27.197,searchDisc4,2020.2.10,Win32,60,,,space,0.26833,2,1,0.67588,,0,294,294,346,1,2b,4,1,31,
,,,,,,,,,,,,,,,,,,,,,,,,,,images/exp2b_trial_65_colour2_distractors19_l.png,l,1,006,001,2021-04-14_15h44.27.197,searchDisc4,2020.2.10,Win32,60,,,space,0.18176,1,1,0.633985,,0,295,295,407,1,2b,65,2,19,
,,,,,,,,,,,,,,,,,,,,,,,,,,images/exp2c_trial_0_colour1_distractors1_r.png,r,2,006,001,2021-04-14_15h44.27.197,searchDisc4,2020.2.10,Win32,60,,,space,0.178965,2,1,0.784175,,0,296,296,456,1,2c,0,1,1,
,,,,,,,,,,,,,,,,,,,,,,,,,,images/exp2a_trial_81_colour1_distractors43_r.png,r,2,006,001,2021-04-14_15h44.27.197,searchDisc4,2020.2.10,Win32,60,,,space,0.16274,2,1,0.742115,,0,297,297,309,1,2a,81,1,43,
,,,,,,,,,,,,,,,,,,,,,,,,,,images/exp2b_trial_38_colour1_distractors1_r.png,r,2,006,001,2021-04-14_15h44.27.197,searchDisc4,2020.2.10,Win32,60,,,space,0.18315,2,1,0.585715,,0,298,298,380,1,2b,38,1,1,
,,,,,,,,,,,,,,,,,,,,,,,,,,images/exp1b_trial_79_colour1_distractors19_r.png,r,2,006,001,2021-04-14_15h44.27.197,searchDisc4,2020.2.10,Win32,60,,,space,0.228735,2,1,0.52593,space,0,299,299,193,1,1b,79,1,19,0.195665
,,,,,,,,,,,,,,,,,,,,,,,,,,images/exp1a_trial_43_colour1_distractors43_r.png,r,2,006,001,2021-04-14_15h44.27.197,searchDisc4,2020.2.10,Win32,60,,,space,0.82193,2,1,0.93372,,0,300,300,43,1,1a,43,1,43,
,,,,,,,,,,,,,,,,,,,,,,,,,,images/exp2c_trial_78_colour1_distractors9_r.png,r,2,006,001,2021-04-14_15h44.27.197,searchDisc4,2020.2.10,Win32,60,,,space,0.23797,2,1,0.68813,,0,301,301,534,1,2c,78,1,9,
,,,,,,,,,,,,,,,,,,,,,,,,,,images/exp2b_trial_108_colour3_distractors9_l.png,l,1,006,001,2021-04-14_15h44.27.197,searchDisc4,2020.2.10,Win32,60,,,space,0.215445,1,1,0.70467,,0,302,302,450,1,2b,108,3,9,
,,,,,,,,,,,,,,,,,,,,,,,,,,images/exp1a_trial_35_colour3_distractors43_l.png,l,1,006,001,2021-04-14_15h44.27.197,searchDisc4,2020.2.10,Win32,60,,,space,0.17631,1,1,0.491105,,0,303,303,35,1,1a,35,3,43,
,,,,,,,,,,,,,,,,,,,,,,,,,,images/exp2c_trial_19_colour1_distractors4_l.png,l,1,006,001,2021-04-14_15h44.27.197,searchDisc4,2020.2.10,Win32,60,,,space,0.22853,1,1,0.551745,,0,304,304,475,1,2c,19,1,4,
,,,,,,,,,,,,,,,,,,,,,,,,,,images/exp1a_trial_22_colour1_distractors31_l.png,l,1,006,001,2021-04-14_15h44.27.197,searchDisc4,2020.2.10,Win32,60,,,space,0.236085,1,1,0.492705,,0,305,305,22,1,1a,22,1,31,
,,,,,,,,,,,,,,,,,,,,,,,,,,images/exp2c_trial_42_colour1_distractors31_r.png,r,2,006,001,2021-04-14_15h44.27.197,searchDisc4,2020.2.10,Win32,60,,,space,0.245345,2,1,0.542755,,0,306,306,498,1,2c,42,1,31,
,,,,,,,,,,,,,,,,,,,,,,,,,,images/exp1b_trial_57_colour1_distractors4_l.png,l,1,006,001,2021-04-14_15h44.27.197,searchDisc4,2020.2.10,Win32,60,,,space,0.18874,1,1,0.801315,,0,307,307,171,1,1b,57,1,4,
,,,,,,,,,,,,,,,,,,,,,,,,,,images/exp1a_trial_19_colour1_distractors4_l.png,l,1,006,001,2021-04-14_15h44.27.197,searchDisc4,2020.2.10,Win32,60,,,space,0.187705,1,1,0.6307,,0,308,308,19,1,1a,19,1,4,
,,,,,,,,,,,,,,,,,,,,,,,,,,images/exp2a_trial_5_colour1_distractors43_r.png,r,2,006,001,2021-04-14_15h44.27.197,searchDisc4,2020.2.10,Win32,60,,,space,0.2094,2,1,1.067495,,0,309,309,233,1,2a,5,1,43,
,,,,,,,,,,,,,,,,,,,,,,,,,,images/exp2c_trial_104_colour2_distractors31_l.png,l,1,006,001,2021-04-14_15h44.27.197,searchDisc4,2020.2.10,Win32,60,,,space,0.284555,1,1,0.68217,,0,310,310,560,1,2c,104,2,31,
,,,,,,,,,,,,,,,,,,,,,,,,,,images/exp2c_trial_81_colour1_distractors43_r.png,r,2,006,001,2021-04-14_15h44.27.197,searchDisc4,2020.2.10,Win32,60,,,space,0.211915,2,1,0.580795,,0,311,311,537,1,2c,81,1,43,
,,,,,,,,,,,,,,,,,,,,,,,,,,images/exp1b_trial_5_colour1_distractors43_r.png,r,2,006,001,2021-04-14_15h44.27.197,searchDisc4,2020.2.10,Win32,60,,,space,0.195,2,1,0.94086,,0,312,312,119,1,1b,5,1,43,
,,,,,,,,,,,,,,,,,,,,,,,,,,images/exp2c_trial_16_colour3_distractors31_r.png,r,2,006,001,2021-04-14_15h44.27.197,searchDisc4,2020.2.10,Win32,60,,,space,0.18661,2,1,0.456725,,0,313,313,472,1,2c,16,3,31,
,,,,,,,,,,,,,,,,,,,,,,,,,,images/exp1b_trial_36_colour0_distractors0_r.png,r,2,006,001,2021-04-14_15h44.27.197,searchDisc4,2020.2.10,Win32,60,,,space,0.20907,2,1,0.548105,,0,314,314,150,1,1b,36,0,0,
,,,,,,,,,,,,,,,,,,,,,,,,,,images/exp1a_trial_48_colour2_distractors31_r.png,r,2,006,001,2021-04-14_15h44.27.197,searchDisc4,2020.2.10,Win32,60,,,space,0.1928,2,1,0.43673,,0,315,315,48,1,1a,48,2,31,
,,,,,,,,,,,,,,,,,,,,,,,,,,images/exp2b_trial_107_colour3_distractors4_l.png,l,1,006,001,2021-04-14_15h44.27.197,searchDisc4,2020.2.10,Win32,60,,,space,0.22221,1,1,0.953055,,0,316,316,449,1,2b,107,3,4,
,,,,,,,,,,,,,,,,,,,,,,,,,,images/exp2a_trial_0_colour1_distractors1_r.png,r,2,006,001,2021-04-14_15h44.27.197,searchDisc4,2020.2.10,Win32,60,,,space,0.19884,2,1,0.60068,,0,317,317,228,1,2a,0,1,1,
,,,,,,,,,,,,,,,,,,,,,,,,,,images/exp2c_trial_25_colour2_distractors4_l.png,l,1,006,001,2021-04-14_15h44.27.197,searchDisc4,2020.2.10,Win32,60,,,space,0.179715,1,1,0.49727,,0,318,318,481,1,2c,25,2,4,
,,,,,,,,,,,,,,,,,,,,,,,,,,images/exp2c_trial_38_colour1_distractors1_r.png,r,2,006,001,2021-04-14_15h44.27.197,searchDisc4,2020.2.10,Win32,60,,,space,0.191855,2,1,0.619185,,0,319,319,494,1,2c,38,1,1,
,,,,,,,,,,,,,,,,,,,,,,,,,,images/exp1b_trial_41_colour1_distractors19_r.png,r,2,006,001,2021-04-14_15h44.27.197,searchDisc4,2020.2.10,Win32,60,,,space,0.14957,2,1,0.69885,,0,320,320,155,1,1b,41,1,19,
,,,,,,,,,,,,,,,,,,,,,,,,,,images/exp2b_trial_106_colour3_distractors1_l.png,l,1,006,001,2021-04-14_15h44.27.197,searchDisc4,2020.2.10,Win32,60,,,space,0.169725,1,1,0.63045,,0,321,321,448,1,2b,106,3,1,
,,,,,,,,,,,,,,,,,,,,,,,,,,images/exp2b_trial_84_colour2_distractors9_r.png,r,2,006,001,2021-04-14_15h44.27.197,searchDisc4,2020.2.10,Win32,60,,,space,0.192045,2,1,0.564085,,0,322,322,426,1,2b,84,2,9,
,,,,,,,,,,,,,,,,,,,,,,,,,,images/exp1a_trial_76_colour1_distractors1_r.png,r,2,006,001,2021-04-14_15h44.27.197,searchDisc4,2020.2.10,Win32,60,,,space,0.16794,2,1,0.98844,,0,323,323,76,1,1a,76,1,1,
,,,,,,,,,,,,,,,,,,,,,,,,,,images/exp2a_trial_83_colour2_distractors4_r.png,r,2,006,001,2021-04-14_15h44.27.197,searchDisc4,2020.2.10,Win32,60,,,space,0.120215,2,1,0.54302,,0,324,324,311,1,2a,83,2,4,
,,,,,,,,,,,,,,,,,,,,,,,,,,images/exp2c_trial_94_colour1_distractors1_l.png,l,1,006,001,2021-04-14_15h44.27.197,searchDisc4,2020.2.10,Win32,60,,,space,0.16435,1,1,0.64091,,0,325,325,550,1,2c,94,1,1,
,,,,,,,,,,,,,,,,,,,,,,,,,,images/exp2b_trial_49_colour2_distractors43_r.png,r,2,006,001,2021-04-14_15h44.27.197,searchDisc4,2020.2.10,Win32,60,,,space,0.13873,2,1,0.688735,,0,326,326,391,1,2b,49,2,43,
,,,,,,,,,,,,,,,,,,,,,,,,,,images/exp2b_trial_24_colour2_distractors1_l.png,l,1,006,001,2021-04-14_15h44.27.197,searchDisc4,2020.2.10,Win32,60,,,space,0.168015,1,1,0.709485,,0,327,327,366,1,2b,24,2,1,
,,,,,,,,,,,,,,,,,,,,,,,,,,images/exp2b_trial_10_colour2_distractors31_r.png,r,2,006,001,2021-04-14_15h44.27.197,searchDisc4,2020.2.10,Win32,60,,,space,0.15582,2,1,0.66492,,0,328,328,352,1,2b,10,2,31,
,,,,,,,,,,,,,,,,,,,,,,,,,,images/exp2c_trial_18_colour1_distractors1_l.png,l,1,006,001,2021-04-14_15h44.27.197,searchDisc4,2020.2.10,Win32,60,,,space,0.18546,1,1,0.517795,,0,329,329,474,1,2c,18,1,1,
,,,,,,,,,,,,,,,,,,,,,,,,,,images/exp2a_trial_102_colour2_distractors9_l.png,l,1,006,001,2021-04-14_15h44.27.197,searchDisc4,2020.2.10,Win32,60,,,space,0.19528,1,1,0.68604,,0,330,330,330,1,2a,102,2,9,
,,,,,,,,,,,,,,,,,,,,,,,,,,images/exp2c_trial_83_colour2_distractors4_r.png,r,2,006,001,2021-04-14_15h44.27.197,searchDisc4,2020.2.10,Win32,60,,,space,0.158775,2,1,0.684595,,0,331,331,539,1,2c,83,2,4,
,,,,,,,,,,,,,,,,,,,,,,,,,,images/exp2a_trial_51_colour3_distractors4_r.png,r,2,006,001,2021-04-14_15h44.27.197,searchDisc4,2020.2.10,Win32,60,,,space,0.15599,2,1,0.59351,,0,332,332,279,1,2a,51,3,4,
,,,,,,,,,,,,,,,,,,,,,,,,,,images/exp2b_trial_86_colour2_distractors31_r.png,r,2,006,001,2021-04-14_15h44.27.197,searchDisc4,2020.2.10,Win32,60,,,space,0.14983,2,1,0.67957,,0,333,333,428,1,2b,86,2,31,
,,,,,,,,,,,,,,,,,,,,,,,,,,images/exp2a_trial_48_colour2_distractors31_r.png,r,2,006,001,2021-04-14_15h44.27.197,searchDisc4,2020.2.10,Win32,60,,,space,0.153115,2,1,0.525415,,0,334,334,276,1,2a,48,2,31,
,,,,,,,,,,,,,,,,,,,,,,,,,,images/exp2b_trial_69_colour3_distractors4_l.png,l,1,006,001,2021-04-14_15h44.27.197,searchDisc4,2020.2.10,Win32,60,,,space,0.14874,1,1,0.729615,,0,335,335,411,1,2b,69,3,4,
,,,,,,,,,,,,,,,,,,,,,,,,,,images/exp2a_trial_7_colour2_distractors4_r.png,r,2,006,001,2021-04-14_15h44.27.197,searchDisc4,2020.2.10,Win32,60,,,space,0.151055,2,1,0.66056,,0,336,336,235,1,2a,7,2,4,
,,,,,,,,,,,,,,,,,,,,,,,,,,images/exp2b_trial_74_colour0_distractors0_r.png,r,2,006,001,2021-04-14_15h44.27.197,searchDisc4,2020.2.10,Win32,60,,,space,0.141605,2,1,0.683285,,0,337,337,416,1,2b,74,0,0,
,,,,,,,,,,,,,,,,,,,,,,,,,,images/exp2c_trial_61_colour1_distractors43_l.png,l,1,006,001,2021-04-14_15h44.27.197,searchDisc4,2020.2.10,Win32,60,,,space,0.138895,1,1,0.633365,,0,338,338,517,1,2c,61,1,43,
,,,,,,,,,,,,,,,,,,,,,,,,,,images/exp2b_trial_35_colour3_distractors43_l.png,l,1,006,001,2021-04-14_15h44.27.197,searchDisc4,2020.2.10,Win32,60,,,space,0.17043,1,1,0.88604,,0,339,339,377,1,2b,35,3,43,
,,,,,,,,,,,,,,,,,,,,,,,,,,images/exp2a_trial_88_colour3_distractors1_r.png,r,2,006,001,2021-04-14_15h44.27.197,searchDisc4,2020.2.10,Win32,60,,,space,0.174385,2,1,0.84314,,0,340,340,316,1,2a,88,3,1,
,,,,,,,,,,,,,,,,,,,,,,,,,,images/exp2c_trial_55_colour3_distractors43_r.png,r,2,006,001,2021-04-14_15h44.27.197,searchDisc4,2020.2.10,Win32,60,,,space,0.179515,2,1,0.59175,,0,341,341,511,1,2c,55,3,43,
,,,,,,,,,,,,,,,,,,,,,,,,,,images/exp1b_trial_24_colour2_distractors1_l.png,l,1,006,001,2021-04-14_15h44.27.197,searchDisc4,2020.2.10,Win32,60,,,space,0.22107,1,1,0.64676,,0,342,342,138,1,1b,24,2,1,
,,,,,,,,,,,,,,,,,,,,,,,,,,images/exp1a_trial_4_colour1_distractors31_r.png,r,2,006,001,2021-04-14_15h44.27.197,searchDisc4,2020.2.10,Win32,60,,,space,0.19183,2,1,0.76945,,0,343,343,4,1,1a,4,1,31,
,,,,,,,,,,,,,,,,,,,,,,,,,,images/exp1a_trial_64_colour2_distractors9_l.png,l,1,006,001,2021-04-14_15h44.27.197,searchDisc4,2020.2.10,Win32,60,,,space,0.192185,1,1,0.71554,,0,344,344,64,1,1a,64,2,9,
,,,,,,,,,,,,,,,,,,,,,,,,,,images/exp2c_trial_105_colour2_distractors43_l.png,l,1,006,001,2021-04-14_15h44.27.197,searchDisc4,2020.2.10,Win32,60,,,space,0.162715,1,1,0.60008,,0,345,345,561,1,2c,105,2,43,
,,,,,,,,,,,,,,,,,,,,,,,,,,images/exp1b_trial_42_colour1_distractors31_r.png,r,2,006,001,2021-04-14_15h44.27.197,searchDisc4,2020.2.10,Win32,60,,,space,0.1545,2,1,0.743065,,0,346,346,156,1,1b,42,1,31,
,,,,,,,,,,,,,,,,,,,,,,,,,,images/exp1a_trial_12_colour3_distractors1_r.png,r,2,006,001,2021-04-14_15h44.27.197,searchDisc4,2020.2.10,Win32,60,,,space,0.21331,2,1,0.58436,,0,347,347,12,1,1a,12,3,1,
,,,,,,,,,,,,,,,,,,,,,,,,,,images/exp2b_trial_39_colour1_distractors4_r.png,r,2,006,001,2021-04-14_15h44.27.197,searchDisc4,2020.2.10,Win32,60,,,space,0.14901,2,1,0.561525,,0,348,348,381,1,2b,39,1,4,
,,,,,,,,,,,,,,,,,,,,,,,,,,images/exp2c_trial_41_colour1_distractors19_r.png,r,2,006,001,2021-04-14_15h44.27.197,searchDisc4,2020.2.10,Win32,60,,,space,0.16428,2,1,0.649385,,0,349,349,497,1,2c,41,1,19,
,,,,,,,,,,,,,,,,,,,,,,,,,,images/exp2a_trial_46_colour2_distractors9_r.png,r,2,006,001,2021-04-14_15h44.27.197,searchDisc4,2020.2.10,Win32,60,,,space,0.16261,2,1,0.783935,,0,350,350,274,1,2a,46,2,9,
,,,,,,,,,,,,,,,,,,,,,,,,,,images/exp1b_trial_62_colour2_distractors1_l.png,l,1,006,001,2021-04-14_15h44.27.197,searchDisc4,2020.2.10,Win32,60,,,space,0.195755,1,1,0.631385,,0,351,351,176,1,1b,62,2,1,
,,,,,,,,,,,,,,,,,,,,,,,,,,images/exp1b_trial_80_colour1_distractors31_r.png,r,2,006,001,2021-04-14_15h44.27.197,searchDisc4,2020.2.10,Win32,60,,,space,0.153115,1,0,0.81378,,0,352,352,194,1,1b,80,1,31,
,,,,,,,,,,,,,,,,,,,,,,,,,,images/exp2a_trial_52_colour3_distractors9_r.png,r,2,006,001,2021-04-14_15h44.27.197,searchDisc4,2020.2.10,Win32,60,,,space,0.608795,2,1,0.7952,,0,353,353,280,1,2a,52,3,9,
,,,,,,,,,,,,,,,,,,,,,,,,,,images/exp1b_trial_92_colour3_distractors31_r.png,r,2,006,001,2021-04-14_15h44.27.197,searchDisc4,2020.2.10,Win32,60,,,space,0.166735,2,1,0.72389,,0,354,354,206,1,1b,92,3,31,
,,,,,,,,,,,,,,,,,,,,,,,,,,images/exp2b_trial_56_colour1_distractors1_l.png,l,1,006,001,2021-04-14_15h44.27.197,searchDisc4,2020.2.10,Win32,60,,,space,0.17729,2,0,0.492855,,0,355,355,398,1,2b,56,1,1,
,,,,,,,,,,,,,,,,,,,,,,,,,,images/exp2a_trial_39_colour1_distractors4_r.png,r,2,006,001,2021-04-14_15h44.27.197,searchDisc4,2020.2.10,Win32,60,,,space,0.55763,2,1,0.63546,,0,356,356,267,1,2a,39,1,4,
,,,,,,,,,,,,,,,,,,,,,,,,,,images/exp2b_trial_113_colour0_distractors0_l.png,l,1,006,001,2021-04-14_15h44.27.197,searchDisc4,2020.2.10,Win32,60,,,space,0.188305,1,1,0.68082,,0,357,357,455,1,2b,113,0,0,
,,,,,,,,,,,,,,,,,,,,,,,,,,images/exp1b_trial_64_colour2_distractors9_l.png,l,1,006,001,2021-04-14_15h44.27.197,searchDisc4,2020.2.10,Win32,60,,,space,0.128135,1,1,0.854465,,0,358,358,178,1,1b,64,2,9,
,,,,,,,,,,,,,,,,,,,,,,,,,,images/exp2a_trial_101_colour2_distractors4_l.png,l,1,006,001,2021-04-14_15h44.27.197,searchDisc4,2020.2.10,Win32,60,,,space,0.127225,1,1,0.58222,space,0,359,359,329,1,2a,101,2,4,0.15141
,,,,,,,,,,,,,,,,,,,,,,,,,,images/exp2c_trial_4_colour1_distractors31_r.png,r,2,006,001,2021-04-14_15h44.27.197,searchDisc4,2020.2.10,Win32,60,,,space,1.187365,2,1,0.66198,,0,360,360,460,1,2c,4,1,31,
,,,,,,,,,,,,,,,,,,,,,,,,,,images/exp2c_trial_102_colour2_distractors9_l.png,l,1,006,001,2021-04-14_15h44.27.197,searchDisc4,2020.2.10,Win32,60,,,space,0.17531,2,0,0.572085,,0,361,361,558,1,2c,102,2,9,
,,,,,,,,,,,,,,,,,,,,,,,,,,images/exp1a_trial_66_colour2_distractors31_l.png,l,1,006,001,2021-04-14_15h44.27.197,searchDisc4,2020.2.10,Win32,60,,,space,0.583705,1,1,0.69922,,0,362,362,66,1,1a,66,2,31,
,,,,,,,,,,,,,,,,,,,,,,,,,,images/exp1a_trial_93_colour3_distractors43_r.png,r,2,006,001,2021-04-14_15h44.27.197,searchDisc4,2020.2.10,Win32,60,,,space,0.14652,2,1,0.622325,,0,363,363,93,1,1a,93,3,43,
,,,,,,,,,,,,,,,,,,,,,,,,,,images/exp2a_trial_107_colour3_distractors4_l.png,l,1,006,001,2021-04-14_15h44.27.197,searchDisc4,2020.2.10,Win32,60,,,space,0.210785,1,1,0.68039,,0,364,364,335,1,2a,107,3,4,
,,,,,,,,,,,,,,,,,,,,,,,,,,images/exp2a_trial_17_colour3_distractors43_r.png,r,2,006,001,2021-04-14_15h44.27.197,searchDisc4,2020.2.10,Win32,60,,,space,0.133275,2,1,0.560045,,0,365,365,245,1,2a,17,3,43,
,,,,,,,,,,,,,,,,,,,,,,,,,,images/exp2b_trial_3_colour1_distractors19_r.png,r,2,006,001,2021-04-14_15h44.27.197,searchDisc4,2020.2.10,Win32,60,,,space,0.15968,2,1,0.596685,,0,366,366,345,1,2b,3,1,19,
,,,,,,,,,,,,,,,,,,,,,,,,,,images/exp1b_trial_16_colour3_distractors31_r.png,r,2,006,001,2021-04-14_15h44.27.197,searchDisc4,2020.2.10,Win32,60,,,space,0.13577,2,1,3.139605,,0,367,367,130,1,1b,16,3,31,
,,,,,,,,,,,,,,,,,,,,,,,,,,images/exp1b_trial_97_colour1_distractors19_l.png,l,1,006,001,2021-04-14_15h44.27.197,searchDisc4,2020.2.10,Win32,60,,,space,0.139425,1,1,0.80963,,0,368,368,211,1,1b,97,1,19,
,,,,,,,,,,,,,,,,,,,,,,,,,,images/exp1a_trial_108_colour3_distractors9_l.png,l,1,006,001,2021-04-14_15h44.27.197,searchDisc4,2020.2.10,Win32,60,,,space,0.140195,1,1,0.7271,,0,369,369,108,1,1a,108,3,9,
,,,,,,,,,,,,,,,,,,,,,,,,,,images/exp2a_trial_2_colour1_distractors9_r.png,r,2,006,001,2021-04-14_15h44.27.197,searchDisc4,2020.2.10,Win32,60,,,space,0.111595,2,1,0.70336,,0,370,370,230,1,2a,2,1,9,
,,,,,,,,,,,,,,,,,,,,,,,,,,images/exp2b_trial_26_colour2_distractors9_l.png,l,1,006,001,2021-04-14_15h44.27.197,searchDisc4,2020.2.10,Win32,60,,,space,0.132605,1,1,0.64302,,0,371,371,368,1,2b,26,2,9,
,,,,,,,,,,,,,,,,,,,,,,,,,,images/exp1a_trial_65_colour2_distractors19_l.png,l,1,006,001,2021-04-14_15h44.27.197,searchDisc4,2020.2.10,Win32,60,,,space,0.20512,1,1,0.87183,,0,372,372,65,1,1a,65,2,19,
,,,,,,,,,,,,,,,,,,,,,,,,,,images/exp2c_trial_63_colour2_distractors4_l.png,l,1,006,001,2021-04-14_15h44.27.197,searchDisc4,2020.2.10,Win32,60,,,space,0.20704,1,1,0.524455,,0,373,373,519,1,2c,63,2,4,
,,,,,,,,,,,,,,,,,,,,,,,,,,images/exp2c_trial_46_colour2_distractors9_r.png,r,2,006,001,2021-04-14_15h44.27.197,searchDisc4,2020.2.10,Win32,60,,,space,0.21828,2,1,0.74061,,0,374,374,502,1,2c,46,2,9,
,,,,,,,,,,,,,,,,,,,,,,,,,,images/exp1b_trial_22_colour1_distractors31_l.png,l,1,006,001,2021-04-14_15h44.27.197,searchDisc4,2020.2.10,Win32,60,,,space,0.18619,1,1,1.64605,,0,375,375,136,1,1b,22,1,31,
,,,,,,,,,,,,,,,,,,,,,,,,,,images/exp2a_trial_20_colour1_distractors9_l.png,l,1,006,001,2021-04-14_15h44.27.197,searchDisc4,2020.2.10,Win32,60,,,space,0.527075,1,1,0.564865,,0,376,376,248,1,2a,20,1,9,
,,,,,,,,,,,,,,,,,,,,,,,,,,images/exp2a_trial_45_colour2_distractors4_r.png,r,2,006,001,2021-04-14_15h44.27.197,searchDisc4,2020.2.10,Win32,60,,,space,0.209815,2,1,0.725165,,0,377,377,273,1,2a,45,2,4,
,,,,,,,,,,,,,,,,,,,,,,,,,,images/exp1b_trial_47_colour2_distractors19_r.png,r,2,006,001,2021-04-14_15h44.27.197,searchDisc4,2020.2.10,Win32,60,,,space,0.18732,2,1,0.935765,,0,378,378,161,1,1b,47,2,19,
,,,,,,,,,,,,,,,,,,,,,,,,,,images/exp2c_trial_51_colour3_distractors4_r.png,r,2,006,001,2021-04-14_15h44.27.197,searchDisc4,2020.2.10,Win32,60,,,space,0.188775,2,1,0.69662,,0,379,379,507,1,2c,51,3,4,
,,,,,,,,,,,,,,,,,,,,,,,,,,images/exp2a_trial_75_colour0_distractors0_l.png,l,1,006,001,2021-04-14_15h44.27.197,searchDisc4,2020.2.10,Win32,60,,,space,0.191715,1,1,0.556,,0,380,380,303,1,2a,75,0,0,
,,,,,,,,,,,,,,,,,,,,,,,,,,images/exp1a_trial_9_colour2_distractors19_r.png,r,2,006,001,2021-04-14_15h44.27.197,searchDisc4,2020.2.10,Win32,60,,,space,0.24059,2,1,0.67437,,0,381,381,9,1,1a,9,2,19,
,,,,,,,,,,,,,,,,,,,,,,,,,,images/exp2a_trial_64_colour2_distractors9_l.png,l,1,006,001,2021-04-14_15h44.27.197,searchDisc4,2020.2.10,Win32,60,,,space,0.202595,1,1,0.54072,,0,382,382,292,1,2a,64,2,9,
,,,,,,,,,,,,,,,,,,,,,,,,,,images/exp2c_trial_72_colour3_distractors31_l.png,l,1,006,001,2021-04-14_15h44.27.197,searchDisc4,2020.2.10,Win32,60,,,space,0.23536,1,1,0.6917,,0,383,383,528,1,2c,72,3,31,
,,,,,,,,,,,,,,,,,,,,,,,,,,images/exp2c_trial_97_colour1_distractors19_l.png,l,1,006,001,2021-04-14_15h44.27.197,searchDisc4,2020.2.10,Win32,60,,,space,0.19677,1,1,0.70454,,0,384,384,553,1,2c,97,1,19,
,,,,,,,,,,,,,,,,,,,,,,,,,,images/exp1a_trial_97_colour1_distractors19_l.png,l,1,006,001,2021-04-14_15h44.27.197,searchDisc4,2020.2.10,Win32,60,,,space,0.175055,1,1,0.49116,,0,385,385,97,1,1a,97,1,19,
,,,,,,,,,,,,,,,,,,,,,,,,,,images/exp2a_trial_55_colour3_distractors43_r.png,r,2,006,001,2021-04-14_15h44.27.197,searchDisc4,2020.2.10,Win32,60,,,space,0.227515,2,1,0.955415,,0,386,386,283,1,2a,55,3,43,
,,,,,,,,,,,,,,,,,,,,,,,,,,images/exp2c_trial_93_colour3_distractors43_r.png,r,2,006,001,2021-04-14_15h44.27.197,searchDisc4,2020.2.10,Win32,60,,,space,0.170935,2,1,0.56676,,0,387,387,549,1,2c,93,3,43,
,,,,,,,,,,,,,,,,,,,,,,,,,,images/exp2c_trial_5_colour1_distractors43_r.png,r,2,006,001,2021-04-14_15h44.27.197,searchDisc4,2020.2.10,Win32,60,,,space,0.17964,2,1,0.69694,,0,388,388,461,1,2c,5,1,43,
,,,,,,,,,,,,,,,,,,,,,,,,,,images/exp1b_trial_51_colour3_distractors4_r.png,r,2,006,001,2021-04-14_15h44.27.197,searchDisc4,2020.2.10,Win32,60,,,space,0.16691,2,1,1.002585,,0,389,389,165,1,1b,51,3,4,
,,,,,,,,,,,,,,,,,,,,,,,,,,images/exp1b_trial_37_colour0_distractors0_l.png,l,1,006,001,2021-04-14_15h44.27.197,searchDisc4,2020.2.10,Win32,60,,,space,0.15091,1,1,0.755555,,0,390,390,151,1,1b,37,0,0,
,,,,,,,,,,,,,,,,,,,,,,,,,,images/exp2b_trial_62_colour2_distractors1_l.png,l,1,006,001,2021-04-14_15h44.27.197,searchDisc4,2020.2.10,Win32,60,,,space,0.216455,1,1,0.579085,,0,391,391,404,1,2b,62,2,1,
,,,,,,,,,,,,,,,,,,,,,,,,,,images/exp2c_trial_44_colour2_distractors1_r.png,r,2,006,001,2021-04-14_15h44.27.197,searchDisc4,2020.2.10,Win32,60,,,space,0.2309,2,1,0.593485,,0,392,392,500,1,2c,44,2,1,
,,,,,,,,,,,,,,,,,,,,,,,,,,images/exp1b_trial_93_colour3_distractors43_r.png,r,2,006,001,2021-04-14_15h44.27.197,searchDisc4,2020.2.10,Win32,60,,,space,0.341185,2,1,1.22505,,0,393,393,207,1,1b,93,3,43,
,,,,,,,,,,,,,,,,,,,,,,,,,,images/exp2c_trial_69_colour3_distractors4_l.png,l,1,006,001,2021-04-14_15h44.27.197,searchDisc4,2020.2.10,Win32,60,,,space,0.165385,1,1,0.61798,,0,394,394,525,1,2c,69,3,4,
,,,,,,,,,,,,,,,,,,,,,,,,,,images/exp2c_trial_23_colour1_distractors43_l.png,l,1,006,001,2021-04-14_15h44.27.197,searchDisc4,2020.2.10,Win32,60,,,space,0.1801,1,1,0.72029,,0,395,395,479,1,2c,23,1,43,
,,,,,,,,,,,,,,,,,,,,,,,,,,images/exp2a_trial_24_colour2_distractors1_l.png,l,1,006,001,2021-04-14_15h44.27.197,searchDisc4,2020.2.10,Win32,60,,,space,0.08688,1,1,0.5981,,0,396,396,252,1,2a,24,2,1,
,,,,,,,,,,,,,,,,,,,,,,,,,,images/exp1b_trial_2_colour1_distractors9_r.png,r,2,006,001,2021-04-14_15h44.27.197,searchDisc4,2020.2.10,Win32,60,,,space,0.177535,2,1,0.69434,,0,397,397,116,1,1b,2,1,9,
,,,,,,,,,,,,,,,,,,,,,,,,,,images/exp2a_trial_10_colour2_distractors31_r.png,r,2,006,001,2021-04-14_15h44.27.197,searchDisc4,2020.2.10,Win32,60,,,space,0.124925,2,1,0.61086,,0,398,398,238,1,2a,10,2,31,
,,,,,,,,,,,,,,,,,,,,,,,,,,images/exp2a_trial_91_colour3_distractors19_r.png,r,2,006,001,2021-04-14_15h44.27.197,searchDisc4,2020.2.10,Win32,60,,,space,0.07751,2,1,0.66784,,0,399,399,319,1,2a,91,3,19,
,,,,,,,,,,,,,,,,,,,,,,,,,,images/exp2b_trial_8_colour2_distractors9_r.png,r,2,006,001,2021-04-14_15h44.27.197,searchDisc4,2020.2.10,Win32,60,,,space,0.022325,2,1,1.169025,,0,400,400,350,1,2b,8,2,9,
,,,,,,,,,,,,,,,,,,,,,,,,,,images/exp2a_trial_27_colour2_distractors19_l.png,l,1,006,001,2021-04-14_15h44.27.197,searchDisc4,2020.2.10,Win32,60,,,space,0.30129,1,1,1.067595,,0,401,401,255,1,2a,27,2,19,
,,,,,,,,,,,,,,,,,,,,,,,,,,images/exp2c_trial_75_colour0_distractors0_l.png,l,1,006,001,2021-04-14_15h44.27.197,searchDisc4,2020.2.10,Win32,60,,,space,0.300605,1,1,0.636415,,0,402,402,531,1,2c,75,0,0,
,,,,,,,,,,,,,,,,,,,,,,,,,,images/exp2c_trial_52_colour3_distractors9_r.png,r,2,006,001,2021-04-14_15h44.27.197,searchDisc4,2020.2.10,Win32,60,,,space,0.253965,2,1,1.07002,,0,403,403,508,1,2c,52,3,9,
,,,,,,,,,,,,,,,,,,,,,,,,,,images/exp1a_trial_38_colour1_distractors1_r.png,r,2,006,001,2021-04-14_15h44.27.197,searchDisc4,2020.2.10,Win32,60,,,space,0.575255,2,1,1.23393,,0,404,404,38,1,1a,38,1,1,
,,,,,,,,,,,,,,,,,,,,,,,,,,images/exp2b_trial_11_colour2_distractors43_r.png,r,2,006,001,2021-04-14_15h44.27.197,searchDisc4,2020.2.10,Win32,60,,,space,0.437135,2,1,0.58352,,0,405,405,353,1,2b,11,2,43,
,,,,,,,,,,,,,,,,,,,,,,,,,,images/exp1b_trial_76_colour1_distractors1_r.png,r,2,006,001,2021-04-14_15h44.27.197,searchDisc4,2020.2.10,Win32,60,,,space,0.395085,2,1,0.557555,,0,406,406,190,1,1b,76,1,1,
,,,,,,,,,,,,,,,,,,,,,,,,,,images/exp1a_trial_20_colour1_distractors9_l.png,l,1,006,001,2021-04-14_15h44.27.197,searchDisc4,2020.2.10,Win32,60,,,space,0.587465,1,1,0.686885,,0,407,407,20,1,1a,20,1,9,
,,,,,,,,,,,,,,,,,,,,,,,,,,images/exp2c_trial_13_colour3_distractors4_r.png,r,2,006,001,2021-04-14_15h44.27.197,searchDisc4,2020.2.10,Win32,60,,,space,0.383025,2,1,0.571385,,0,408,408,469,1,2c,13,3,4,
,,,,,,,,,,,,,,,,,,,,,,,,,,images/exp1a_trial_70_colour3_distractors9_l.png,l,1,006,001,2021-04-14_15h44.27.197,searchDisc4,2020.2.10,Win32,60,,,space,0.43943,1,1,0.562365,,0,409,409,70,1,1a,70,3,9,
,,,,,,,,,,,,,,,,,,,,,,,,,,images/exp1b_trial_73_colour3_distractors43_l.png,l,1,006,001,2021-04-14_15h44.27.197,searchDisc4,2020.2.10,Win32,60,,,space,0.49346,1,1,1.3084,,0,410,410,187,1,1b,73,3,43,
,,,,,,,,,,,,,,,,,,,,,,,,,,images/exp1b_trial_12_colour3_distractors1_r.png,r,2,006,001,2021-04-14_15h44.27.197,searchDisc4,2020.2.10,Win32,60,,,space,0.35634,2,1,0.577905,,0,411,411,126,1,1b,12,3,1,
,,,,,,,,,,,,,,,,,,,,,,,,,,images/exp1a_trial_94_colour1_distractors1_l.png,l,1,006,001,2021-04-14_15h44.27.197,searchDisc4,2020.2.10,Win32,60,,,space,0.373645,1,1,0.68748,,0,412,412,94,1,1a,94,1,1,
,,,,,,,,,,,,,,,,,,,,,,,,,,images/exp2a_trial_79_colour1_distractors19_r.png,r,2,006,001,2021-04-14_15h44.27.197,searchDisc4,2020.2.10,Win32,60,,,space,0.32974,2,1,1.896885,,0,413,413,307,1,2a,79,1,19,
,,,,,,,,,,,,,,,,,,,,,,,,,,images/exp2c_trial_89_colour3_distractors4_r.png,r,2,006,001,2021-04-14_15h44.27.197,searchDisc4,2020.2.10,Win32,60,,,space,0.27825,2,1,0.712635,,0,414,414,545,1,2c,89,3,4,
,,,,,,,,,,,,,,,,,,,,,,,,,,images/exp1a_trial_31_colour3_distractors4_l.png,l,1,006,001,2021-04-14_15h44.27.197,searchDisc4,2020.2.10,Win32,60,,,space,0.270195,1,1,0.822075,,0,415,415,31,1,1a,31,3,4,
,,,,,,,,,,,,,,,,,,,,,,,,,,images/exp1a_trial_46_colour2_distractors9_r.png,r,2,006,001,2021-04-14_15h44.27.197,searchDisc4,2020.2.10,Win32,60,,,space,0.28931,2,1,0.848755,,0,416,416,46,1,1a,46,2,9,
,,,,,,,,,,,,,,,,,,,,,,,,,,images/exp2b_trial_109_colour3_distractors19_l.png,l,1,006,001,2021-04-14_15h44.27.197,searchDisc4,2020.2.10,Win32,60,,,space,0.18575,1,1,0.59769,,0,417,417,451,1,2b,109,3,19,
,,,,,,,,,,,,,,,,,,,,,,,,,,images/exp2a_trial_54_colour3_distractors31_r.png,r,2,006,001,2021-04-14_15h44.27.197,searchDisc4,2020.2.10,Win32,60,,,space,0.28855,2,1,0.757695,,0,418,418,282,1,2a,54,3,31,
,,,,,,,,,,,,,,,,,,,,,,,,,,images/exp1a_trial_54_colour3_distractors31_r.png,r,2,006,001,2021-04-14_15h44.27.197,searchDisc4,2020.2.10,Win32,60,,,space,0.34175,2,1,0.536625,space,0,419,419,54,1,1a,54,3,31,0.343025
,,,,,,,,,,,,,,,,,,,,,,,,,,images/exp2c_trial_45_colour2_distractors4_r.png,r,2,006,001,2021-04-14_15h44.27.197,searchDisc4,2020.2.10,Win32,60,,,space,1.091425,2,1,0.65727,,0,420,420,501,1,2c,45,2,4,
,,,,,,,,,,,,,,,,,,,,,,,,,,images/exp1b_trial_88_colour3_distractors1_r.png,r,2,006,001,2021-04-14_15h44.27.197,searchDisc4,2020.2.10,Win32,60,,,space,0.299945,2,1,0.811655,,0,421,421,202,1,1b,88,3,1,
,,,,,,,,,,,,,,,,,,,,,,,,,,images/exp1a_trial_41_colour1_distractors19_r.png,r,2,006,001,2021-04-14_15h44.27.197,searchDisc4,2020.2.10,Win32,60,,,space,0.205475,2,1,0.46327,,0,422,422,41,1,1a,41,1,19,
,,,,,,,,,,,,,,,,,,,,,,,,,,images/exp1b_trial_56_colour1_distractors1_l.png,l,1,006,001,2021-04-14_15h44.27.197,searchDisc4,2020.2.10,Win32,60,,,space,0.232715,1,1,0.601535,,0,423,423,170,1,1b,56,1,1,
,,,,,,,,,,,,,,,,,,,,,,,,,,images/exp2b_trial_40_colour1_distractors9_r.png,r,2,006,001,2021-04-14_15h44.27.197,searchDisc4,2020.2.10,Win32,60,,,space,0.24537,2,1,0.558805,,0,424,424,382,1,2b,40,1,9,
,,,,,,,,,,,,,,,,,,,,,,,,,,images/exp1b_trial_77_colour1_distractors4_r.png,r,2,006,001,2021-04-14_15h44.27.197,searchDisc4,2020.2.10,Win32,60,,,space,0.196355,2,1,0.736305,,0,425,425,191,1,1b,77,1,4,
,,,,,,,,,,,,,,,,,,,,,,,,,,images/exp2c_trial_64_colour2_distractors9_l.png,l,1,006,001,2021-04-14_15h44.27.197,searchDisc4,2020.2.10,Win32,60,,,space,0.173355,1,1,0.766725,,0,426,426,520,1,2c,64,2,9,
,,,,,,,,,,,,,,,,,,,,,,,,,,images/exp2a_trial_68_colour3_distractors1_l.png,l,1,006,001,2021-04-14_15h44.27.197,searchDisc4,2020.2.10,Win32,60,,,space,0.206325,1,1,0.537225,,0,427,427,296,1,2a,68,3,1,
,,,,,,,,,,,,,,,,,,,,,,,,,,images/exp2b_trial_54_colour3_distractors31_r.png,r,2,006,001,2021-04-14_15h44.27.197,searchDisc4,2020.2.10,Win32,60,,,space,0.19115,2,1,0.82718,,0,428,428,396,1,2b,54,3,31,
,,,,,,,,,,,,,,,,,,,,,,,,,,images/exp1b_trial_91_colour3_distractors19_r.png,r,2,006,001,2021-04-14_15h44.27.197,searchDisc4,2020.2.10,Win32,60,,,space,0.20558,2,1,1.310945,,0,429,429,205,1,1b,91,3,19,
,,,,,,,,,,,,,,,,,,,,,,,,,,images/exp2c_trial_79_colour1_distractors19_r.png,r,2,006,001,2021-04-14_15h44.27.197,searchDisc4,2020.2.10,Win32,60,,,space,0.158815,2,1,0.739765,,0,430,430,535,1,2c,79,1,19,
,,,,,,,,,,,,,,,,,,,,,,,,,,images/exp1b_trial_86_colour2_distractors31_r.png,r,2,006,001,2021-04-14_15h44.27.197,searchDisc4,2020.2.10,Win32,60,,,space,0.12958,2,1,0.8158,,0,431,431,200,1,1b,86,2,31,
,,,,,,,,,,,,,,,,,,,,,,,,,,images/exp1a_trial_100_colour2_distractors1_l.png,l,1,006,001,2021-04-14_15h44.27.197,searchDisc4,2020.2.10,Win32,60,,,space,0.099205,2,0,0.513925,,0,432,432,100,1,1a,100,2,1,
,,,,,,,,,,,,,,,,,,,,,,,,,,images/exp2c_trial_9_colour2_distractors19_r.png,r,2,006,001,2021-04-14_15h44.27.197,searchDisc4,2020.2.10,Win32,60,,,space,0.15982,2,1,0.516885,,0,433,433,465,1,2c,9,2,19,
,,,,,,,,,,,,,,,,,,,,,,,,,,images/exp1b_trial_50_colour3_distractors1_r.png,r,2,006,001,2021-04-14_15h44.27.197,searchDisc4,2020.2.10,Win32,60,,,space,0.171195,2,1,0.77224,,0,434,434,164,1,1b,50,3,1,
,,,,,,,,,,,,,,,,,,,,,,,,,,images/exp2c_trial_47_colour2_distractors19_r.png,r,2,006,001,2021-04-14_15h44.27.197,searchDisc4,2020.2.10,Win32,60,,,space,0.14934,2,1,0.56246,,0,435,435,503,1,2c,47,2,19,
,,,,,,,,,,,,,,,,,,,,,,,,,,images/exp2c_trial_50_colour3_distractors1_r.png,r,2,006,001,2021-04-14_15h44.27.197,searchDisc4,2020.2.10,Win32,60,,,space,0.15739,2,1,0.63498,,0,436,436,506,1,2c,50,3,1,
,,,,,,,,,,,,,,,,,,,,,,,,,,images/exp2c_trial_73_colour3_distractors43_l.png,l,1,006,001,2021-04-14_15h44.27.197,searchDisc4,2020.2.10,Win32,60,,,space,0.19612,1,1,0.743655,,0,437,437,529,1,2c,73,3,43,
,,,,,,,,,,,,,,,,,,,,,,,,,,images/exp2a_trial_21_colour1_distractors19_l.png,l,1,006,001,2021-04-14_15h44.27.197,searchDisc4,2020.2.10,Win32,60,,,space,0.17321,1,1,0.56881,,0,438,438,249,1,2a,21,1,19,
,,,,,,,,,,,,,,,,,,,,,,,,,,images/exp2c_trial_39_colour1_distractors4_r.png,r,2,006,001,2021-04-14_15h44.27.197,searchDisc4,2020.2.10,Win32,60,,,space,0.199665,2,1,0.60746,,0,439,439,495,1,2c,39,1,4,
,,,,,,,,,,,,,,,,,,,,,,,,,,images/exp1b_trial_74_colour0_distractors0_r.png,r,2,006,001,2021-04-14_15h44.27.197,searchDisc4,2020.2.10,Win32,60,,,space,0.16388,2,1,0.505195,,0,440,440,188,1,1b,74,0,0,
,,,,,,,,,,,,,,,,,,,,,,,,,,images/exp2c_trial_85_colour2_distractors19_r.png,r,2,006,001,2021-04-14_15h44.27.197,searchDisc4,2020.2.10,Win32,60,,,space,0.17608,2,1,0.52333,,0,441,441,541,1,2c,85,2,19,
,,,,,,,,,,,,,,,,,,,,,,,,,,images/exp2b_trial_42_colour1_distractors31_r.png,r,2,006,001,2021-04-14_15h44.27.197,searchDisc4,2020.2.10,Win32,60,,,space,0.22663,2,1,0.714195,,0,442,442,384,1,2b,42,1,31,
,,,,,,,,,,,,,,,,,,,,,,,,,,images/exp1a_trial_44_colour2_distractors1_r.png,r,2,006,001,2021-04-14_15h44.27.197,searchDisc4,2020.2.10,Win32,60,,,space,0.17952,2,1,0.624415,,0,443,443,44,1,1a,44,2,1,
,,,,,,,,,,,,,,,,,,,,,,,,,,images/exp1b_trial_96_colour1_distractors9_l.png,l,1,006,001,2021-04-14_15h44.27.197,searchDisc4,2020.2.10,Win32,60,,,space,0.258125,1,1,0.752975,,0,444,444,210,1,1b,96,1,9,
,,,,,,,,,,,,,,,,,,,,,,,,,,images/exp1b_trial_69_colour3_distractors4_l.png,l,1,006,001,2021-04-14_15h44.27.197,searchDisc4,2020.2.10,Win32,60,,,space,0.16072,1,1,0.644555,,0,445,445,183,1,1b,69,3,4,
,,,,,,,,,,,,,,,,,,,,,,,,,,images/exp2b_trial_80_colour1_distractors31_r.png,r,2,006,001,2021-04-14_15h44.27.197,searchDisc4,2020.2.10,Win32,60,,,space,0.142525,2,1,0.81873,,0,446,446,422,1,2b,80,1,31,
,,,,,,,,,,,,,,,,,,,,,,,,,,images/exp1a_trial_113_colour0_distractors0_l.png,l,1,006,001,2021-04-14_15h44.27.197,searchDisc4,2020.2.10,Win32,60,,,space,0.10266,1,1,0.72626,,0,447,447,113,1,1a,113,0,0,
,,,,,,,,,,,,,,,,,,,,,,,,,,images/exp1b_trial_31_colour3_distractors4_l.png,l,1,006,001,2021-04-14_15h44.27.197,searchDisc4,2020.2.10,Win32,60,,,space,0.14933,1,1,0.865345,,0,448,448,145,1,1b,31,3,4,
,,,,,,,,,,,,,,,,,,,,,,,,,,images/exp2a_trial_71_colour3_distractors19_l.png,l,1,006,001,2021-04-14_15h44.27.197,searchDisc4,2020.2.10,Win32,60,,,space,0.129525,1,1,0.66167,,0,449,449,299,1,2a,71,3,19,
,,,,,,,,,,,,,,,,,,,,,,,,,,images/exp1a_trial_104_colour2_distractors31_l.png,l,1,006,001,2021-04-14_15h44.27.197,searchDisc4,2020.2.10,Win32,60,,,space,0.10429,1,1,0.655,,0,450,450,104,1,1a,104,2,31,
,,,,,,,,,,,,,,,,,,,,,,,,,,images/exp1b_trial_29_colour2_distractors43_l.png,l,1,006,001,2021-04-14_15h44.27.197,searchDisc4,2020.2.10,Win32,60,,,space,0.26549,1,1,0.679225,,0,451,451,143,1,1b,29,2,43,
,,,,,,,,,,,,,,,,,,,,,,,,,,images/exp2a_trial_90_colour3_distractors9_r.png,r,2,006,001,2021-04-14_15h44.27.197,searchDisc4,2020.2.10,Win32,60,,,space,0.21642,2,1,0.600865,,0,452,452,318,1,2a,90,3,9,
,,,,,,,,,,,,,,,,,,,,,,,,,,images/exp2b_trial_68_colour3_distractors1_l.png,l,1,006,001,2021-04-14_15h44.27.197,searchDisc4,2020.2.10,Win32,60,,,space,0.181915,2,0,0.618155,,0,453,453,410,1,2b,68,3,1,
,,,,,,,,,,,,,,,,,,,,,,,,,,images/exp2b_trial_59_colour1_distractors19_l.png,l,1,006,001,2021-04-14_15h44.27.197,searchDisc4,2020.2.10,Win32,60,,,space,0.460155,1,1,0.5641,,0,454,454,401,1,2b,59,1,19,
,,,,,,,,,,,,,,,,,,,,,,,,,,images/exp2c_trial_74_colour0_distractors0_r.png,r,2,006,001,2021-04-14_15h44.27.197,searchDisc4,2020.2.10,Win32,60,,,space,0.17754,2,1,0.67946,,0,455,455,530,1,2c,74,0,0,
,,,,,,,,,,,,,,,,,,,,,,,,,,images/exp1b_trial_106_colour3_distractors1_l.png,l,1,006,001,2021-04-14_15h44.27.197,searchDisc4,2020.2.10,Win32,60,,,space,0.14149,1,1,0.651115,,0,456,456,220,1,1b,106,3,1,
,,,,,,,,,,,,,,,,,,,,,,,,,,images/exp2b_trial_23_colour1_distractors43_l.png,l,1,006,001,2021-04-14_15h44.27.197,searchDisc4,2020.2.10,Win32,60,,,space,0.20443,1,1,0.56666,,0,457,457,365,1,2b,23,1,43,
,,,,,,,,,,,,,,,,,,,,,,,,,,images/exp2a_trial_89_colour3_distractors4_r.png,r,2,006,001,2021-04-14_15h44.27.197,searchDisc4,2020.2.10,Win32,60,,,space,0.196045,2,1,0.59998,,0,458,458,317,1,2a,89,3,4,
,,,,,,,,,,,,,,,,,,,,,,,,,,images/exp1a_trial_28_colour2_distractors31_l.png,l,1,006,001,2021-04-14_15h44.27.197,searchDisc4,2020.2.10,Win32,60,,,space,0.19448,1,1,0.650735,,0,459,459,28,1,1a,28,2,31,
,,,,,,,,,,,,,,,,,,,,,,,,,,images/exp1b_trial_68_colour3_distractors1_l.png,l,1,006,001,2021-04-14_15h44.27.197,searchDisc4,2020.2.10,Win32,60,,,space,0.199305,1,1,0.58709,,0,460,460,182,1,1b,68,3,1,
,,,,,,,,,,,,,,,,,,,,,,,,,,images/exp1a_trial_95_colour1_distractors4_l.png,l,1,006,001,2021-04-14_15h44.27.197,searchDisc4,2020.2.10,Win32,60,,,space,0.222455,1,1,0.488185,,0,461,461,95,1,1a,95,1,4,
,,,,,,,,,,,,,,,,,,,,,,,,,,images/exp2b_trial_15_colour3_distractors19_r.png,r,2,006,001,2021-04-14_15h44.27.197,searchDisc4,2020.2.10,Win32,60,,,space,0.21611,2,1,0.79661,,0,462,462,357,1,2b,15,3,19,
,,,,,,,,,,,,,,,,,,,,,,,,,,images/exp2a_trial_60_colour1_distractors31_l.png,l,1,006,001,2021-04-14_15h44.27.197,searchDisc4,2020.2.10,Win32,60,,,space,0.18213,1,1,0.57874,,0,463,463,288,1,2a,60,1,31,
,,,,,,,,,,,,,,,,,,,,,,,,,,images/exp1b_trial_78_colour1_distractors9_r.png,r,2,006,001,2021-04-14_15h44.27.197,searchDisc4,2020.2.10,Win32,60,,,space,0.269355,2,1,0.94124,,0,464,464,192,1,1b,78,1,9,
,,,,,,,,,,,,,,,,,,,,,,,,,,images/exp2a_trial_63_colour2_distractors4_l.png,l,1,006,001,2021-04-14_15h44.27.197,searchDisc4,2020.2.10,Win32,60,,,space,0.267185,1,1,0.948055,,0,465,465,291,1,2a,63,2,4,
,,,,,,,,,,,,,,,,,,,,,,,,,,images/exp2b_trial_99_colour1_distractors43_l.png,l,1,006,001,2021-04-14_15h44.27.197,searchDisc4,2020.2.10,Win32,60,,,space,0.600795,1,1,0.628225,,0,466,466,441,1,2b,99,1,43,
,,,,,,,,,,,,,,,,,,,,,,,,,,images/exp1a_trial_40_colour1_distractors9_r.png,r,2,006,001,2021-04-14_15h44.27.197,searchDisc4,2020.2.10,Win32,60,,,space,0.189495,2,1,0.75102,,0,467,467,40,1,1a,40,1,9,
,,,,,,,,,,,,,,,,,,,,,,,,,,images/exp1b_trial_17_colour3_distractors43_r.png,r,2,006,001,2021-04-14_15h44.27.197,searchDisc4,2020.2.10,Win32,60,,,space,0.215795,2,1,0.752085,,0,468,468,131,1,1b,17,3,43,
,,,,,,,,,,,,,,,,,,,,,,,,,,images/exp2c_trial_3_colour1_distractors19_r.png,r,2,006,001,2021-04-14_15h44.27.197,searchDisc4,2020.2.10,Win32,60,,,space,0.21381,2,1,0.53742,,0,469,469,459,1,2c,3,1,19,
,,,,,,,,,,,,,,,,,,,,,,,,,,images/exp2b_trial_67_colour2_distractors43_l.png,l,1,006,001,2021-04-14_15h44.27.197,searchDisc4,2020.2.10,Win32,60,,,space,0.1825,1,1,0.6027,,0,470,470,409,1,2b,67,2,43,
,,,,,,,,,,,,,,,,,,,,,,,,,,images/exp2c_trial_90_colour3_distractors9_r.png,r,2,006,001,2021-04-14_15h44.27.197,searchDisc4,2020.2.10,Win32,60,,,space,0.182295,2,1,0.655815,,0,471,471,546,1,2c,90,3,9,
,,,,,,,,,,,,,,,,,,,,,,,,,,images/exp2b_trial_100_colour2_distractors1_l.png,l,1,006,001,2021-04-14_15h44.27.197,searchDisc4,2020.2.10,Win32,60,,,space,0.20902,1,1,0.709655,,0,472,472,442,1,2b,100,2,1,
,,,,,,,,,,,,,,,,,,,,,,,,,,images/exp1a_trial_68_colour3_distractors1_l.png,l,1,006,001,2021-04-14_15h44.27.197,searchDisc4,2020.2.10,Win32,60,,,space,0.196145,1,1,0.728635,,0,473,473,68,1,1a,68,3,1,
,,,,,,,,,,,,,,,,,,,,,,,,,,images/exp2c_trial_100_colour2_distractors1_l.png,l,1,006,001,2021-04-14_15h44.27.197,searchDisc4,2020.2.10,Win32,60,,,space,0.1737,1,1,0.570245,,0,474,474,556,1,2c,100,2,1,
,,,,,,,,,,,,,,,,,,,,,,,,,,images/exp1a_trial_11_colour2_distractors43_r.png,r,2,006,001,2021-04-14_15h44.27.197,searchDisc4,2020.2.10,Win32,60,,,space,0.215575,2,1,0.77597,,0,475,475,11,1,1a,11,2,43,
,,,,,,,,,,,,,,,,,,,,,,,,,,images/exp2b_trial_31_colour3_distractors4_l.png,l,1,006,001,2021-04-14_15h44.27.197,searchDisc4,2020.2.10,Win32,60,,,space,0.189055,1,1,0.622485,,0,476,476,373,1,2b,31,3,4,
