X Scale,Y Scale,key_resp_10.keys,key_resp_10.rt,key_resp_11.keys,key_resp_11.rt,key_resp_12.keys,key_resp_12.rt,key_resp_13.keys,key_resp_13.rt,key_resp_5.keys,key_resp_5.rt,key_resp_8.keys,key_resp_8.rt,key_resp_6.keys,key_resp_6.rt,key_resp_7.keys,key_resp_7.rt,key_resp_4.keys,key_resp_4.corr,key_resp_4.rt,trials_2.thisRepN,trials_2.thisTrialN,trials_2.thisN,trials_2.thisIndex,trials_2.ran,ImageFile,targ_side,correctAnswer,participant,session,date,expName,psychopyVersion,OS,frameRate,key_resp_3.keys,key_resp_3.rt,key_resp_9.keys,key_resp_9.rt,key_resp_2.keys,key_resp_2.corr,key_resp_2.rt,key_resp.keys,trials.thisRepN,trials.thisTrialN,trials.thisN,trials.thisIndex,trials.ran,exp,trial,colour,distNo,key_resp.rt
17.9,17.5,space,6.898635,space,3.899905,space,3.838465,space,3.336055,space,9.367945,space,12.67902,space,4.058255,space,6.41782,1,1,3.2053,0,0,0,12,1,Practice arrays/exp1a_trial_25_colour2_distractors4_l.png,l,1,007,001,2021-04-14_19h46.58.408,searchDisc4,2020.2.10,Win32,60,,,,,,,,,,,,,,,,,,
,,,,,,,,,,,,,,,,space,1.883305,1,1,1.24265,0,1,1,10,1,Practice arrays/exp1a_trial_20_colour1_distractors9_l.png,l,1,007,001,2021-04-14_19h46.58.408,searchDisc4,2020.2.10,Win32,60,,,,,,,,,,,,,,,,,,
,,,,,,,,,,,,,,,,space,0.099975,2,1,0.830185,0,2,2,0,1,Practice arrays/exp1a_trial_0_colour1_distractors1_r.png,r,2,007,001,2021-04-14_19h46.58.408,searchDisc4,2020.2.10,Win32,60,,,,,,,,,,,,,,,,,,
,,,,,,,,,,,,,,,,space,0.494975,2,1,1.22027,0,3,3,18,1,Practice arrays/exp1a_trial_36_colour0_distractors0_r.png,r,2,007,001,2021-04-14_19h46.58.408,searchDisc4,2020.2.10,Win32,60,,,,,,,,,,,,,,,,,,
,,,,,,,,,,,,,,,,space,0.34166,2,1,1.49368,0,4,4,5,1,Practice arrays/exp1a_trial_10_colour2_distractors31_r.png,r,2,007,001,2021-04-14_19h46.58.408,searchDisc4,2020.2.10,Win32,60,,,,,,,,,,,,,,,,,,
,,,,,,,,,,,,,,,,space,0.336495,1,1,0.8711,0,5,5,17,1,Practice arrays/exp1a_trial_35_colour3_distractors43_l.png,l,1,007,001,2021-04-14_19h46.58.408,searchDisc4,2020.2.10,Win32,60,,,,,,,,,,,,,,,,,,
,,,,,,,,,,,,,,,,space,0.29186,2,1,0.64127,0,6,6,1,1,Practice arrays/exp1a_trial_3_colour1_distractors19_r.png,r,2,007,001,2021-04-14_19h46.58.408,searchDisc4,2020.2.10,Win32,60,,,,,,,,,,,,,,,,,,
,,,,,,,,,,,,,,,,space,0.328345,1,1,0.718315,0,7,7,13,1,Practice arrays/exp1a_trial_28_colour2_distractors31_l.png,l,1,007,001,2021-04-14_19h46.58.408,searchDisc4,2020.2.10,Win32,60,,,,,,,,,,,,,,,,,,
,,,,,,,,,,,,,,,,space,0.239395,1,1,0.650865,0,8,8,19,1,Practice arrays/exp1a_trial_37_colour0_distractors0_l.png,l,1,007,001,2021-04-14_19h46.58.408,searchDisc4,2020.2.10,Win32,60,,,,,,,,,,,,,,,,,,
,,,,,,,,,,,,,,,,space,0.351765,2,1,0.68661,0,9,9,8,1,Practice arrays/exp1a_trial_16_colour3_distractors31_r.png,r,2,007,001,2021-04-14_19h46.58.408,searchDisc4,2020.2.10,Win32,60,,,,,,,,,,,,,,,,,,
,,,,,,,,,,,,,,,,space,0.378355,2,1,0.711175,0,10,10,2,1,Practice arrays/exp1a_trial_5_colour1_distractors43_r.png,r,2,007,001,2021-04-14_19h46.58.408,searchDisc4,2020.2.10,Win32,60,,,,,,,,,,,,,,,,,,
,,,,,,,,,,,,,,,,space,0.454425,1,1,0.62138,0,11,11,16,1,Practice arrays/exp1a_trial_33_colour3_distractors19_l.png,l,1,007,001,2021-04-14_19h46.58.408,searchDisc4,2020.2.10,Win32,60,,,,,,,,,,,,,,,,,,
,,,,,,,,,,,,,,,,space,0.38945,2,1,0.61699,0,12,12,7,1,Practice arrays/exp1a_trial_13_colour3_distractors4_r.png,r,2,007,001,2021-04-14_19h46.58.408,searchDisc4,2020.2.10,Win32,60,,,,,,,,,,,,,,,,,,
,,,,,,,,,,,,,,,,space,0.344515,1,1,0.582435,0,13,13,15,1,Practice arrays/exp1a_trial_32_colour3_distractors9_l.png,l,1,007,001,2021-04-14_19h46.58.408,searchDisc4,2020.2.10,Win32,60,,,,,,,,,,,,,,,,,,
,,,,,,,,,,,,,,,,space,0.38933,2,1,0.630795,0,14,14,4,1,Practice arrays/exp1a_trial_8_colour2_distractors9_r.png,r,2,007,001,2021-04-14_19h46.58.408,searchDisc4,2020.2.10,Win32,60,,,,,,,,,,,,,,,,,,
,,,,,,,,,,,,,,,,space,0.34049,2,1,0.633075,0,15,15,6,1,Practice arrays/exp1a_trial_12_colour3_distractors1_r.png,r,2,007,001,2021-04-14_19h46.58.408,searchDisc4,2020.2.10,Win32,60,,,,,,,,,,,,,,,,,,
,,,,,,,,,,,,,,,,space,0.46684,1,1,0.84301,0,16,16,11,1,Practice arrays/exp1a_trial_21_colour1_distractors19_l.png,l,1,007,001,2021-04-14_19h46.58.408,searchDisc4,2020.2.10,Win32,60,,,,,,,,,,,,,,,,,,
,,,,,,,,,,,,,,,,space,0.632335,1,1,0.873735,0,17,17,9,1,Practice arrays/exp1a_trial_19_colour1_distractors4_l.png,l,1,007,001,2021-04-14_19h46.58.408,searchDisc4,2020.2.10,Win32,60,,,,,,,,,,,,,,,,,,
,,,,,,,,,,,,,,,,space,0.406275,1,1,0.66913,0,18,18,14,1,Practice arrays/exp1a_trial_29_colour2_distractors43_l.png,l,1,007,001,2021-04-14_19h46.58.408,searchDisc4,2020.2.10,Win32,60,,,,,,,,,,,,,,,,,,
,,,,,,,,,,,,,,,,space,0.43858,2,1,0.547995,0,19,19,3,1,Practice arrays/exp1a_trial_7_colour2_distractors4_r.png,r,2,007,001,2021-04-14_19h46.58.408,searchDisc4,2020.2.10,Win32,60,,,,,,,,,,,,,,,,,,
,,,,,,,,,,,,,,,,,,,,,,,,,,images/exp1a_trial_44_colour2_distractors1_r.png,r,2,007,001,2021-04-14_19h46.58.408,searchDisc4,2020.2.10,Win32,60,space,4.11073,space,0.52343,2,1,0.78602,,0,0,0,44,1,1a,44,2,1,
,,,,,,,,,,,,,,,,,,,,,,,,,,images/exp2a_trial_72_colour3_distractors31_l.png,l,1,007,001,2021-04-14_19h46.58.408,searchDisc4,2020.2.10,Win32,60,,,space,1.27996,1,1,0.971055,,0,1,1,300,1,2a,72,3,31,
,,,,,,,,,,,,,,,,,,,,,,,,,,images/exp1a_trial_39_colour1_distractors4_r.png,r,2,007,001,2021-04-14_19h46.58.408,searchDisc4,2020.2.10,Win32,60,,,space,0.61472,2,1,0.60952,,0,2,2,39,1,1a,39,1,4,
,,,,,,,,,,,,,,,,,,,,,,,,,,images/exp1b_trial_111_colour3_distractors43_l.png,l,1,007,001,2021-04-14_19h46.58.408,searchDisc4,2020.2.10,Win32,60,,,space,0.49268,,0,,,0,3,3,225,1,1b,111,3,43,
,,,,,,,,,,,,,,,,,,,,,,,,,,images/exp1b_trial_28_colour2_distractors31_l.png,l,1,007,001,2021-04-14_19h46.58.408,searchDisc4,2020.2.10,Win32,60,,,space,0.67655,1,1,0.96886,,0,4,4,142,1,1b,28,2,31,
,,,,,,,,,,,,,,,,,,,,,,,,,,images/exp1b_trial_46_colour2_distractors9_r.png,r,2,007,001,2021-04-14_19h46.58.408,searchDisc4,2020.2.10,Win32,60,,,space,0.64993,2,1,0.91128,,0,5,5,160,1,1b,46,2,9,
,,,,,,,,,,,,,,,,,,,,,,,,,,images/exp2a_trial_79_colour1_distractors19_r.png,r,2,007,001,2021-04-14_19h46.58.408,searchDisc4,2020.2.10,Win32,60,,,space,0.403015,2,1,0.92327,,0,6,6,307,1,2a,79,1,19,
,,,,,,,,,,,,,,,,,,,,,,,,,,images/exp2c_trial_16_colour3_distractors31_r.png,r,2,007,001,2021-04-14_19h46.58.408,searchDisc4,2020.2.10,Win32,60,,,space,0.44155,2,1,0.673565,,0,7,7,472,1,2c,16,3,31,
,,,,,,,,,,,,,,,,,,,,,,,,,,images/exp1b_trial_102_colour2_distractors9_l.png,l,1,007,001,2021-04-14_19h46.58.408,searchDisc4,2020.2.10,Win32,60,,,space,0.37056,1,1,0.665385,,0,8,8,216,1,1b,102,2,9,
,,,,,,,,,,,,,,,,,,,,,,,,,,images/exp2b_trial_12_colour3_distractors1_r.png,r,2,007,001,2021-04-14_19h46.58.408,searchDisc4,2020.2.10,Win32,60,,,space,0.340125,2,1,0.90437,,0,9,9,354,1,2b,12,3,1,
,,,,,,,,,,,,,,,,,,,,,,,,,,images/exp2a_trial_76_colour1_distractors1_r.png,r,2,007,001,2021-04-14_19h46.58.408,searchDisc4,2020.2.10,Win32,60,,,space,0.353055,2,1,0.880195,,0,10,10,304,1,2a,76,1,1,
,,,,,,,,,,,,,,,,,,,,,,,,,,images/exp2c_trial_7_colour2_distractors4_r.png,r,2,007,001,2021-04-14_19h46.58.408,searchDisc4,2020.2.10,Win32,60,,,space,0.341855,2,1,0.64961,,0,11,11,463,1,2c,7,2,4,
,,,,,,,,,,,,,,,,,,,,,,,,,,images/exp1b_trial_13_colour3_distractors4_r.png,r,2,007,001,2021-04-14_19h46.58.408,searchDisc4,2020.2.10,Win32,60,,,space,0.27862,2,1,0.794255,,0,12,12,127,1,1b,13,3,4,
,,,,,,,,,,,,,,,,,,,,,,,,,,images/exp2b_trial_75_colour0_distractors0_l.png,l,1,007,001,2021-04-14_19h46.58.408,searchDisc4,2020.2.10,Win32,60,,,space,0.24847,1,1,0.60479,,0,13,13,417,1,2b,75,0,0,
,,,,,,,,,,,,,,,,,,,,,,,,,,images/exp2b_trial_49_colour2_distractors43_r.png,r,2,007,001,2021-04-14_19h46.58.408,searchDisc4,2020.2.10,Win32,60,,,space,0.29652,2,1,1.0031,,0,14,14,391,1,2b,49,2,43,
,,,,,,,,,,,,,,,,,,,,,,,,,,images/exp2c_trial_39_colour1_distractors4_r.png,r,2,007,001,2021-04-14_19h46.58.408,searchDisc4,2020.2.10,Win32,60,,,space,0.29179,2,1,0.585055,,0,15,15,495,1,2c,39,1,4,
,,,,,,,,,,,,,,,,,,,,,,,,,,images/exp2b_trial_81_colour1_distractors43_r.png,r,2,007,001,2021-04-14_19h46.58.408,searchDisc4,2020.2.10,Win32,60,,,space,0.29002,2,1,0.55798,,0,16,16,423,1,2b,81,1,43,
,,,,,,,,,,,,,,,,,,,,,,,,,,images/exp2c_trial_48_colour2_distractors31_r.png,r,2,007,001,2021-04-14_19h46.58.408,searchDisc4,2020.2.10,Win32,60,,,space,0.240525,2,1,0.837455,,0,17,17,504,1,2c,48,2,31,
,,,,,,,,,,,,,,,,,,,,,,,,,,images/exp2b_trial_104_colour2_distractors31_l.png,l,1,007,001,2021-04-14_19h46.58.408,searchDisc4,2020.2.10,Win32,60,,,space,0.24843,1,1,0.707905,,0,18,18,446,1,2b,104,2,31,
,,,,,,,,,,,,,,,,,,,,,,,,,,images/exp1a_trial_99_colour1_distractors43_l.png,l,1,007,001,2021-04-14_19h46.58.408,searchDisc4,2020.2.10,Win32,60,,,space,0.22638,1,1,0.629745,,0,19,19,99,1,1a,99,1,43,
,,,,,,,,,,,,,,,,,,,,,,,,,,images/exp1a_trial_9_colour2_distractors19_r.png,r,2,007,001,2021-04-14_19h46.58.408,searchDisc4,2020.2.10,Win32,60,,,space,0.42499,2,1,0.870965,,0,20,20,9,1,1a,9,2,19,
,,,,,,,,,,,,,,,,,,,,,,,,,,images/exp1a_trial_53_colour3_distractors19_r.png,r,2,007,001,2021-04-14_19h46.58.408,searchDisc4,2020.2.10,Win32,60,,,space,0.38187,2,1,0.67666,,0,21,21,53,1,1a,53,3,19,
,,,,,,,,,,,,,,,,,,,,,,,,,,images/exp1b_trial_35_colour3_distractors43_l.png,l,1,007,001,2021-04-14_19h46.58.408,searchDisc4,2020.2.10,Win32,60,,,space,0.253495,1,1,1.42536,,0,22,22,149,1,1b,35,3,43,
,,,,,,,,,,,,,,,,,,,,,,,,,,images/exp2a_trial_11_colour2_distractors43_r.png,r,2,007,001,2021-04-14_19h46.58.408,searchDisc4,2020.2.10,Win32,60,,,space,0.28043,2,1,0.64506,,0,23,23,239,1,2a,11,2,43,
,,,,,,,,,,,,,,,,,,,,,,,,,,images/exp2b_trial_19_colour1_distractors4_l.png,l,1,007,001,2021-04-14_19h46.58.408,searchDisc4,2020.2.10,Win32,60,,,space,0.260185,1,1,0.582875,,0,24,24,361,1,2b,19,1,4,
,,,,,,,,,,,,,,,,,,,,,,,,,,images/exp1a_trial_4_colour1_distractors31_r.png,r,2,007,001,2021-04-14_19h46.58.408,searchDisc4,2020.2.10,Win32,60,,,space,0.2362,2,1,0.63466,,0,25,25,4,1,1a,4,1,31,
,,,,,,,,,,,,,,,,,,,,,,,,,,images/exp2a_trial_69_colour3_distractors4_l.png,l,1,007,001,2021-04-14_19h46.58.408,searchDisc4,2020.2.10,Win32,60,,,space,0.251235,1,1,0.585615,,0,26,26,297,1,2a,69,3,4,
,,,,,,,,,,,,,,,,,,,,,,,,,,images/exp2a_trial_67_colour2_distractors43_l.png,l,1,007,001,2021-04-14_19h46.58.408,searchDisc4,2020.2.10,Win32,60,,,space,0.270905,1,1,0.71872,,0,27,27,295,1,2a,67,2,43,
,,,,,,,,,,,,,,,,,,,,,,,,,,images/exp2c_trial_21_colour1_distractors19_l.png,l,1,007,001,2021-04-14_19h46.58.408,searchDisc4,2020.2.10,Win32,60,,,space,0.276955,1,1,0.598555,,0,28,28,477,1,2c,21,1,19,
,,,,,,,,,,,,,,,,,,,,,,,,,,images/exp2a_trial_38_colour1_distractors1_r.png,r,2,007,001,2021-04-14_19h46.58.408,searchDisc4,2020.2.10,Win32,60,,,space,0.258,2,1,0.54413,,0,29,29,266,1,2a,38,1,1,
,,,,,,,,,,,,,,,,,,,,,,,,,,images/exp1b_trial_21_colour1_distractors19_l.png,l,1,007,001,2021-04-14_19h46.58.408,searchDisc4,2020.2.10,Win32,60,,,space,0.25531,1,1,0.792545,,0,30,30,135,1,1b,21,1,19,
,,,,,,,,,,,,,,,,,,,,,,,,,,images/exp2c_trial_103_colour2_distractors19_l.png,l,1,007,001,2021-04-14_19h46.58.408,searchDisc4,2020.2.10,Win32,60,,,space,0.22665,1,1,0.715325,,0,31,31,559,1,2c,103,2,19,
,,,,,,,,,,,,,,,,,,,,,,,,,,images/exp2c_trial_69_colour3_distractors4_l.png,l,1,007,001,2021-04-14_19h46.58.408,searchDisc4,2020.2.10,Win32,60,,,space,0.256165,1,1,0.642445,,0,32,32,525,1,2c,69,3,4,
,,,,,,,,,,,,,,,,,,,,,,,,,,images/exp2a_trial_43_colour1_distractors43_r.png,r,2,007,001,2021-04-14_19h46.58.408,searchDisc4,2020.2.10,Win32,60,,,space,0.229785,2,1,0.52681,,0,33,33,271,1,2a,43,1,43,
,,,,,,,,,,,,,,,,,,,,,,,,,,images/exp2a_trial_26_colour2_distractors9_l.png,l,1,007,001,2021-04-14_19h46.58.408,searchDisc4,2020.2.10,Win32,60,,,space,0.23468,1,1,0.59737,,0,34,34,254,1,2a,26,2,9,
,,,,,,,,,,,,,,,,,,,,,,,,,,images/exp1b_trial_92_colour3_distractors31_r.png,r,2,007,001,2021-04-14_19h46.58.408,searchDisc4,2020.2.10,Win32,60,,,space,0.22294,2,1,1.597965,,0,35,35,206,1,1b,92,3,31,
,,,,,,,,,,,,,,,,,,,,,,,,,,images/exp1a_trial_66_colour2_distractors31_l.png,l,1,007,001,2021-04-14_19h46.58.408,searchDisc4,2020.2.10,Win32,60,,,space,0.30709,1,1,0.712465,,0,36,36,66,1,1a,66,2,31,
,,,,,,,,,,,,,,,,,,,,,,,,,,images/exp2c_trial_45_colour2_distractors4_r.png,r,2,007,001,2021-04-14_19h46.58.408,searchDisc4,2020.2.10,Win32,60,,,space,0.266855,2,1,0.653075,,0,37,37,501,1,2c,45,2,4,
,,,,,,,,,,,,,,,,,,,,,,,,,,images/exp2c_trial_75_colour0_distractors0_l.png,l,1,007,001,2021-04-14_19h46.58.408,searchDisc4,2020.2.10,Win32,60,,,space,0.271065,1,1,0.779695,,0,38,38,531,1,2c,75,0,0,
,,,,,,,,,,,,,,,,,,,,,,,,,,images/exp2b_trial_34_colour3_distractors31_l.png,l,1,007,001,2021-04-14_19h46.58.408,searchDisc4,2020.2.10,Win32,60,,,space,0.27077,1,1,0.738815,,0,39,39,376,1,2b,34,3,31,
,,,,,,,,,,,,,,,,,,,,,,,,,,images/exp1b_trial_63_colour2_distractors4_l.png,l,1,007,001,2021-04-14_19h46.58.408,searchDisc4,2020.2.10,Win32,60,,,space,0.30623,1,1,0.83967,,0,40,40,177,1,1b,63,2,4,
,,,,,,,,,,,,,,,,,,,,,,,,,,images/exp1a_trial_31_colour3_distractors4_l.png,l,1,007,001,2021-04-14_19h46.58.408,searchDisc4,2020.2.10,Win32,60,,,space,0.403305,1,1,0.79277,,0,41,41,31,1,1a,31,3,4,
,,,,,,,,,,,,,,,,,,,,,,,,,,images/exp2a_trial_86_colour2_distractors31_r.png,r,2,007,001,2021-04-14_19h46.58.408,searchDisc4,2020.2.10,Win32,60,,,space,0.35469,2,1,0.57264,,0,42,42,314,1,2a,86,2,31,
,,,,,,,,,,,,,,,,,,,,,,,,,,images/exp1b_trial_20_colour1_distractors9_l.png,l,1,007,001,2021-04-14_19h46.58.408,searchDisc4,2020.2.10,Win32,60,,,space,0.33231,1,1,0.61098,,0,43,43,134,1,1b,20,1,9,
,,,,,,,,,,,,,,,,,,,,,,,,,,images/exp2a_trial_68_colour3_distractors1_l.png,l,1,007,001,2021-04-14_19h46.58.408,searchDisc4,2020.2.10,Win32,60,,,space,0.282155,1,1,0.64898,,0,44,44,296,1,2a,68,3,1,
,,,,,,,,,,,,,,,,,,,,,,,,,,images/exp2b_trial_31_colour3_distractors4_l.png,l,1,007,001,2021-04-14_19h46.58.408,searchDisc4,2020.2.10,Win32,60,,,space,0.36546,1,1,0.826425,,0,45,45,373,1,2b,31,3,4,
,,,,,,,,,,,,,,,,,,,,,,,,,,images/exp2a_trial_1_colour1_distractors4_r.png,r,2,007,001,2021-04-14_19h46.58.408,searchDisc4,2020.2.10,Win32,60,,,space,0.24634,2,1,0.52019,,0,46,46,229,1,2a,1,1,4,
,,,,,,,,,,,,,,,,,,,,,,,,,,images/exp2a_trial_22_colour1_distractors31_l.png,l,1,007,001,2021-04-14_19h46.58.408,searchDisc4,2020.2.10,Win32,60,,,space,0.26424,1,1,0.61006,,0,47,47,250,1,2a,22,1,31,
,,,,,,,,,,,,,,,,,,,,,,,,,,images/exp1a_trial_98_colour1_distractors31_l.png,l,1,007,001,2021-04-14_19h46.58.408,searchDisc4,2020.2.10,Win32,60,,,space,0.28004,1,1,0.694595,,0,48,48,98,1,1a,98,1,31,
,,,,,,,,,,,,,,,,,,,,,,,,,,images/exp2b_trial_39_colour1_distractors4_r.png,r,2,007,001,2021-04-14_19h46.58.408,searchDisc4,2020.2.10,Win32,60,,,space,0.37442,2,1,0.57088,,0,49,49,381,1,2b,39,1,4,
,,,,,,,,,,,,,,,,,,,,,,,,,,images/exp1a_trial_93_colour3_distractors43_r.png,r,2,007,001,2021-04-14_19h46.58.408,searchDisc4,2020.2.10,Win32,60,,,space,0.302185,2,1,0.62282,,0,50,50,93,1,1a,93,3,43,
,,,,,,,,,,,,,,,,,,,,,,,,,,images/exp2b_trial_24_colour2_distractors1_l.png,l,1,007,001,2021-04-14_19h46.58.408,searchDisc4,2020.2.10,Win32,60,,,space,0.35667,1,1,0.787705,,0,51,51,366,1,2b,24,2,1,
,,,,,,,,,,,,,,,,,,,,,,,,,,images/exp2a_trial_84_colour2_distractors9_r.png,r,2,007,001,2021-04-14_19h46.58.408,searchDisc4,2020.2.10,Win32,60,,,space,0.467345,2,1,0.552375,,0,52,52,312,1,2a,84,2,9,
,,,,,,,,,,,,,,,,,,,,,,,,,,images/exp1b_trial_66_colour2_distractors31_l.png,l,1,007,001,2021-04-14_19h46.58.408,searchDisc4,2020.2.10,Win32,60,,,space,0.360835,1,1,0.833385,,0,53,53,180,1,1b,66,2,31,
,,,,,,,,,,,,,,,,,,,,,,,,,,images/exp1b_trial_73_colour3_distractors43_l.png,l,1,007,001,2021-04-14_19h46.58.408,searchDisc4,2020.2.10,Win32,60,,,space,0.55223,1,1,3.6254,,0,54,54,187,1,1b,73,3,43,
,,,,,,,,,,,,,,,,,,,,,,,,,,images/exp1a_trial_38_colour1_distractors1_r.png,r,2,007,001,2021-04-14_19h46.58.408,searchDisc4,2020.2.10,Win32,60,,,space,0.24203,2,1,1.193135,,0,55,55,38,1,1a,38,1,1,
,,,,,,,,,,,,,,,,,,,,,,,,,,images/exp1a_trial_56_colour1_distractors1_l.png,l,1,007,001,2021-04-14_19h46.58.408,searchDisc4,2020.2.10,Win32,60,,,space,0.4057,1,1,0.813,,0,56,56,56,1,1a,56,1,1,
,,,,,,,,,,,,,,,,,,,,,,,,,,images/exp1b_trial_59_colour1_distractors19_l.png,l,1,007,001,2021-04-14_19h46.58.408,searchDisc4,2020.2.10,Win32,60,,,space,0.310855,1,1,0.85704,,0,57,57,173,1,1b,59,1,19,
,,,,,,,,,,,,,,,,,,,,,,,,,,images/exp2a_trial_50_colour3_distractors1_r.png,r,2,007,001,2021-04-14_19h46.58.408,searchDisc4,2020.2.10,Win32,60,,,space,0.28114,2,1,0.49828,,0,58,58,278,1,2a,50,3,1,
,,,,,,,,,,,,,,,,,,,,,,,,,,images/exp1a_trial_96_colour1_distractors9_l.png,l,1,007,001,2021-04-14_19h46.58.408,searchDisc4,2020.2.10,Win32,60,,,space,0.230805,1,1,0.61193,space,0,59,59,96,1,1a,96,1,9,6.01959
,,,,,,,,,,,,,,,,,,,,,,,,,,images/exp1b_trial_98_colour1_distractors31_l.png,l,1,007,001,2021-04-14_19h46.58.408,searchDisc4,2020.2.10,Win32,60,,,space,0.774325,1,1,1.312235,,0,60,60,212,1,1b,98,1,31,
,,,,,,,,,,,,,,,,,,,,,,,,,,images/exp1b_trial_52_colour3_distractors9_r.png,r,2,007,001,2021-04-14_19h46.58.408,searchDisc4,2020.2.10,Win32,60,,,space,0.23068,2,1,1.15398,,0,61,61,166,1,1b,52,3,9,
,,,,,,,,,,,,,,,,,,,,,,,,,,images/exp2a_trial_52_colour3_distractors9_r.png,r,2,007,001,2021-04-14_19h46.58.408,searchDisc4,2020.2.10,Win32,60,,,space,0.218655,2,1,0.70199,,0,62,62,280,1,2a,52,3,9,
,,,,,,,,,,,,,,,,,,,,,,,,,,images/exp2b_trial_82_colour2_distractors1_r.png,r,2,007,001,2021-04-14_19h46.58.408,searchDisc4,2020.2.10,Win32,60,,,space,0.190835,2,1,0.50711,,0,63,63,424,1,2b,82,2,1,
,,,,,,,,,,,,,,,,,,,,,,,,,,images/exp1a_trial_11_colour2_distractors43_r.png,r,2,007,001,2021-04-14_19h46.58.408,searchDisc4,2020.2.10,Win32,60,,,space,0.273775,2,1,0.669765,,0,64,64,11,1,1a,11,2,43,
,,,,,,,,,,,,,,,,,,,,,,,,,,images/exp2c_trial_34_colour3_distractors31_l.png,l,1,007,001,2021-04-14_19h46.58.408,searchDisc4,2020.2.10,Win32,60,,,space,0.22829,1,1,0.50808,,0,65,65,490,1,2c,34,3,31,
,,,,,,,,,,,,,,,,,,,,,,,,,,images/exp1a_trial_112_colour0_distractors0_r.png,r,2,007,001,2021-04-14_19h46.58.408,searchDisc4,2020.2.10,Win32,60,,,space,0.23896,2,1,0.56803,,0,66,66,112,1,1a,112,0,0,
,,,,,,,,,,,,,,,,,,,,,,,,,,images/exp1b_trial_30_colour3_distractors1_l.png,l,1,007,001,2021-04-14_19h46.58.408,searchDisc4,2020.2.10,Win32,60,,,space,0.17529,1,1,0.60069,,0,67,67,144,1,1b,30,3,1,
,,,,,,,,,,,,,,,,,,,,,,,,,,images/exp2c_trial_57_colour1_distractors4_l.png,l,1,007,001,2021-04-14_19h46.58.408,searchDisc4,2020.2.10,Win32,60,,,space,0.17231,1,1,0.653865,,0,68,68,513,1,2c,57,1,4,
,,,,,,,,,,,,,,,,,,,,,,,,,,images/exp2a_trial_34_colour3_distractors31_l.png,l,1,007,001,2021-04-14_19h46.58.408,searchDisc4,2020.2.10,Win32,60,,,space,0.12022,1,1,0.80177,,0,69,69,262,1,2a,34,3,31,
,,,,,,,,,,,,,,,,,,,,,,,,,,images/exp2a_trial_109_colour3_distractors19_l.png,l,1,007,001,2021-04-14_19h46.58.408,searchDisc4,2020.2.10,Win32,60,,,space,0.14845,1,1,0.561085,,0,70,70,337,1,2a,109,3,19,
,,,,,,,,,,,,,,,,,,,,,,,,,,images/exp2b_trial_27_colour2_distractors19_l.png,l,1,007,001,2021-04-14_19h46.58.408,searchDisc4,2020.2.10,Win32,60,,,space,0.227855,1,1,0.61848,,0,71,71,369,1,2b,27,2,19,
,,,,,,,,,,,,,,,,,,,,,,,,,,images/exp2a_trial_98_colour1_distractors31_l.png,l,1,007,001,2021-04-14_19h46.58.408,searchDisc4,2020.2.10,Win32,60,,,space,0.251055,1,1,0.6046,,0,72,72,326,1,2a,98,1,31,
,,,,,,,,,,,,,,,,,,,,,,,,,,images/exp2b_trial_108_colour3_distractors9_l.png,l,1,007,001,2021-04-14_19h46.58.408,searchDisc4,2020.2.10,Win32,60,,,space,0.26483,1,1,0.697725,,0,73,73,450,1,2b,108,3,9,
,,,,,,,,,,,,,,,,,,,,,,,,,,images/exp1b_trial_56_colour1_distractors1_l.png,l,1,007,001,2021-04-14_19h46.58.408,searchDisc4,2020.2.10,Win32,60,,,space,0.21142,1,1,0.5268,,0,74,74,170,1,1b,56,1,1,
,,,,,,,,,,,,,,,,,,,,,,,,,,images/exp1a_trial_2_colour1_distractors9_r.png,r,2,007,001,2021-04-14_19h46.58.408,searchDisc4,2020.2.10,Win32,60,,,space,0.238165,2,1,0.642285,,0,75,75,2,1,1a,2,1,9,
,,,,,,,,,,,,,,,,,,,,,,,,,,images/exp2a_trial_20_colour1_distractors9_l.png,l,1,007,001,2021-04-14_19h46.58.408,searchDisc4,2020.2.10,Win32,60,,,space,0.211435,1,1,0.669805,,0,76,76,248,1,2a,20,1,9,
,,,,,,,,,,,,,,,,,,,,,,,,,,images/exp2b_trial_102_colour2_distractors9_l.png,l,1,007,001,2021-04-14_19h46.58.408,searchDisc4,2020.2.10,Win32,60,,,space,0.24133,1,1,0.65249,,0,77,77,444,1,2b,102,2,9,
,,,,,,,,,,,,,,,,,,,,,,,,,,images/exp1a_trial_33_colour3_distractors19_l.png,l,1,007,001,2021-04-14_19h46.58.408,searchDisc4,2020.2.10,Win32,60,,,space,0.227525,1,1,0.524225,,0,78,78,33,1,1a,33,3,19,
,,,,,,,,,,,,,,,,,,,,,,,,,,images/exp2a_trial_41_colour1_distractors19_r.png,r,2,007,001,2021-04-14_19h46.58.408,searchDisc4,2020.2.10,Win32,60,,,space,0.24427,2,1,0.61568,,0,79,79,269,1,2a,41,1,19,
,,,,,,,,,,,,,,,,,,,,,,,,,,images/exp2a_trial_101_colour2_distractors4_l.png,l,1,007,001,2021-04-14_19h46.58.408,searchDisc4,2020.2.10,Win32,60,,,space,0.245015,1,1,0.586245,,0,80,80,329,1,2a,101,2,4,
,,,,,,,,,,,,,,,,,,,,,,,,,,images/exp2b_trial_43_colour1_distractors43_r.png,r,2,007,001,2021-04-14_19h46.58.408,searchDisc4,2020.2.10,Win32,60,,,space,0.213655,2,1,0.652685,,0,81,81,385,1,2b,43,1,43,
,,,,,,,,,,,,,,,,,,,,,,,,,,images/exp2b_trial_30_colour3_distractors1_l.png,l,1,007,001,2021-04-14_19h46.58.408,searchDisc4,2020.2.10,Win32,60,,,space,0.266985,1,1,0.697255,,0,82,82,372,1,2b,30,3,1,
,,,,,,,,,,,,,,,,,,,,,,,,,,images/exp2a_trial_12_colour3_distractors1_r.png,r,2,007,001,2021-04-14_19h46.58.408,searchDisc4,2020.2.10,Win32,60,,,space,0.23517,2,1,0.49269,,0,83,83,240,1,2a,12,3,1,
,,,,,,,,,,,,,,,,,,,,,,,,,,images/exp2c_trial_89_colour3_distractors4_r.png,r,2,007,001,2021-04-14_19h46.58.408,searchDisc4,2020.2.10,Win32,60,,,space,0.20703,2,1,0.965595,,0,84,84,545,1,2c,89,3,4,
,,,,,,,,,,,,,,,,,,,,,,,,,,images/exp2c_trial_1_colour1_distractors4_r.png,r,2,007,001,2021-04-14_19h46.58.408,searchDisc4,2020.2.10,Win32,60,,,space,0.47011,2,1,0.68648,,0,85,85,457,1,2c,1,1,4,
,,,,,,,,,,,,,,,,,,,,,,,,,,images/exp2a_trial_54_colour3_distractors31_r.png,r,2,007,001,2021-04-14_19h46.58.408,searchDisc4,2020.2.10,Win32,60,,,space,0.221785,2,1,0.538405,,0,86,86,282,1,2a,54,3,31,
,,,,,,,,,,,,,,,,,,,,,,,,,,images/exp1b_trial_34_colour3_distractors31_l.png,l,1,007,001,2021-04-14_19h46.58.408,searchDisc4,2020.2.10,Win32,60,,,space,0.1654,1,1,0.620825,,0,87,87,148,1,1b,34,3,31,
,,,,,,,,,,,,,,,,,,,,,,,,,,images/exp2a_trial_14_colour3_distractors9_r.png,r,2,007,001,2021-04-14_19h46.58.408,searchDisc4,2020.2.10,Win32,60,,,space,0.097195,2,1,0.63185,,0,88,88,242,1,2a,14,3,9,
,,,,,,,,,,,,,,,,,,,,,,,,,,images/exp2a_trial_10_colour2_distractors31_r.png,r,2,007,001,2021-04-14_19h46.58.408,searchDisc4,2020.2.10,Win32,60,,,space,0.09072,2,1,0.68076,,0,89,89,238,1,2a,10,2,31,
,,,,,,,,,,,,,,,,,,,,,,,,,,images/exp1b_trial_69_colour3_distractors4_l.png,l,1,007,001,2021-04-14_19h46.58.408,searchDisc4,2020.2.10,Win32,60,,,space,0.094055,1,1,0.914585,,0,90,90,183,1,1b,69,3,4,
,,,,,,,,,,,,,,,,,,,,,,,,,,images/exp2a_trial_25_colour2_distractors4_l.png,l,1,007,001,2021-04-14_19h46.58.408,searchDisc4,2020.2.10,Win32,60,,,space,0.07142,1,1,0.77758,,0,91,91,253,1,2a,25,2,4,
,,,,,,,,,,,,,,,,,,,,,,,,,,images/exp2b_trial_63_colour2_distractors4_l.png,l,1,007,001,2021-04-14_19h46.58.408,searchDisc4,2020.2.10,Win32,60,,,space,0.08561,1,1,0.610285,,0,92,92,405,1,2b,63,2,4,
,,,,,,,,,,,,,,,,,,,,,,,,,,images/exp2c_trial_29_colour2_distractors43_l.png,l,1,007,001,2021-04-14_19h46.58.408,searchDisc4,2020.2.10,Win32,60,,,space,0.089345,1,1,0.7395,,0,93,93,485,1,2c,29,2,43,
,,,,,,,,,,,,,,,,,,,,,,,,,,images/exp1b_trial_41_colour1_distractors19_r.png,r,2,007,001,2021-04-14_19h46.58.408,searchDisc4,2020.2.10,Win32,60,,,space,0.09577,2,1,0.78473,,0,94,94,155,1,1b,41,1,19,
,,,,,,,,,,,,,,,,,,,,,,,,,,images/exp2a_trial_37_colour0_distractors0_l.png,l,1,007,001,2021-04-14_19h46.58.408,searchDisc4,2020.2.10,Win32,60,,,space,0.084845,1,1,0.634345,,0,95,95,265,1,2a,37,0,0,
,,,,,,,,,,,,,,,,,,,,,,,,,,images/exp2a_trial_51_colour3_distractors4_r.png,r,2,007,001,2021-04-14_19h46.58.408,searchDisc4,2020.2.10,Win32,60,,,space,0.093475,2,1,0.644035,,0,96,96,279,1,2a,51,3,4,
,,,,,,,,,,,,,,,,,,,,,,,,,,images/exp2b_trial_107_colour3_distractors4_l.png,l,1,007,001,2021-04-14_19h46.58.408,searchDisc4,2020.2.10,Win32,60,,,space,0.09047,1,1,0.77753,,0,97,97,449,1,2b,107,3,4,
,,,,,,,,,,,,,,,,,,,,,,,,,,images/exp2b_trial_20_colour1_distractors9_l.png,l,1,007,001,2021-04-14_19h46.58.408,searchDisc4,2020.2.10,Win32,60,,,space,0.08372,1,1,0.75101,,0,98,98,362,1,2b,20,1,9,
,,,,,,,,,,,,,,,,,,,,,,,,,,images/exp1a_trial_102_colour2_distractors9_l.png,l,1,007,001,2021-04-14_19h46.58.408,searchDisc4,2020.2.10,Win32,60,,,space,0.09803,2,0,1.143645,,0,99,99,102,1,1a,102,2,9,
,,,,,,,,,,,,,,,,,,,,,,,,,,images/exp2c_trial_20_colour1_distractors9_l.png,l,1,007,001,2021-04-14_19h46.58.408,searchDisc4,2020.2.10,Win32,60,,,space,0.728155,1,1,0.59863,,0,100,100,476,1,2c,20,1,9,
,,,,,,,,,,,,,,,,,,,,,,,,,,images/exp2a_trial_18_colour1_distractors1_l.png,l,1,007,001,2021-04-14_19h46.58.408,searchDisc4,2020.2.10,Win32,60,,,space,0.09986,1,1,0.64094,,0,101,101,246,1,2a,18,1,1,
,,,,,,,,,,,,,,,,,,,,,,,,,,images/exp1b_trial_19_colour1_distractors4_l.png,l,1,007,001,2021-04-14_19h46.58.408,searchDisc4,2020.2.10,Win32,60,,,space,0.113975,1,1,0.787055,,0,102,102,133,1,1b,19,1,4,
,,,,,,,,,,,,,,,,,,,,,,,,,,images/exp2a_trial_66_colour2_distractors31_l.png,l,1,007,001,2021-04-14_19h46.58.408,searchDisc4,2020.2.10,Win32,60,,,space,0.08628,1,1,0.77551,,0,103,103,294,1,2a,66,2,31,
,,,,,,,,,,,,,,,,,,,,,,,,,,images/exp2c_trial_77_colour1_distractors4_r.png,r,2,007,001,2021-04-14_19h46.58.408,searchDisc4,2020.2.10,Win32,60,,,space,0.0822,2,1,0.643895,,0,104,104,533,1,2c,77,1,4,
,,,,,,,,,,,,,,,,,,,,,,,,,,images/exp2b_trial_45_colour2_distractors4_r.png,r,2,007,001,2021-04-14_19h46.58.408,searchDisc4,2020.2.10,Win32,60,,,space,0.10359,2,1,0.61852,,0,105,105,387,1,2b,45,2,4,
,,,,,,,,,,,,,,,,,,,,,,,,,,images/exp2c_trial_106_colour3_distractors1_l.png,l,1,007,001,2021-04-14_19h46.58.408,searchDisc4,2020.2.10,Win32,60,,,space,0.097445,1,1,0.618415,,0,106,106,562,1,2c,106,3,1,
,,,,,,,,,,,,,,,,,,,,,,,,,,images/exp2a_trial_99_colour1_distractors43_l.png,l,1,007,001,2021-04-14_19h46.58.408,searchDisc4,2020.2.10,Win32,60,,,space,0.07045,1,1,0.807505,,0,107,107,327,1,2a,99,1,43,
,,,,,,,,,,,,,,,,,,,,,,,,,,images/exp2c_trial_28_colour2_distractors31_l.png,l,1,007,001,2021-04-14_19h46.58.408,searchDisc4,2020.2.10,Win32,60,,,space,0.06684,1,1,0.96027,,0,108,108,484,1,2c,28,2,31,
,,,,,,,,,,,,,,,,,,,,,,,,,,images/exp2b_trial_84_colour2_distractors9_r.png,r,2,007,001,2021-04-14_19h46.58.408,searchDisc4,2020.2.10,Win32,60,,,space,0.099845,2,1,0.627915,,0,109,109,426,1,2b,84,2,9,
,,,,,,,,,,,,,,,,,,,,,,,,,,images/exp2a_trial_13_colour3_distractors4_r.png,r,2,007,001,2021-04-14_19h46.58.408,searchDisc4,2020.2.10,Win32,60,,,space,0.107425,2,1,0.694255,,0,110,110,241,1,2a,13,3,4,
,,,,,,,,,,,,,,,,,,,,,,,,,,images/exp1a_trial_16_colour3_distractors31_r.png,r,2,007,001,2021-04-14_19h46.58.408,searchDisc4,2020.2.10,Win32,60,,,space,0.08446,2,1,0.603455,,0,111,111,16,1,1a,16,3,31,
,,,,,,,,,,,,,,,,,,,,,,,,,,images/exp2c_trial_74_colour0_distractors0_r.png,r,2,007,001,2021-04-14_19h46.58.408,searchDisc4,2020.2.10,Win32,60,,,space,0.092965,2,1,0.556685,,0,112,112,530,1,2c,74,0,0,
,,,,,,,,,,,,,,,,,,,,,,,,,,images/exp1b_trial_40_colour1_distractors9_r.png,r,2,007,001,2021-04-14_19h46.58.408,searchDisc4,2020.2.10,Win32,60,,,space,0.083145,2,1,0.790065,,0,113,113,154,1,1b,40,1,9,
,,,,,,,,,,,,,,,,,,,,,,,,,,images/exp2c_trial_78_colour1_distractors9_r.png,r,2,007,001,2021-04-14_19h46.58.408,searchDisc4,2020.2.10,Win32,60,,,space,0.08783,2,1,0.63013,,0,114,114,534,1,2c,78,1,9,
,,,,,,,,,,,,,,,,,,,,,,,,,,images/exp2a_trial_31_colour3_distractors4_l.png,l,1,007,001,2021-04-14_19h46.58.408,searchDisc4,2020.2.10,Win32,60,,,space,0.08562,1,1,0.648555,,0,115,115,259,1,2a,31,3,4,
,,,,,,,,,,,,,,,,,,,,,,,,,,images/exp1b_trial_96_colour1_distractors9_l.png,l,1,007,001,2021-04-14_19h46.58.408,searchDisc4,2020.2.10,Win32,60,,,space,0.07981,1,1,0.78046,,0,116,116,210,1,1b,96,1,9,
,,,,,,,,,,,,,,,,,,,,,,,,,,images/exp1a_trial_34_colour3_distractors31_l.png,l,1,007,001,2021-04-14_19h46.58.408,searchDisc4,2020.2.10,Win32,60,,,space,0.071145,1,1,0.832995,,0,117,117,34,1,1a,34,3,31,
,,,,,,,,,,,,,,,,,,,,,,,,,,images/exp1a_trial_92_colour3_distractors31_r.png,r,2,007,001,2021-04-14_19h46.58.408,searchDisc4,2020.2.10,Win32,60,,,space,0.07965,2,1,0.730005,,0,118,118,92,1,1a,92,3,31,
,,,,,,,,,,,,,,,,,,,,,,,,,,images/exp2b_trial_55_colour3_distractors43_r.png,r,2,007,001,2021-04-14_19h46.58.408,searchDisc4,2020.2.10,Win32,60,,,space,0.093855,2,1,1.119425,space,0,119,119,397,1,2b,55,3,43,0.081835
,,,,,,,,,,,,,,,,,,,,,,,,,,images/exp2a_trial_4_colour1_distractors31_r.png,r,2,007,001,2021-04-14_19h46.58.408,searchDisc4,2020.2.10,Win32,60,,,space,1.18077,2,1,0.64311,,0,120,120,232,1,2a,4,1,31,
,,,,,,,,,,,,,,,,,,,,,,,,,,images/exp2b_trial_35_colour3_distractors43_l.png,l,1,007,001,2021-04-14_19h46.58.408,searchDisc4,2020.2.10,Win32,60,,,space,0.11028,1,1,0.658915,,0,121,121,377,1,2b,35,3,43,
,,,,,,,,,,,,,,,,,,,,,,,,,,images/exp2c_trial_87_colour2_distractors43_r.png,r,2,007,001,2021-04-14_19h46.58.408,searchDisc4,2020.2.10,Win32,60,,,space,0.104645,2,1,0.609555,,0,122,122,543,1,2c,87,2,43,
,,,,,,,,,,,,,,,,,,,,,,,,,,images/exp2c_trial_110_colour3_distractors31_l.png,l,1,007,001,2021-04-14_19h46.58.408,searchDisc4,2020.2.10,Win32,60,,,space,0.08158,1,1,0.58029,,0,123,123,566,1,2c,110,3,31,
,,,,,,,,,,,,,,,,,,,,,,,,,,images/exp1a_trial_0_colour1_distractors1_r.png,r,2,007,001,2021-04-14_19h46.58.408,searchDisc4,2020.2.10,Win32,60,,,space,0.065695,2,1,0.55965,,0,124,124,0,1,1a,0,1,1,
,,,,,,,,,,,,,,,,,,,,,,,,,,images/exp1a_trial_40_colour1_distractors9_r.png,r,2,007,001,2021-04-14_19h46.58.408,searchDisc4,2020.2.10,Win32,60,,,space,0.08345,2,1,0.775855,,0,125,125,40,1,1a,40,1,9,
,,,,,,,,,,,,,,,,,,,,,,,,,,images/exp1a_trial_30_colour3_distractors1_l.png,l,1,007,001,2021-04-14_19h46.58.408,searchDisc4,2020.2.10,Win32,60,,,space,0.100325,1,1,0.56425,,0,126,126,30,1,1a,30,3,1,
,,,,,,,,,,,,,,,,,,,,,,,,,,images/exp1a_trial_86_colour2_distractors31_r.png,r,2,007,001,2021-04-14_19h46.58.408,searchDisc4,2020.2.10,Win32,60,,,space,0.060225,2,1,0.748185,,0,127,127,86,1,1a,86,2,31,
,,,,,,,,,,,,,,,,,,,,,,,,,,images/exp2c_trial_33_colour3_distractors19_l.png,l,1,007,001,2021-04-14_19h46.58.408,searchDisc4,2020.2.10,Win32,60,,,space,0.077715,1,1,0.75972,,0,128,128,489,1,2c,33,3,19,
,,,,,,,,,,,,,,,,,,,,,,,,,,images/exp1b_trial_99_colour1_distractors43_l.png,l,1,007,001,2021-04-14_19h46.58.408,searchDisc4,2020.2.10,Win32,60,,,space,0.08858,1,1,0.921205,,0,129,129,213,1,1b,99,1,43,
,,,,,,,,,,,,,,,,,,,,,,,,,,images/exp2a_trial_48_colour2_distractors31_r.png,r,2,007,001,2021-04-14_19h46.58.408,searchDisc4,2020.2.10,Win32,60,,,space,0.084065,2,1,0.573135,,0,130,130,276,1,2a,48,2,31,
,,,,,,,,,,,,,,,,,,,,,,,,,,images/exp2a_trial_94_colour1_distractors1_l.png,l,1,007,001,2021-04-14_19h46.58.408,searchDisc4,2020.2.10,Win32,60,,,space,0.083125,1,1,0.56898,,0,131,131,322,1,2a,94,1,1,
,,,,,,,,,,,,,,,,,,,,,,,,,,images/exp2a_trial_24_colour2_distractors1_l.png,l,1,007,001,2021-04-14_19h46.58.408,searchDisc4,2020.2.10,Win32,60,,,space,0.104975,1,1,0.6904,,0,132,132,252,1,2a,24,2,1,
,,,,,,,,,,,,,,,,,,,,,,,,,,images/exp1a_trial_59_colour1_distractors19_l.png,l,1,007,001,2021-04-14_19h46.58.408,searchDisc4,2020.2.10,Win32,60,,,space,0.08674,1,1,0.99911,,0,133,133,59,1,1a,59,1,19,
,,,,,,,,,,,,,,,,,,,,,,,,,,images/exp1b_trial_84_colour2_distractors9_r.png,r,2,007,001,2021-04-14_19h46.58.408,searchDisc4,2020.2.10,Win32,60,,,space,0.09833,2,1,1.21464,,0,134,134,198,1,1b,84,2,9,
,,,,,,,,,,,,,,,,,,,,,,,,,,images/exp2b_trial_100_colour2_distractors1_l.png,l,1,007,001,2021-04-14_19h46.58.408,searchDisc4,2020.2.10,Win32,60,,,space,0.03859,1,1,0.82097,,0,135,135,442,1,2b,100,2,1,
,,,,,,,,,,,,,,,,,,,,,,,,,,images/exp2b_trial_40_colour1_distractors9_r.png,r,2,007,001,2021-04-14_19h46.58.408,searchDisc4,2020.2.10,Win32,60,,,space,0.077635,2,1,1.30012,,0,136,136,382,1,2b,40,1,9,
,,,,,,,,,,,,,,,,,,,,,,,,,,images/exp1a_trial_35_colour3_distractors43_l.png,l,1,007,001,2021-04-14_19h46.58.408,searchDisc4,2020.2.10,Win32,60,,,space,0.700615,1,1,0.733525,,0,137,137,35,1,1a,35,3,43,
,,,,,,,,,,,,,,,,,,,,,,,,,,images/exp2c_trial_95_colour1_distractors4_l.png,l,1,007,001,2021-04-14_19h46.58.408,searchDisc4,2020.2.10,Win32,60,,,space,0.731365,1,1,0.64306,,0,138,138,551,1,2c,95,1,4,
,,,,,,,,,,,,,,,,,,,,,,,,,,images/exp2a_trial_110_colour3_distractors31_l.png,l,1,007,001,2021-04-14_19h46.58.408,searchDisc4,2020.2.10,Win32,60,,,space,0.43696,1,1,0.702965,,0,139,139,338,1,2a,110,3,31,
,,,,,,,,,,,,,,,,,,,,,,,,,,images/exp2b_trial_56_colour1_distractors1_l.png,l,1,007,001,2021-04-14_19h46.58.408,searchDisc4,2020.2.10,Win32,60,,,space,0.48093,1,1,0.57793,,0,140,140,398,1,2b,56,1,1,
,,,,,,,,,,,,,,,,,,,,,,,,,,images/exp2b_trial_59_colour1_distractors19_l.png,l,1,007,001,2021-04-14_19h46.58.408,searchDisc4,2020.2.10,Win32,60,,,space,0.492925,1,1,0.62068,,0,141,141,401,1,2b,59,1,19,
,,,,,,,,,,,,,,,,,,,,,,,,,,images/exp2b_trial_57_colour1_distractors4_l.png,l,1,007,001,2021-04-14_19h46.58.408,searchDisc4,2020.2.10,Win32,60,,,space,0.420445,1,1,0.56715,,0,142,142,399,1,2b,57,1,4,
,,,,,,,,,,,,,,,,,,,,,,,,,,images/exp2a_trial_63_colour2_distractors4_l.png,l,1,007,001,2021-04-14_19h46.58.408,searchDisc4,2020.2.10,Win32,60,,,space,0.431925,1,1,0.55832,,0,143,143,291,1,2a,63,2,4,
,,,,,,,,,,,,,,,,,,,,,,,,,,images/exp2b_trial_86_colour2_distractors31_r.png,r,2,007,001,2021-04-14_19h46.58.408,searchDisc4,2020.2.10,Win32,60,,,space,0.40037,2,1,0.60201,,0,144,144,428,1,2b,86,2,31,
,,,,,,,,,,,,,,,,,,,,,,,,,,images/exp2a_trial_23_colour1_distractors43_l.png,l,1,007,001,2021-04-14_19h46.58.408,searchDisc4,2020.2.10,Win32,60,,,space,0.41694,1,1,0.847345,,0,145,145,251,1,2a,23,1,43,
,,,,,,,,,,,,,,,,,,,,,,,,,,images/exp2b_trial_64_colour2_distractors9_l.png,l,1,007,001,2021-04-14_19h46.58.408,searchDisc4,2020.2.10,Win32,60,,,space,0.330315,1,1,0.787505,,0,146,146,406,1,2b,64,2,9,
,,,,,,,,,,,,,,,,,,,,,,,,,,images/exp2b_trial_15_colour3_distractors19_r.png,r,2,007,001,2021-04-14_19h46.58.408,searchDisc4,2020.2.10,Win32,60,,,space,0.31976,2,1,0.744865,,0,147,147,357,1,2b,15,3,19,
,,,,,,,,,,,,,,,,,,,,,,,,,,images/exp2c_trial_24_colour2_distractors1_l.png,l,1,007,001,2021-04-14_19h46.58.408,searchDisc4,2020.2.10,Win32,60,,,space,0.31489,1,1,0.77017,,0,148,148,480,1,2c,24,2,1,
,,,,,,,,,,,,,,,,,,,,,,,,,,images/exp2b_trial_111_colour3_distractors43_l.png,l,1,007,001,2021-04-14_19h46.58.408,searchDisc4,2020.2.10,Win32,60,,,space,0.31345,1,1,0.721565,,0,149,149,453,1,2b,111,3,43,
,,,,,,,,,,,,,,,,,,,,,,,,,,images/exp2a_trial_62_colour2_distractors1_l.png,l,1,007,001,2021-04-14_19h46.58.408,searchDisc4,2020.2.10,Win32,60,,,space,0.319035,1,1,0.581015,,0,150,150,290,1,2a,62,2,1,
,,,,,,,,,,,,,,,,,,,,,,,,,,images/exp1b_trial_104_colour2_distractors31_l.png,l,1,007,001,2021-04-14_19h46.58.408,searchDisc4,2020.2.10,Win32,60,,,space,0.383915,1,1,0.96221,,0,151,151,218,1,1b,104,2,31,
,,,,,,,,,,,,,,,,,,,,,,,,,,images/exp2b_trial_60_colour1_distractors31_l.png,l,1,007,001,2021-04-14_19h46.58.408,searchDisc4,2020.2.10,Win32,60,,,space,0.33388,1,1,0.54496,,0,152,152,402,1,2b,60,1,31,
,,,,,,,,,,,,,,,,,,,,,,,,,,images/exp2a_trial_40_colour1_distractors9_r.png,r,2,007,001,2021-04-14_19h46.58.408,searchDisc4,2020.2.10,Win32,60,,,space,0.39642,2,1,0.55577,,0,153,153,268,1,2a,40,1,9,
,,,,,,,,,,,,,,,,,,,,,,,,,,images/exp2b_trial_96_colour1_distractors9_l.png,l,1,007,001,2021-04-14_19h46.58.408,searchDisc4,2020.2.10,Win32,60,,,space,0.32222,1,1,0.47911,,0,154,154,438,1,2b,96,1,9,
,,,,,,,,,,,,,,,,,,,,,,,,,,images/exp2a_trial_103_colour2_distractors19_l.png,l,1,007,001,2021-04-14_19h46.58.408,searchDisc4,2020.2.10,Win32,60,,,space,0.365005,1,1,0.575865,,0,155,155,331,1,2a,103,2,19,
,,,,,,,,,,,,,,,,,,,,,,,,,,images/exp2a_trial_6_colour2_distractors1_r.png,r,2,007,001,2021-04-14_19h46.58.408,searchDisc4,2020.2.10,Win32,60,,,space,0.271125,2,1,0.541415,,0,156,156,234,1,2a,6,2,1,
,,,,,,,,,,,,,,,,,,,,,,,,,,images/exp2c_trial_100_colour2_distractors1_l.png,l,1,007,001,2021-04-14_19h46.58.408,searchDisc4,2020.2.10,Win32,60,,,space,0.19103,1,1,0.588785,,0,157,157,556,1,2c,100,2,1,
,,,,,,,,,,,,,,,,,,,,,,,,,,images/exp2a_trial_57_colour1_distractors4_l.png,l,1,007,001,2021-04-14_19h46.58.408,searchDisc4,2020.2.10,Win32,60,,,space,0.165865,1,1,0.85011,,0,158,158,285,1,2a,57,1,4,
,,,,,,,,,,,,,,,,,,,,,,,,,,images/exp2c_trial_98_colour1_distractors31_l.png,l,1,007,001,2021-04-14_19h46.58.408,searchDisc4,2020.2.10,Win32,60,,,space,0.083505,2,0,0.909635,,0,159,159,554,1,2c,98,1,31,
,,,,,,,,,,,,,,,,,,,,,,,,,,images/exp1b_trial_15_colour3_distractors19_r.png,r,2,007,001,2021-04-14_19h46.58.408,searchDisc4,2020.2.10,Win32,60,,,space,0.089705,2,1,1.096965,,0,160,160,129,1,1b,15,3,19,
,,,,,,,,,,,,,,,,,,,,,,,,,,images/exp2b_trial_109_colour3_distractors19_l.png,l,1,007,001,2021-04-14_19h46.58.408,searchDisc4,2020.2.10,Win32,60,,,space,0.080065,1,1,0.61632,,0,161,161,451,1,2b,109,3,19,
,,,,,,,,,,,,,,,,,,,,,,,,,,images/exp2c_trial_19_colour1_distractors4_l.png,l,1,007,001,2021-04-14_19h46.58.408,searchDisc4,2020.2.10,Win32,60,,,space,0.061335,1,1,0.585695,,0,162,162,475,1,2c,19,1,4,
,,,,,,,,,,,,,,,,,,,,,,,,,,images/exp2b_trial_76_colour1_distractors1_r.png,r,2,007,001,2021-04-14_19h46.58.408,searchDisc4,2020.2.10,Win32,60,,,space,0.09067,2,1,0.63836,,0,163,163,418,1,2b,76,1,1,
,,,,,,,,,,,,,,,,,,,,,,,,,,images/exp2b_trial_22_colour1_distractors31_l.png,l,1,007,001,2021-04-14_19h46.58.408,searchDisc4,2020.2.10,Win32,60,,,space,0.116845,1,1,0.671985,,0,164,164,364,1,2b,22,1,31,
,,,,,,,,,,,,,,,,,,,,,,,,,,images/exp1b_trial_23_colour1_distractors43_l.png,l,1,007,001,2021-04-14_19h46.58.408,searchDisc4,2020.2.10,Win32,60,,,space,0.087445,1,1,1.06033,,0,165,165,137,1,1b,23,1,43,
,,,,,,,,,,,,,,,,,,,,,,,,,,images/exp1a_trial_42_colour1_distractors31_r.png,r,2,007,001,2021-04-14_19h46.58.408,searchDisc4,2020.2.10,Win32,60,,,space,0.099705,2,1,0.67767,,0,166,166,42,1,1a,42,1,31,
,,,,,,,,,,,,,,,,,,,,,,,,,,images/exp2c_trial_0_colour1_distractors1_r.png,r,2,007,001,2021-04-14_19h46.58.408,searchDisc4,2020.2.10,Win32,60,,,space,0.09722,2,1,0.75208,,0,167,167,456,1,2c,0,1,1,
,,,,,,,,,,,,,,,,,,,,,,,,,,images/exp2a_trial_3_colour1_distractors19_r.png,r,2,007,001,2021-04-14_19h46.58.408,searchDisc4,2020.2.10,Win32,60,,,space,0.100525,2,1,0.900785,,0,168,168,231,1,2a,3,1,19,
,,,,,,,,,,,,,,,,,,,,,,,,,,images/exp2b_trial_61_colour1_distractors43_l.png,l,1,007,001,2021-04-14_19h46.58.408,searchDisc4,2020.2.10,Win32,60,,,space,0.091565,1,1,0.788735,,0,169,169,403,1,2b,61,1,43,
,,,,,,,,,,,,,,,,,,,,,,,,,,images/exp1b_trial_105_colour2_distractors43_l.png,l,1,007,001,2021-04-14_19h46.58.408,searchDisc4,2020.2.10,Win32,60,,,space,0.09905,1,1,1.04253,,0,170,170,219,1,1b,105,2,43,
,,,,,,,,,,,,,,,,,,,,,,,,,,images/exp2a_trial_0_colour1_distractors1_r.png,r,2,007,001,2021-04-14_19h46.58.408,searchDisc4,2020.2.10,Win32,60,,,space,0.11527,2,1,1.080165,,0,171,171,228,1,2a,0,1,1,
,,,,,,,,,,,,,,,,,,,,,,,,,,images/exp2b_trial_28_colour2_distractors31_l.png,l,1,007,001,2021-04-14_19h46.58.408,searchDisc4,2020.2.10,Win32,60,,,space,0.496155,1,1,0.622795,,0,172,172,370,1,2b,28,2,31,
,,,,,,,,,,,,,,,,,,,,,,,,,,images/exp1b_trial_93_colour3_distractors43_r.png,r,2,007,001,2021-04-14_19h46.58.408,searchDisc4,2020.2.10,Win32,60,,,space,0.108545,2,1,2.86846,,0,173,173,207,1,1b,93,3,43,
,,,,,,,,,,,,,,,,,,,,,,,,,,images/exp2b_trial_18_colour1_distractors1_l.png,l,1,007,001,2021-04-14_19h46.58.408,searchDisc4,2020.2.10,Win32,60,,,space,0.073545,1,1,0.68248,,0,174,174,360,1,2b,18,1,1,
,,,,,,,,,,,,,,,,,,,,,,,,,,images/exp1b_trial_86_colour2_distractors31_r.png,r,2,007,001,2021-04-14_19h46.58.408,searchDisc4,2020.2.10,Win32,60,,,space,0.09445,2,1,0.860755,,0,175,175,200,1,1b,86,2,31,
,,,,,,,,,,,,,,,,,,,,,,,,,,images/exp2a_trial_58_colour1_distractors9_l.png,l,1,007,001,2021-04-14_19h46.58.408,searchDisc4,2020.2.10,Win32,60,,,space,0.076155,1,1,0.729675,,0,176,176,286,1,2a,58,1,9,
,,,,,,,,,,,,,,,,,,,,,,,,,,images/exp1a_trial_7_colour2_distractors4_r.png,r,2,007,001,2021-04-14_19h46.58.408,searchDisc4,2020.2.10,Win32,60,,,space,0.08672,2,1,0.59686,,0,177,177,7,1,1a,7,2,4,
,,,,,,,,,,,,,,,,,,,,,,,,,,images/exp2b_trial_78_colour1_distractors9_r.png,r,2,007,001,2021-04-14_19h46.58.408,searchDisc4,2020.2.10,Win32,60,,,space,0.085755,2,1,0.6694,,0,178,178,420,1,2b,78,1,9,
,,,,,,,,,,,,,,,,,,,,,,,,,,images/exp2c_trial_4_colour1_distractors31_r.png,r,2,007,001,2021-04-14_19h46.58.408,searchDisc4,2020.2.10,Win32,60,,,space,0.099945,2,1,0.600625,space,0,179,179,460,1,2c,4,1,31,0.08153
,,,,,,,,,,,,,,,,,,,,,,,,,,images/exp2c_trial_102_colour2_distractors9_l.png,l,1,007,001,2021-04-14_19h46.58.408,searchDisc4,2020.2.10,Win32,60,,,space,2.41851,1,1,0.563985,,0,180,180,558,1,2c,102,2,9,
,,,,,,,,,,,,,,,,,,,,,,,,,,images/exp2c_trial_101_colour2_distractors4_l.png,l,1,007,001,2021-04-14_19h46.58.408,searchDisc4,2020.2.10,Win32,60,,,space,0.098295,1,1,0.89563,,0,181,181,557,1,2c,101,2,4,
,,,,,,,,,,,,,,,,,,,,,,,,,,images/exp1b_trial_110_colour3_distractors31_l.png,l,1,007,001,2021-04-14_19h46.58.408,searchDisc4,2020.2.10,Win32,60,,,space,0.100645,2,0,2.39929,,0,182,182,224,1,1b,110,3,31,
,,,,,,,,,,,,,,,,,,,,,,,,,,images/exp1b_trial_6_colour2_distractors1_r.png,r,2,007,001,2021-04-14_19h46.58.408,searchDisc4,2020.2.10,Win32,60,,,space,0.512415,2,1,1.02253,,0,183,183,120,1,1b,6,2,1,
,,,,,,,,,,,,,,,,,,,,,,,,,,images/exp1b_trial_14_colour3_distractors9_r.png,r,2,007,001,2021-04-14_19h46.58.408,searchDisc4,2020.2.10,Win32,60,,,space,0.09263,2,1,0.65861,,0,184,184,128,1,1b,14,3,9,
,,,,,,,,,,,,,,,,,,,,,,,,,,images/exp1a_trial_10_colour2_distractors31_r.png,r,2,007,001,2021-04-14_19h46.58.408,searchDisc4,2020.2.10,Win32,60,,,space,0.06447,2,1,0.848885,,0,185,185,10,1,1a,10,2,31,
,,,,,,,,,,,,,,,,,,,,,,,,,,images/exp1b_trial_95_colour1_distractors4_l.png,l,1,007,001,2021-04-14_19h46.58.408,searchDisc4,2020.2.10,Win32,60,,,space,0.071985,2,0,0.59087,,0,186,186,209,1,1b,95,1,4,
,,,,,,,,,,,,,,,,,,,,,,,,,,images/exp2c_trial_64_colour2_distractors9_l.png,l,1,007,001,2021-04-14_19h46.58.408,searchDisc4,2020.2.10,Win32,60,,,space,0.39091,1,1,0.64612,,0,187,187,520,1,2c,64,2,9,
,,,,,,,,,,,,,,,,,,,,,,,,,,images/exp2a_trial_83_colour2_distractors4_r.png,r,2,007,001,2021-04-14_19h46.58.408,searchDisc4,2020.2.10,Win32,60,,,space,0.112025,2,1,0.55793,,0,188,188,311,1,2a,83,2,4,
,,,,,,,,,,,,,,,,,,,,,,,,,,images/exp1b_trial_11_colour2_distractors43_r.png,r,2,007,001,2021-04-14_19h46.58.408,searchDisc4,2020.2.10,Win32,60,,,space,0.09222,2,1,0.72342,,0,189,189,125,1,1b,11,2,43,
,,,,,,,,,,,,,,,,,,,,,,,,,,images/exp1b_trial_81_colour1_distractors43_r.png,r,2,007,001,2021-04-14_19h46.58.408,searchDisc4,2020.2.10,Win32,60,,,space,0.084715,2,1,0.696165,,0,190,190,195,1,1b,81,1,43,
,,,,,,,,,,,,,,,,,,,,,,,,,,images/exp2b_trial_68_colour3_distractors1_l.png,l,1,007,001,2021-04-14_19h46.58.408,searchDisc4,2020.2.10,Win32,60,,,space,0.09283,1,1,0.791045,,0,191,191,410,1,2b,68,3,1,
,,,,,,,,,,,,,,,,,,,,,,,,,,images/exp2a_trial_45_colour2_distractors4_r.png,r,2,007,001,2021-04-14_19h46.58.408,searchDisc4,2020.2.10,Win32,60,,,space,0.086365,2,1,0.644915,,0,192,192,273,1,2a,45,2,4,
,,,,,,,,,,,,,,,,,,,,,,,,,,images/exp2a_trial_56_colour1_distractors1_l.png,l,1,007,001,2021-04-14_19h46.58.408,searchDisc4,2020.2.10,Win32,60,,,space,0.063575,1,1,0.5589,,0,193,193,284,1,2a,56,1,1,
,,,,,,,,,,,,,,,,,,,,,,,,,,images/exp1b_trial_39_colour1_distractors4_r.png,r,2,007,001,2021-04-14_19h46.58.408,searchDisc4,2020.2.10,Win32,60,,,space,0.078025,2,1,0.547525,,0,194,194,153,1,1b,39,1,4,
,,,,,,,,,,,,,,,,,,,,,,,,,,images/exp2b_trial_13_colour3_distractors4_r.png,r,2,007,001,2021-04-14_19h46.58.408,searchDisc4,2020.2.10,Win32,60,,,space,0.066805,2,1,0.53851,,0,195,195,355,1,2b,13,3,4,
,,,,,,,,,,,,,,,,,,,,,,,,,,images/exp2b_trial_50_colour3_distractors1_r.png,r,2,007,001,2021-04-14_19h46.58.408,searchDisc4,2020.2.10,Win32,60,,,space,0.08409,2,1,0.54295,,0,196,196,392,1,2b,50,3,1,
,,,,,,,,,,,,,,,,,,,,,,,,,,images/exp1b_trial_51_colour3_distractors4_r.png,r,2,007,001,2021-04-14_19h46.58.408,searchDisc4,2020.2.10,Win32,60,,,space,0.05031,2,1,1.327065,,0,197,197,165,1,1b,51,3,4,
,,,,,,,,,,,,,,,,,,,,,,,,,,images/exp2c_trial_44_colour2_distractors1_r.png,r,2,007,001,2021-04-14_19h46.58.408,searchDisc4,2020.2.10,Win32,60,,,space,0.060985,2,1,0.524785,,0,198,198,500,1,2c,44,2,1,
,,,,,,,,,,,,,,,,,,,,,,,,,,images/exp1a_trial_82_colour2_distractors1_r.png,r,2,007,001,2021-04-14_19h46.58.408,searchDisc4,2020.2.10,Win32,60,,,space,0.066455,2,1,0.71514,,0,199,199,82,1,1a,82,2,1,
,,,,,,,,,,,,,,,,,,,,,,,,,,images/exp2c_trial_88_colour3_distractors1_r.png,r,2,007,001,2021-04-14_19h46.58.408,searchDisc4,2020.2.10,Win32,60,,,space,0.101215,1,0,0.57163,,0,200,200,544,1,2c,88,3,1,
,,,,,,,,,,,,,,,,,,,,,,,,,,images/exp1a_trial_27_colour2_distractors19_l.png,l,1,007,001,2021-04-14_19h46.58.408,searchDisc4,2020.2.10,Win32,60,,,space,0.619505,1,1,0.734675,,0,201,201,27,1,1a,27,2,19,
,,,,,,,,,,,,,,,,,,,,,,,,,,images/exp2a_trial_73_colour3_distractors43_l.png,l,1,007,001,2021-04-14_19h46.58.408,searchDisc4,2020.2.10,Win32,60,,,space,0.086175,1,1,0.88961,,0,202,202,301,1,2a,73,3,43,
,,,,,,,,,,,,,,,,,,,,,,,,,,images/exp2b_trial_10_colour2_distractors31_r.png,r,2,007,001,2021-04-14_19h46.58.408,searchDisc4,2020.2.10,Win32,60,,,space,0.095155,2,1,0.656445,,0,203,203,352,1,2b,10,2,31,
,,,,,,,,,,,,,,,,,,,,,,,,,,images/exp1b_trial_77_colour1_distractors4_r.png,r,2,007,001,2021-04-14_19h46.58.408,searchDisc4,2020.2.10,Win32,60,,,space,0.072155,2,1,0.783845,,0,204,204,191,1,1b,77,1,4,
,,,,,,,,,,,,,,,,,,,,,,,,,,images/exp1a_trial_77_colour1_distractors4_r.png,r,2,007,001,2021-04-14_19h46.58.408,searchDisc4,2020.2.10,Win32,60,,,space,0.065335,2,1,0.689215,,0,205,205,77,1,1a,77,1,4,
,,,,,,,,,,,,,,,,,,,,,,,,,,images/exp2b_trial_91_colour3_distractors19_r.png,r,2,007,001,2021-04-14_19h46.58.408,searchDisc4,2020.2.10,Win32,60,,,space,0.073785,2,1,0.59745,,0,206,206,433,1,2b,91,3,19,
,,,,,,,,,,,,,,,,,,,,,,,,,,images/exp1a_trial_25_colour2_distractors4_l.png,l,1,007,001,2021-04-14_19h46.58.408,searchDisc4,2020.2.10,Win32,60,,,space,0.07642,1,1,0.757945,,0,207,207,25,1,1a,25,2,4,
,,,,,,,,,,,,,,,,,,,,,,,,,,images/exp1b_trial_27_colour2_distractors19_l.png,l,1,007,001,2021-04-14_19h46.58.408,searchDisc4,2020.2.10,Win32,60,,,space,0.086405,1,1,1.7585,,0,208,208,141,1,1b,27,2,19,
,,,,,,,,,,,,,,,,,,,,,,,,,,images/exp2b_trial_0_colour1_distractors1_r.png,r,2,007,001,2021-04-14_19h46.58.408,searchDisc4,2020.2.10,Win32,60,,,space,0.082215,2,1,0.79567,,0,209,209,342,1,2b,0,1,1,
,,,,,,,,,,,,,,,,,,,,,,,,,,images/exp2c_trial_13_colour3_distractors4_r.png,r,2,007,001,2021-04-14_19h46.58.408,searchDisc4,2020.2.10,Win32,60,,,space,0.06861,2,1,0.79719,,0,210,210,469,1,2c,13,3,4,
,,,,,,,,,,,,,,,,,,,,,,,,,,images/exp2b_trial_52_colour3_distractors9_r.png,r,2,007,001,2021-04-14_19h46.58.408,searchDisc4,2020.2.10,Win32,60,,,space,0.068355,2,1,0.72372,,0,211,211,394,1,2b,52,3,9,
,,,,,,,,,,,,,,,,,,,,,,,,,,images/exp2c_trial_96_colour1_distractors9_l.png,l,1,007,001,2021-04-14_19h46.58.408,searchDisc4,2020.2.10,Win32,60,,,space,0.076625,1,1,0.83007,,0,212,212,552,1,2c,96,1,9,
,,,,,,,,,,,,,,,,,,,,,,,,,,images/exp1a_trial_83_colour2_distractors4_r.png,r,2,007,001,2021-04-14_19h46.58.408,searchDisc4,2020.2.10,Win32,60,,,space,0.077285,2,1,0.780575,,0,213,213,83,1,1a,83,2,4,
,,,,,,,,,,,,,,,,,,,,,,,,,,images/exp2c_trial_52_colour3_distractors9_r.png,r,2,007,001,2021-04-14_19h46.58.408,searchDisc4,2020.2.10,Win32,60,,,space,0.356395,2,1,0.91725,,0,214,214,508,1,2c,52,3,9,
,,,,,,,,,,,,,,,,,,,,,,,,,,images/exp1a_trial_85_colour2_distractors19_r.png,r,2,007,001,2021-04-14_19h46.58.408,searchDisc4,2020.2.10,Win32,60,,,space,0.22436,2,1,0.992505,,0,215,215,85,1,1a,85,2,19,
,,,,,,,,,,,,,,,,,,,,,,,,,,images/exp2a_trial_30_colour3_distractors1_l.png,l,1,007,001,2021-04-14_19h46.58.408,searchDisc4,2020.2.10,Win32,60,,,space,0.28407,1,1,1.05166,,0,216,216,258,1,2a,30,3,1,
,,,,,,,,,,,,,,,,,,,,,,,,,,images/exp2c_trial_91_colour3_distractors19_r.png,r,2,007,001,2021-04-14_19h46.58.408,searchDisc4,2020.2.10,Win32,60,,,space,0.151025,2,1,0.87173,,0,217,217,547,1,2c,91,3,19,
,,,,,,,,,,,,,,,,,,,,,,,,,,images/exp2c_trial_93_colour3_distractors43_r.png,r,2,007,001,2021-04-14_19h46.58.408,searchDisc4,2020.2.10,Win32,60,,,space,0.283935,2,1,0.796835,,0,218,218,549,1,2c,93,3,43,
,,,,,,,,,,,,,,,,,,,,,,,,,,images/exp2a_trial_104_colour2_distractors31_l.png,l,1,007,001,2021-04-14_19h46.58.408,searchDisc4,2020.2.10,Win32,60,,,space,0.23646,1,1,0.766295,,0,219,219,332,1,2a,104,2,31,
,,,,,,,,,,,,,,,,,,,,,,,,,,images/exp2b_trial_58_colour1_distractors9_l.png,l,1,007,001,2021-04-14_19h46.58.408,searchDisc4,2020.2.10,Win32,60,,,space,0.277655,1,1,0.770465,,0,220,220,400,1,2b,58,1,9,
,,,,,,,,,,,,,,,,,,,,,,,,,,images/exp1a_trial_106_colour3_distractors1_l.png,l,1,007,001,2021-04-14_19h46.58.408,searchDisc4,2020.2.10,Win32,60,,,space,0.244085,1,1,0.68524,,0,221,221,106,1,1a,106,3,1,
,,,,,,,,,,,,,,,,,,,,,,,,,,images/exp1a_trial_84_colour2_distractors9_r.png,r,2,007,001,2021-04-14_19h46.58.408,searchDisc4,2020.2.10,Win32,60,,,space,0.245865,2,1,0.582935,,0,222,222,84,1,1a,84,2,9,
,,,,,,,,,,,,,,,,,,,,,,,,,,images/exp1a_trial_107_colour3_distractors4_l.png,l,1,007,001,2021-04-14_19h46.58.408,searchDisc4,2020.2.10,Win32,60,,,space,0.207805,1,1,0.493515,,0,223,223,107,1,1a,107,3,4,
,,,,,,,,,,,,,,,,,,,,,,,,,,images/exp1b_trial_33_colour3_distractors19_l.png,l,1,007,001,2021-04-14_19h46.58.408,searchDisc4,2020.2.10,Win32,60,,,space,0.22237,1,1,1.016165,,0,224,224,147,1,1b,33,3,19,
,,,,,,,,,,,,,,,,,,,,,,,,,,images/exp1b_trial_53_colour3_distractors19_r.png,r,2,007,001,2021-04-14_19h46.58.408,searchDisc4,2020.2.10,Win32,60,,,space,0.24477,2,1,1.06937,,0,225,225,167,1,1b,53,3,19,
,,,,,,,,,,,,,,,,,,,,,,,,,,images/exp1a_trial_49_colour2_distractors43_r.png,r,2,007,001,2021-04-14_19h46.58.408,searchDisc4,2020.2.10,Win32,60,,,space,0.161945,2,1,0.800455,,0,226,226,49,1,1a,49,2,43,
,,,,,,,,,,,,,,,,,,,,,,,,,,images/exp1b_trial_25_colour2_distractors4_l.png,l,1,007,001,2021-04-14_19h46.58.408,searchDisc4,2020.2.10,Win32,60,,,space,0.194325,1,1,0.799255,,0,227,227,139,1,1b,25,2,4,
,,,,,,,,,,,,,,,,,,,,,,,,,,images/exp2c_trial_38_colour1_distractors1_r.png,r,2,007,001,2021-04-14_19h46.58.408,searchDisc4,2020.2.10,Win32,60,,,space,0.21083,2,1,0.595375,,0,228,228,494,1,2c,38,1,1,
,,,,,,,,,,,,,,,,,,,,,,,,,,images/exp2a_trial_71_colour3_distractors19_l.png,l,1,007,001,2021-04-14_19h46.58.408,searchDisc4,2020.2.10,Win32,60,,,space,0.2377,1,1,0.660085,,0,229,229,299,1,2a,71,3,19,
,,,,,,,,,,,,,,,,,,,,,,,,,,images/exp2c_trial_27_colour2_distractors19_l.png,l,1,007,001,2021-04-14_19h46.58.408,searchDisc4,2020.2.10,Win32,60,,,space,0.20925,1,1,0.825735,,0,230,230,483,1,2c,27,2,19,
,,,,,,,,,,,,,,,,,,,,,,,,,,images/exp1a_trial_73_colour3_distractors43_l.png,l,1,007,001,2021-04-14_19h46.58.408,searchDisc4,2020.2.10,Win32,60,,,space,0.22262,1,1,0.701055,,0,231,231,73,1,1a,73,3,43,
,,,,,,,,,,,,,,,,,,,,,,,,,,images/exp2b_trial_110_colour3_distractors31_l.png,l,1,007,001,2021-04-14_19h46.58.408,searchDisc4,2020.2.10,Win32,60,,,space,0.207965,1,1,0.61004,,0,232,232,452,1,2b,110,3,31,
,,,,,,,,,,,,,,,,,,,,,,,,,,images/exp2c_trial_41_colour1_distractors19_r.png,r,2,007,001,2021-04-14_19h46.58.408,searchDisc4,2020.2.10,Win32,60,,,space,0.176265,2,1,0.64448,,0,233,233,497,1,2c,41,1,19,
,,,,,,,,,,,,,,,,,,,,,,,,,,images/exp2a_trial_93_colour3_distractors43_r.png,r,2,007,001,2021-04-14_19h46.58.408,searchDisc4,2020.2.10,Win32,60,,,space,0.139905,1,0,0.731295,,0,234,234,321,1,2a,93,3,43,
,,,,,,,,,,,,,,,,,,,,,,,,,,images/exp1a_trial_37_colour0_distractors0_l.png,l,1,007,001,2021-04-14_19h46.58.408,searchDisc4,2020.2.10,Win32,60,,,space,0.548915,1,1,0.674865,,0,235,235,37,1,1a,37,0,0,
,,,,,,,,,,,,,,,,,,,,,,,,,,images/exp2c_trial_109_colour3_distractors19_l.png,l,1,007,001,2021-04-14_19h46.58.408,searchDisc4,2020.2.10,Win32,60,,,space,0.25299,1,1,0.75314,,0,236,236,565,1,2c,109,3,19,
,,,,,,,,,,,,,,,,,,,,,,,,,,images/exp2c_trial_70_colour3_distractors9_l.png,l,1,007,001,2021-04-14_19h46.58.408,searchDisc4,2020.2.10,Win32,60,,,space,0.21023,1,1,0.618515,,0,237,237,526,1,2c,70,3,9,
,,,,,,,,,,,,,,,,,,,,,,,,,,images/exp2a_trial_36_colour0_distractors0_r.png,r,2,007,001,2021-04-14_19h46.58.408,searchDisc4,2020.2.10,Win32,60,,,space,0.221895,2,1,0.625715,,0,238,238,264,1,2a,36,0,0,
,,,,,,,,,,,,,,,,,,,,,,,,,,images/exp1a_trial_51_colour3_distractors4_r.png,r,2,007,001,2021-04-14_19h46.58.408,searchDisc4,2020.2.10,Win32,60,,,space,0.244815,2,1,0.599125,space,0,239,239,51,1,1a,51,3,4,0.26386
,,,,,,,,,,,,,,,,,,,,,,,,,,images/exp2c_trial_113_colour0_distractors0_l.png,l,1,007,001,2021-04-14_19h46.58.408,searchDisc4,2020.2.10,Win32,60,,,space,6.02149,1,1,1.093025,,0,240,240,569,1,2c,113,0,0,
,,,,,,,,,,,,,,,,,,,,,,,,,,images/exp2b_trial_54_colour3_distractors31_r.png,r,2,007,001,2021-04-14_19h46.58.408,searchDisc4,2020.2.10,Win32,60,,,space,0.0956,2,1,0.91946,,0,241,241,396,1,2b,54,3,31,
,,,,,,,,,,,,,,,,,,,,,,,,,,images/exp2b_trial_79_colour1_distractors19_r.png,r,2,007,001,2021-04-14_19h46.58.408,searchDisc4,2020.2.10,Win32,60,,,space,0.27062,2,1,0.528075,,0,242,242,421,1,2b,79,1,19,
,,,,,,,,,,,,,,,,,,,,,,,,,,images/exp2a_trial_88_colour3_distractors1_r.png,r,2,007,001,2021-04-14_19h46.58.408,searchDisc4,2020.2.10,Win32,60,,,space,0.089725,2,1,0.5663,,0,243,243,316,1,2a,88,3,1,
,,,,,,,,,,,,,,,,,,,,,,,,,,images/exp1b_trial_9_colour2_distractors19_r.png,r,2,007,001,2021-04-14_19h46.58.408,searchDisc4,2020.2.10,Win32,60,,,space,0.075735,2,1,0.93354,,0,244,244,123,1,1b,9,2,19,
,,,,,,,,,,,,,,,,,,,,,,,,,,images/exp2a_trial_55_colour3_distractors43_r.png,r,2,007,001,2021-04-14_19h46.58.408,searchDisc4,2020.2.10,Win32,60,,,space,0.0681,1,0,0.69207,,0,245,245,283,1,2a,55,3,43,
,,,,,,,,,,,,,,,,,,,,,,,,,,images/exp1a_trial_113_colour0_distractors0_l.png,l,1,007,001,2021-04-14_19h46.58.408,searchDisc4,2020.2.10,Win32,60,,,space,0.591965,1,1,1.117985,,0,246,246,113,1,1a,113,0,0,
,,,,,,,,,,,,,,,,,,,,,,,,,,images/exp2b_trial_93_colour3_distractors43_r.png,r,2,007,001,2021-04-14_19h46.58.408,searchDisc4,2020.2.10,Win32,60,,,space,0.09057,2,1,0.73775,,0,247,247,435,1,2b,93,3,43,
,,,,,,,,,,,,,,,,,,,,,,,,,,images/exp1a_trial_6_colour2_distractors1_r.png,r,2,007,001,2021-04-14_19h46.58.408,searchDisc4,2020.2.10,Win32,60,,,space,0.082905,2,1,0.677465,,0,248,248,6,1,1a,6,2,1,
,,,,,,,,,,,,,,,,,,,,,,,,,,images/exp1a_trial_32_colour3_distractors9_l.png,l,1,007,001,2021-04-14_19h46.58.408,searchDisc4,2020.2.10,Win32,60,,,space,0.076745,1,1,0.688545,,0,249,249,32,1,1a,32,3,9,
,,,,,,,,,,,,,,,,,,,,,,,,,,images/exp2a_trial_8_colour2_distractors9_r.png,r,2,007,001,2021-04-14_19h46.58.408,searchDisc4,2020.2.10,Win32,60,,,space,0.111815,2,1,0.649225,,0,250,250,236,1,2a,8,2,9,
,,,,,,,,,,,,,,,,,,,,,,,,,,images/exp2a_trial_61_colour1_distractors43_l.png,l,1,007,001,2021-04-14_19h46.58.408,searchDisc4,2020.2.10,Win32,60,,,space,0.09621,1,1,0.818955,,0,251,251,289,1,2a,61,1,43,
,,,,,,,,,,,,,,,,,,,,,,,,,,images/exp2b_trial_66_colour2_distractors31_l.png,l,1,007,001,2021-04-14_19h46.58.408,searchDisc4,2020.2.10,Win32,60,,,space,0.11743,1,1,0.88344,,0,252,252,408,1,2b,66,2,31,
,,,,,,,,,,,,,,,,,,,,,,,,,,images/exp1a_trial_50_colour3_distractors1_r.png,r,2,007,001,2021-04-14_19h46.58.408,searchDisc4,2020.2.10,Win32,60,,,space,0.10108,2,1,0.838135,,0,253,253,50,1,1a,50,3,1,
,,,,,,,,,,,,,,,,,,,,,,,,,,images/exp2a_trial_75_colour0_distractors0_l.png,l,1,007,001,2021-04-14_19h46.58.408,searchDisc4,2020.2.10,Win32,60,,,space,0.09747,1,1,0.70243,,0,254,254,303,1,2a,75,0,0,
,,,,,,,,,,,,,,,,,,,,,,,,,,images/exp2a_trial_17_colour3_distractors43_r.png,r,2,007,001,2021-04-14_19h46.58.408,searchDisc4,2020.2.10,Win32,60,,,space,0.13147,2,1,0.662265,,0,255,255,245,1,2a,17,3,43,
,,,,,,,,,,,,,,,,,,,,,,,,,,images/exp2b_trial_16_colour3_distractors31_r.png,r,2,007,001,2021-04-14_19h46.58.408,searchDisc4,2020.2.10,Win32,60,,,space,0.128045,2,1,0.79992,,0,256,256,358,1,2b,16,3,31,
,,,,,,,,,,,,,,,,,,,,,,,,,,images/exp2b_trial_94_colour1_distractors1_l.png,l,1,007,001,2021-04-14_19h46.58.408,searchDisc4,2020.2.10,Win32,60,,,space,0.18949,1,1,0.64703,,0,257,257,436,1,2b,94,1,1,
,,,,,,,,,,,,,,,,,,,,,,,,,,images/exp2b_trial_38_colour1_distractors1_r.png,r,2,007,001,2021-04-14_19h46.58.408,searchDisc4,2020.2.10,Win32,60,,,space,0.096985,2,1,0.509585,,0,258,258,380,1,2b,38,1,1,
,,,,,,,,,,,,,,,,,,,,,,,,,,images/exp1a_trial_74_colour0_distractors0_r.png,r,2,007,001,2021-04-14_19h46.58.408,searchDisc4,2020.2.10,Win32,60,,,space,0.14672,2,1,0.694965,,0,259,259,74,1,1a,74,0,0,
,,,,,,,,,,,,,,,,,,,,,,,,,,images/exp2c_trial_56_colour1_distractors1_l.png,l,1,007,001,2021-04-14_19h46.58.408,searchDisc4,2020.2.10,Win32,60,,,space,0.11537,1,1,0.597745,,0,260,260,512,1,2c,56,1,1,
,,,,,,,,,,,,,,,,,,,,,,,,,,images/exp1a_trial_24_colour2_distractors1_l.png,l,1,007,001,2021-04-14_19h46.58.408,searchDisc4,2020.2.10,Win32,60,,,space,0.314715,1,1,0.840585,,0,261,261,24,1,1a,24,2,1,
,,,,,,,,,,,,,,,,,,,,,,,,,,images/exp2b_trial_65_colour2_distractors19_l.png,l,1,007,001,2021-04-14_19h46.58.408,searchDisc4,2020.2.10,Win32,60,,,space,0.15718,1,1,1.045085,,0,262,262,407,1,2b,65,2,19,
,,,,,,,,,,,,,,,,,,,,,,,,,,images/exp1a_trial_29_colour2_distractors43_l.png,l,1,007,001,2021-04-14_19h46.58.408,searchDisc4,2020.2.10,Win32,60,,,space,0.198905,2,0,1.03463,,0,263,263,29,1,1a,29,2,43,
,,,,,,,,,,,,,,,,,,,,,,,,,,images/exp2a_trial_39_colour1_distractors4_r.png,r,2,007,001,2021-04-14_19h46.58.408,searchDisc4,2020.2.10,Win32,60,,,space,0.93839,2,1,0.563915,,0,264,264,267,1,2a,39,1,4,
,,,,,,,,,,,,,,,,,,,,,,,,,,images/exp2c_trial_14_colour3_distractors9_r.png,r,2,007,001,2021-04-14_19h46.58.408,searchDisc4,2020.2.10,Win32,60,,,space,0.37327,2,1,0.650555,,0,265,265,470,1,2c,14,3,9,
,,,,,,,,,,,,,,,,,,,,,,,,,,images/exp2a_trial_2_colour1_distractors9_r.png,r,2,007,001,2021-04-14_19h46.58.408,searchDisc4,2020.2.10,Win32,60,,,space,0.35791,2,1,0.81199,,0,266,266,230,1,2a,2,1,9,
,,,,,,,,,,,,,,,,,,,,,,,,,,images/exp2b_trial_92_colour3_distractors31_r.png,r,2,007,001,2021-04-14_19h46.58.408,searchDisc4,2020.2.10,Win32,60,,,space,0.341755,2,1,0.82142,,0,267,267,434,1,2b,92,3,31,
,,,,,,,,,,,,,,,,,,,,,,,,,,images/exp2c_trial_35_colour3_distractors43_l.png,l,1,007,001,2021-04-14_19h46.58.408,searchDisc4,2020.2.10,Win32,60,,,space,0.254295,1,1,1.04044,,0,268,268,491,1,2c,35,3,43,
,,,,,,,,,,,,,,,,,,,,,,,,,,images/exp2b_trial_11_colour2_distractors43_r.png,r,2,007,001,2021-04-14_19h46.58.408,searchDisc4,2020.2.10,Win32,60,,,space,0.33299,2,1,0.779985,,0,269,269,353,1,2b,11,2,43,
,,,,,,,,,,,,,,,,,,,,,,,,,,images/exp2b_trial_80_colour1_distractors31_r.png,r,2,007,001,2021-04-14_19h46.58.408,searchDisc4,2020.2.10,Win32,60,,,space,0.296845,2,1,0.812885,,0,270,270,422,1,2b,80,1,31,
,,,,,,,,,,,,,,,,,,,,,,,,,,images/exp2b_trial_74_colour0_distractors0_r.png,r,2,007,001,2021-04-14_19h46.58.408,searchDisc4,2020.2.10,Win32,60,,,space,0.36853,2,1,0.73409,,0,271,271,416,1,2b,74,0,0,
,,,,,,,,,,,,,,,,,,,,,,,,,,images/exp2c_trial_22_colour1_distractors31_l.png,l,1,007,001,2021-04-14_19h46.58.408,searchDisc4,2020.2.10,Win32,60,,,space,0.431915,1,1,0.76017,,0,272,272,478,1,2c,22,1,31,
,,,,,,,,,,,,,,,,,,,,,,,,,,images/exp2a_trial_44_colour2_distractors1_r.png,r,2,007,001,2021-04-14_19h46.58.408,searchDisc4,2020.2.10,Win32,60,,,space,0.247935,2,1,0.860725,,0,273,273,272,1,2a,44,2,1,
,,,,,,,,,,,,,,,,,,,,,,,,,,images/exp1a_trial_8_colour2_distractors9_r.png,r,2,007,001,2021-04-14_19h46.58.408,searchDisc4,2020.2.10,Win32,60,,,space,0.21868,2,1,0.835795,,0,274,274,8,1,1a,8,2,9,
,,,,,,,,,,,,,,,,,,,,,,,,,,images/exp1a_trial_14_colour3_distractors9_r.png,r,2,007,001,2021-04-14_19h46.58.408,searchDisc4,2020.2.10,Win32,60,,,space,0.15259,2,1,1.05707,,0,275,275,14,1,1a,14,3,9,
,,,,,,,,,,,,,,,,,,,,,,,,,,images/exp1a_trial_20_colour1_distractors9_l.png,l,1,007,001,2021-04-14_19h46.58.408,searchDisc4,2020.2.10,Win32,60,,,space,0.108315,1,1,1.18418,,0,276,276,20,1,1a,20,1,9,
,,,,,,,,,,,,,,,,,,,,,,,,,,images/exp2c_trial_63_colour2_distractors4_l.png,l,1,007,001,2021-04-14_19h46.58.408,searchDisc4,2020.2.10,Win32,60,,,space,1.264685,1,1,0.647375,,0,277,277,519,1,2c,63,2,4,
,,,,,,,,,,,,,,,,,,,,,,,,,,images/exp1b_trial_103_colour2_distractors19_l.png,l,1,007,001,2021-04-14_19h46.58.408,searchDisc4,2020.2.10,Win32,60,,,space,0.11041,1,1,3.238885,,0,278,278,217,1,1b,103,2,19,
,,,,,,,,,,,,,,,,,,,,,,,,,,images/exp1b_trial_45_colour2_distractors4_r.png,r,2,007,001,2021-04-14_19h46.58.408,searchDisc4,2020.2.10,Win32,60,,,space,0.09936,2,1,1.05223,,0,279,279,159,1,1b,45,2,4,
,,,,,,,,,,,,,,,,,,,,,,,,,,images/exp2c_trial_62_colour2_distractors1_l.png,l,1,007,001,2021-04-14_19h46.58.408,searchDisc4,2020.2.10,Win32,60,,,space,0.35966,1,1,0.868015,,0,280,280,518,1,2c,62,2,1,
,,,,,,,,,,,,,,,,,,,,,,,,,,images/exp1a_trial_95_colour1_distractors4_l.png,l,1,007,001,2021-04-14_19h46.58.408,searchDisc4,2020.2.10,Win32,60,,,space,0.429255,1,1,0.718815,,0,281,281,95,1,1a,95,1,4,
,,,,,,,,,,,,,,,,,,,,,,,,,,images/exp2b_trial_90_colour3_distractors9_r.png,r,2,007,001,2021-04-14_19h46.58.408,searchDisc4,2020.2.10,Win32,60,,,space,0.41713,2,1,0.68945,,0,282,282,432,1,2b,90,3,9,
,,,,,,,,,,,,,,,,,,,,,,,,,,images/exp1b_trial_61_colour1_distractors43_l.png,l,1,007,001,2021-04-14_19h46.58.408,searchDisc4,2020.2.10,Win32,60,,,space,0.37537,1,1,0.877165,,0,283,283,175,1,1b,61,1,43,
,,,,,,,,,,,,,,,,,,,,,,,,,,images/exp2c_trial_104_colour2_distractors31_l.png,l,1,007,001,2021-04-14_19h46.58.408,searchDisc4,2020.2.10,Win32,60,,,space,0.391565,1,1,0.849055,,0,284,284,560,1,2c,104,2,31,
,,,,,,,,,,,,,,,,,,,,,,,,,,images/exp1b_trial_107_colour3_distractors4_l.png,l,1,007,001,2021-04-14_19h46.58.408,searchDisc4,2020.2.10,Win32,60,,,space,0.4462,1,1,1.14562,,0,285,285,221,1,1b,107,3,4,
,,,,,,,,,,,,,,,,,,,,,,,,,,images/exp2b_trial_9_colour2_distractors19_r.png,r,2,007,001,2021-04-14_19h46.58.408,searchDisc4,2020.2.10,Win32,60,,,space,0.36031,2,1,0.876285,,0,286,286,351,1,2b,9,2,19,
,,,,,,,,,,,,,,,,,,,,,,,,,,images/exp2a_trial_85_colour2_distractors19_r.png,r,2,007,001,2021-04-14_19h46.58.408,searchDisc4,2020.2.10,Win32,60,,,space,0.521595,2,1,0.63122,,0,287,287,313,1,2a,85,2,19,
,,,,,,,,,,,,,,,,,,,,,,,,,,images/exp2c_trial_23_colour1_distractors43_l.png,l,1,007,001,2021-04-14_19h46.58.408,searchDisc4,2020.2.10,Win32,60,,,space,0.45207,1,1,0.72465,,0,288,288,479,1,2c,23,1,43,
,,,,,,,,,,,,,,,,,,,,,,,,,,images/exp1b_trial_7_colour2_distractors4_r.png,r,2,007,001,2021-04-14_19h46.58.408,searchDisc4,2020.2.10,Win32,60,,,space,0.414285,2,1,0.718115,,0,289,289,121,1,1b,7,2,4,
,,,,,,,,,,,,,,,,,,,,,,,,,,images/exp2a_trial_97_colour1_distractors19_l.png,l,1,007,001,2021-04-14_19h46.58.408,searchDisc4,2020.2.10,Win32,60,,,space,0.552295,1,1,0.70278,,0,290,290,325,1,2a,97,1,19,
,,,,,,,,,,,,,,,,,,,,,,,,,,images/exp1b_trial_12_colour3_distractors1_r.png,r,2,007,001,2021-04-14_19h46.58.408,searchDisc4,2020.2.10,Win32,60,,,space,0.40401,2,1,0.691525,,0,291,291,126,1,1b,12,3,1,
,,,,,,,,,,,,,,,,,,,,,,,,,,images/exp2b_trial_77_colour1_distractors4_r.png,r,2,007,001,2021-04-14_19h46.58.408,searchDisc4,2020.2.10,Win32,60,,,space,0.347975,2,1,0.661075,,0,292,292,419,1,2b,77,1,4,
,,,,,,,,,,,,,,,,,,,,,,,,,,images/exp2b_trial_85_colour2_distractors19_r.png,r,2,007,001,2021-04-14_19h46.58.408,searchDisc4,2020.2.10,Win32,60,,,space,0.53597,2,1,0.543295,,0,293,293,427,1,2b,85,2,19,
,,,,,,,,,,,,,,,,,,,,,,,,,,images/exp2a_trial_64_colour2_distractors9_l.png,l,1,007,001,2021-04-14_19h46.58.408,searchDisc4,2020.2.10,Win32,60,,,space,0.437215,1,1,0.56658,,0,294,294,292,1,2a,64,2,9,
,,,,,,,,,,,,,,,,,,,,,,,,,,images/exp2c_trial_6_colour2_distractors1_r.png,r,2,007,001,2021-04-14_19h46.58.408,searchDisc4,2020.2.10,Win32,60,,,space,0.328455,2,1,0.515155,,0,295,295,462,1,2c,6,2,1,
,,,,,,,,,,,,,,,,,,,,,,,,,,images/exp2a_trial_81_colour1_distractors43_r.png,r,2,007,001,2021-04-14_19h46.58.408,searchDisc4,2020.2.10,Win32,60,,,space,0.47466,2,1,0.64533,,0,296,296,309,1,2a,81,1,43,
,,,,,,,,,,,,,,,,,,,,,,,,,,images/exp2c_trial_83_colour2_distractors4_r.png,r,2,007,001,2021-04-14_19h46.58.408,searchDisc4,2020.2.10,Win32,60,,,space,0.32718,2,1,0.613635,,0,297,297,539,1,2c,83,2,4,
,,,,,,,,,,,,,,,,,,,,,,,,,,images/exp1b_trial_72_colour3_distractors31_l.png,l,1,007,001,2021-04-14_19h46.58.408,searchDisc4,2020.2.10,Win32,60,,,space,0.361105,1,1,4.474125,,0,298,298,186,1,1b,72,3,31,
,,,,,,,,,,,,,,,,,,,,,,,,,,images/exp1a_trial_13_colour3_distractors4_r.png,r,2,007,001,2021-04-14_19h46.58.408,searchDisc4,2020.2.10,Win32,60,,,space,0.19697,2,1,0.720855,space,0,299,299,13,1,1a,13,3,4,1222.21386
,,,,,,,,,,,,,,,,,,,,,,,,,,images/exp2b_trial_6_colour2_distractors1_r.png,r,2,007,001,2021-04-14_19h46.58.408,searchDisc4,2020.2.10,Win32,60,,,space,0.695645,2,1,0.522385,,0,300,300,348,1,2b,6,2,1,
,,,,,,,,,,,,,,,,,,,,,,,,,,images/exp1b_trial_83_colour2_distractors4_r.png,r,2,007,001,2021-04-14_19h46.58.408,searchDisc4,2020.2.10,Win32,60,,,space,0.251795,2,1,0.68686,,0,301,301,197,1,1b,83,2,4,
,,,,,,,,,,,,,,,,,,,,,,,,,,images/exp1a_trial_109_colour3_distractors19_l.png,l,1,007,001,2021-04-14_19h46.58.408,searchDisc4,2020.2.10,Win32,60,,,space,0.180355,1,1,0.616255,,0,302,302,109,1,1a,109,3,19,
,,,,,,,,,,,,,,,,,,,,,,,,,,images/exp1a_trial_41_colour1_distractors19_r.png,r,2,007,001,2021-04-14_19h46.58.408,searchDisc4,2020.2.10,Win32,60,,,space,0.1395,2,1,0.539955,,0,303,303,41,1,1a,41,1,19,
,,,,,,,,,,,,,,,,,,,,,,,,,,images/exp1b_trial_78_colour1_distractors9_r.png,r,2,007,001,2021-04-14_19h46.58.408,searchDisc4,2020.2.10,Win32,60,,,space,0.12851,2,1,0.843885,,0,304,304,192,1,1b,78,1,9,
,,,,,,,,,,,,,,,,,,,,,,,,,,images/exp1b_trial_113_colour0_distractors0_l.png,l,1,007,001,2021-04-14_19h46.58.408,searchDisc4,2020.2.10,Win32,60,,,space,0.11583,1,1,0.50414,,0,305,305,227,1,1b,113,0,0,
,,,,,,,,,,,,,,,,,,,,,,,,,,images/exp2a_trial_77_colour1_distractors4_r.png,r,2,007,001,2021-04-14_19h46.58.408,searchDisc4,2020.2.10,Win32,60,,,space,0.09942,2,1,0.520605,,0,306,306,305,1,2a,77,1,4,
,,,,,,,,,,,,,,,,,,,,,,,,,,images/exp2c_trial_8_colour2_distractors9_r.png,r,2,007,001,2021-04-14_19h46.58.408,searchDisc4,2020.2.10,Win32,60,,,space,0.069985,2,1,0.55299,,0,307,307,464,1,2c,8,2,9,
,,,,,,,,,,,,,,,,,,,,,,,,,,images/exp2c_trial_59_colour1_distractors19_l.png,l,1,007,001,2021-04-14_19h46.58.408,searchDisc4,2020.2.10,Win32,60,,,space,0.120975,1,1,0.629045,,0,308,308,515,1,2c,59,1,19,
,,,,,,,,,,,,,,,,,,,,,,,,,,images/exp1b_trial_94_colour1_distractors1_l.png,l,1,007,001,2021-04-14_19h46.58.408,searchDisc4,2020.2.10,Win32,60,,,space,0.148505,1,1,0.595145,,0,309,309,208,1,1b,94,1,1,
,,,,,,,,,,,,,,,,,,,,,,,,,,images/exp2a_trial_80_colour1_distractors31_r.png,r,2,007,001,2021-04-14_19h46.58.408,searchDisc4,2020.2.10,Win32,60,,,space,0.0693,2,1,0.695935,,0,310,310,308,1,2a,80,1,31,
,,,,,,,,,,,,,,,,,,,,,,,,,,images/exp1b_trial_85_colour2_distractors19_r.png,r,2,007,001,2021-04-14_19h46.58.408,searchDisc4,2020.2.10,Win32,60,,,space,0.139645,2,1,0.715325,,0,311,311,199,1,1b,85,2,19,
,,,,,,,,,,,,,,,,,,,,,,,,,,images/exp2a_trial_5_colour1_distractors43_r.png,r,2,007,001,2021-04-14_19h46.58.408,searchDisc4,2020.2.10,Win32,60,,,space,0.057535,2,1,1.06208,,0,312,312,233,1,2a,5,1,43,
,,,,,,,,,,,,,,,,,,,,,,,,,,images/exp2a_trial_91_colour3_distractors19_r.png,r,2,007,001,2021-04-14_19h46.58.408,searchDisc4,2020.2.10,Win32,60,,,space,0.08455,2,1,0.539085,,0,313,313,319,1,2a,91,3,19,
,,,,,,,,,,,,,,,,,,,,,,,,,,images/exp2b_trial_44_colour2_distractors1_r.png,r,2,007,001,2021-04-14_19h46.58.408,searchDisc4,2020.2.10,Win32,60,,,space,0.117605,2,1,0.5061,,0,314,314,386,1,2b,44,2,1,
,,,,,,,,,,,,,,,,,,,,,,,,,,images/exp2c_trial_112_colour0_distractors0_r.png,r,2,007,001,2021-04-14_19h46.58.408,searchDisc4,2020.2.10,Win32,60,,,space,0.128865,2,1,0.499785,,0,315,315,568,1,2c,112,0,0,
,,,,,,,,,,,,,,,,,,,,,,,,,,images/exp1b_trial_8_colour2_distractors9_r.png,r,2,007,001,2021-04-14_19h46.58.408,searchDisc4,2020.2.10,Win32,60,,,space,0.13351,2,1,0.493075,,0,316,316,122,1,1b,8,2,9,
,,,,,,,,,,,,,,,,,,,,,,,,,,images/exp1b_trial_64_colour2_distractors9_l.png,l,1,007,001,2021-04-14_19h46.58.408,searchDisc4,2020.2.10,Win32,60,,,space,0.147655,1,1,1.274095,,0,317,317,178,1,1b,64,2,9,
,,,,,,,,,,,,,,,,,,,,,,,,,,images/exp2c_trial_51_colour3_distractors4_r.png,r,2,007,001,2021-04-14_19h46.58.408,searchDisc4,2020.2.10,Win32,60,,,space,0.144985,2,1,0.647235,,0,318,318,507,1,2c,51,3,4,
,,,,,,,,,,,,,,,,,,,,,,,,,,images/exp2a_trial_49_colour2_distractors43_r.png,r,2,007,001,2021-04-14_19h46.58.408,searchDisc4,2020.2.10,Win32,60,,,space,0.11921,2,1,0.57611,,0,319,319,277,1,2a,49,2,43,
,,,,,,,,,,,,,,,,,,,,,,,,,,images/exp2a_trial_7_colour2_distractors4_r.png,r,2,007,001,2021-04-14_19h46.58.408,searchDisc4,2020.2.10,Win32,60,,,space,0.15384,2,1,0.5193,,0,320,320,235,1,2a,7,2,4,
,,,,,,,,,,,,,,,,,,,,,,,,,,images/exp2b_trial_53_colour3_distractors19_r.png,r,2,007,001,2021-04-14_19h46.58.408,searchDisc4,2020.2.10,Win32,60,,,space,0.16661,2,1,0.549425,,0,321,321,395,1,2b,53,3,19,
,,,,,,,,,,,,,,,,,,,,,,,,,,images/exp2c_trial_94_colour1_distractors1_l.png,l,1,007,001,2021-04-14_19h46.58.408,searchDisc4,2020.2.10,Win32,60,,,space,0.12157,1,1,0.631615,,0,322,322,550,1,2c,94,1,1,
,,,,,,,,,,,,,,,,,,,,,,,,,,images/exp2c_trial_61_colour1_distractors43_l.png,l,1,007,001,2021-04-14_19h46.58.408,searchDisc4,2020.2.10,Win32,60,,,space,0.17734,1,1,0.67969,,0,323,323,517,1,2c,61,1,43,
,,,,,,,,,,,,,,,,,,,,,,,,,,images/exp2a_trial_21_colour1_distractors19_l.png,l,1,007,001,2021-04-14_19h46.58.408,searchDisc4,2020.2.10,Win32,60,,,space,0.193725,1,1,0.816055,,0,324,324,249,1,2a,21,1,19,
,,,,,,,,,,,,,,,,,,,,,,,,,,images/exp1a_trial_3_colour1_distractors19_r.png,r,2,007,001,2021-04-14_19h46.58.408,searchDisc4,2020.2.10,Win32,60,,,space,0.189305,2,1,0.60538,,0,325,325,3,1,1a,3,1,19,
,,,,,,,,,,,,,,,,,,,,,,,,,,images/exp1b_trial_89_colour3_distractors4_r.png,r,2,007,001,2021-04-14_19h46.58.408,searchDisc4,2020.2.10,Win32,60,,,space,0.26704,2,1,1.636945,,0,326,326,203,1,1b,89,3,4,
,,,,,,,,,,,,,,,,,,,,,,,,,,images/exp2c_trial_99_colour1_distractors43_l.png,l,1,007,001,2021-04-14_19h46.58.408,searchDisc4,2020.2.10,Win32,60,,,space,0.16401,1,1,0.565315,,0,327,327,555,1,2c,99,1,43,
,,,,,,,,,,,,,,,,,,,,,,,,,,images/exp2b_trial_89_colour3_distractors4_r.png,r,2,007,001,2021-04-14_19h46.58.408,searchDisc4,2020.2.10,Win32,60,,,space,0.116225,2,1,0.56087,,0,328,328,431,1,2b,89,3,4,
,,,,,,,,,,,,,,,,,,,,,,,,,,images/exp1b_trial_100_colour2_distractors1_l.png,l,1,007,001,2021-04-14_19h46.58.408,searchDisc4,2020.2.10,Win32,60,,,space,0.14596,1,1,0.52605,,0,329,329,214,1,1b,100,2,1,
,,,,,,,,,,,,,,,,,,,,,,,,,,images/exp2c_trial_40_colour1_distractors9_r.png,r,2,007,001,2021-04-14_19h46.58.408,searchDisc4,2020.2.10,Win32,60,,,space,0.14844,2,1,0.47203,,0,330,330,496,1,2c,40,1,9,
,,,,,,,,,,,,,,,,,,,,,,,,,,images/exp2c_trial_105_colour2_distractors43_l.png,l,1,007,001,2021-04-14_19h46.58.408,searchDisc4,2020.2.10,Win32,60,,,space,0.166875,1,1,0.747525,,0,331,331,561,1,2c,105,2,43,
,,,,,,,,,,,,,,,,,,,,,,,,,,images/exp1a_trial_45_colour2_distractors4_r.png,r,2,007,001,2021-04-14_19h46.58.408,searchDisc4,2020.2.10,Win32,60,,,space,0.139,2,1,0.69212,,0,332,332,45,1,1a,45,2,4,
,,,,,,,,,,,,,,,,,,,,,,,,,,images/exp1b_trial_36_colour0_distractors0_r.png,r,2,007,001,2021-04-14_19h46.58.408,searchDisc4,2020.2.10,Win32,60,,,space,0.15964,2,1,0.54779,,0,333,333,150,1,1b,36,0,0,
,,,,,,,,,,,,,,,,,,,,,,,,,,images/exp2a_trial_107_colour3_distractors4_l.png,l,1,007,001,2021-04-14_19h46.58.408,searchDisc4,2020.2.10,Win32,60,,,space,0.12565,1,1,0.507485,,0,334,334,335,1,2a,107,3,4,
,,,,,,,,,,,,,,,,,,,,,,,,,,images/exp2c_trial_66_colour2_distractors31_l.png,l,1,007,001,2021-04-14_19h46.58.408,searchDisc4,2020.2.10,Win32,60,,,space,0.185625,1,1,0.640885,,0,335,335,522,1,2c,66,2,31,
,,,,,,,,,,,,,,,,,,,,,,,,,,images/exp1a_trial_72_colour3_distractors31_l.png,l,1,007,001,2021-04-14_19h46.58.408,searchDisc4,2020.2.10,Win32,60,,,space,0.13752,1,1,0.566015,,0,336,336,72,1,1a,72,3,31,
,,,,,,,,,,,,,,,,,,,,,,,,,,images/exp1b_trial_2_colour1_distractors9_r.png,r,2,007,001,2021-04-14_19h46.58.408,searchDisc4,2020.2.10,Win32,60,,,space,0.19731,2,1,0.84195,,0,337,337,116,1,1b,2,1,9,
,,,,,,,,,,,,,,,,,,,,,,,,,,images/exp2c_trial_84_colour2_distractors9_r.png,r,2,007,001,2021-04-14_19h46.58.408,searchDisc4,2020.2.10,Win32,60,,,space,0.16224,2,1,0.720965,,0,338,338,540,1,2c,84,2,9,
,,,,,,,,,,,,,,,,,,,,,,,,,,images/exp1a_trial_90_colour3_distractors9_r.png,r,2,007,001,2021-04-14_19h46.58.408,searchDisc4,2020.2.10,Win32,60,,,space,0.15545,2,1,0.629855,,0,339,339,90,1,1a,90,3,9,
,,,,,,,,,,,,,,,,,,,,,,,,,,images/exp1b_trial_26_colour2_distractors9_l.png,l,1,007,001,2021-04-14_19h46.58.408,searchDisc4,2020.2.10,Win32,60,,,space,0.16215,1,1,0.799605,,0,340,340,140,1,1b,26,2,9,
,,,,,,,,,,,,,,,,,,,,,,,,,,images/exp1a_trial_75_colour0_distractors0_l.png,l,1,007,001,2021-04-14_19h46.58.408,searchDisc4,2020.2.10,Win32,60,,,space,0.120665,1,1,0.669045,,0,341,341,75,1,1a,75,0,0,
,,,,,,,,,,,,,,,,,,,,,,,,,,images/exp2b_trial_4_colour1_distractors31_r.png,r,2,007,001,2021-04-14_19h46.58.408,searchDisc4,2020.2.10,Win32,60,,,space,0.175765,2,1,0.506795,,0,342,342,346,1,2b,4,1,31,
,,,,,,,,,,,,,,,,,,,,,,,,,,images/exp2b_trial_83_colour2_distractors4_r.png,r,2,007,001,2021-04-14_19h46.58.408,searchDisc4,2020.2.10,Win32,60,,,space,0.15394,2,1,0.74285,,0,343,343,425,1,2b,83,2,4,
,,,,,,,,,,,,,,,,,,,,,,,,,,images/exp2a_trial_46_colour2_distractors9_r.png,r,2,007,001,2021-04-14_19h46.58.408,searchDisc4,2020.2.10,Win32,60,,,space,0.111375,2,1,0.585175,,0,344,344,274,1,2a,46,2,9,
,,,,,,,,,,,,,,,,,,,,,,,,,,images/exp2a_trial_111_colour3_distractors43_l.png,l,1,007,001,2021-04-14_19h46.58.408,searchDisc4,2020.2.10,Win32,60,,,space,0.14944,1,1,0.791465,,0,345,345,339,1,2a,111,3,43,
,,,,,,,,,,,,,,,,,,,,,,,,,,images/exp2c_trial_82_colour2_distractors1_r.png,r,2,007,001,2021-04-14_19h46.58.408,searchDisc4,2020.2.10,Win32,60,,,space,0.068685,2,1,0.589175,,0,346,346,538,1,2c,82,2,1,
,,,,,,,,,,,,,,,,,,,,,,,,,,images/exp2a_trial_70_colour3_distractors9_l.png,l,1,007,001,2021-04-14_19h46.58.408,searchDisc4,2020.2.10,Win32,60,,,space,0.014165,1,1,0.62556,,0,347,347,298,1,2a,70,3,9,
,,,,,,,,,,,,,,,,,,,,,,,,,,images/exp2a_trial_28_colour2_distractors31_l.png,l,1,007,001,2021-04-14_19h46.58.408,searchDisc4,2020.2.10,Win32,60,,,space,0.042225,1,1,0.48506,,0,348,348,256,1,2a,28,2,31,
,,,,,,,,,,,,,,,,,,,,,,,,,,images/exp2c_trial_11_colour2_distractors43_r.png,r,2,007,001,2021-04-14_19h46.58.408,searchDisc4,2020.2.10,Win32,60,,,space,0.041405,2,1,0.69361,,0,349,349,467,1,2c,11,2,43,
,,,,,,,,,,,,,,,,,,,,,,,,,,images/exp2b_trial_3_colour1_distractors19_r.png,r,2,007,001,2021-04-14_19h46.58.408,searchDisc4,2020.2.10,Win32,60,,,space,0.051585,2,1,0.861035,,0,350,350,345,1,2b,3,1,19,
,,,,,,,,,,,,,,,,,,,,,,,,,,images/exp1a_trial_88_colour3_distractors1_r.png,r,2,007,001,2021-04-14_19h46.58.408,searchDisc4,2020.2.10,Win32,60,,,space,0.062365,2,1,0.80614,,0,351,351,88,1,1a,88,3,1,
,,,,,,,,,,,,,,,,,,,,,,,,,,images/exp1b_trial_75_colour0_distractors0_l.png,l,1,007,001,2021-04-14_19h46.58.408,searchDisc4,2020.2.10,Win32,60,,,space,0.06237,1,1,0.70074,,0,352,352,189,1,1b,75,0,0,
,,,,,,,,,,,,,,,,,,,,,,,,,,images/exp2b_trial_88_colour3_distractors1_r.png,r,2,007,001,2021-04-14_19h46.58.408,searchDisc4,2020.2.10,Win32,60,,,space,0.10593,2,1,0.618445,,0,353,353,430,1,2b,88,3,1,
,,,,,,,,,,,,,,,,,,,,,,,,,,images/exp2c_trial_17_colour3_distractors43_r.png,r,2,007,001,2021-04-14_19h46.58.408,searchDisc4,2020.2.10,Win32,60,,,space,0.10467,2,1,0.52996,,0,354,354,473,1,2c,17,3,43,
,,,,,,,,,,,,,,,,,,,,,,,,,,images/exp2c_trial_81_colour1_distractors43_r.png,r,2,007,001,2021-04-14_19h46.58.408,searchDisc4,2020.2.10,Win32,60,,,space,0.088485,2,1,0.592745,,0,355,355,537,1,2c,81,1,43,
,,,,,,,,,,,,,,,,,,,,,,,,,,images/exp1b_trial_106_colour3_distractors1_l.png,l,1,007,001,2021-04-14_19h46.58.408,searchDisc4,2020.2.10,Win32,60,,,space,0.09942,1,1,0.926625,,0,356,356,220,1,1b,106,3,1,
,,,,,,,,,,,,,,,,,,,,,,,,,,images/exp1b_trial_108_colour3_distractors9_l.png,l,1,007,001,2021-04-14_19h46.58.408,searchDisc4,2020.2.10,Win32,60,,,space,0.10399,1,1,0.614635,,0,357,357,222,1,1b,108,3,9,
,,,,,,,,,,,,,,,,,,,,,,,,,,images/exp1b_trial_70_colour3_distractors9_l.png,l,1,007,001,2021-04-14_19h46.58.408,searchDisc4,2020.2.10,Win32,60,,,space,0.089175,2,0,0.81278,,0,358,358,184,1,1b,70,3,9,
,,,,,,,,,,,,,,,,,,,,,,,,,,images/exp1a_trial_17_colour3_distractors43_r.png,r,2,007,001,2021-04-14_19h46.58.408,searchDisc4,2020.2.10,Win32,60,,,space,0.508455,2,1,0.499285,space,0,359,359,17,1,1a,17,3,43,0.16979
,,,,,,,,,,,,,,,,,,,,,,,,,,images/exp2b_trial_70_colour3_distractors9_l.png,l,1,007,001,2021-04-14_19h46.58.408,searchDisc4,2020.2.10,Win32,60,,,space,0.88454,1,1,0.75853,,0,360,360,412,1,2b,70,3,9,
,,,,,,,,,,,,,,,,,,,,,,,,,,images/exp1b_trial_76_colour1_distractors1_r.png,r,2,007,001,2021-04-14_19h46.58.408,searchDisc4,2020.2.10,Win32,60,,,space,0.113015,2,1,0.664245,,0,361,361,190,1,1b,76,1,1,
,,,,,,,,,,,,,,,,,,,,,,,,,,images/exp2c_trial_86_colour2_distractors31_r.png,r,2,007,001,2021-04-14_19h46.58.408,searchDisc4,2020.2.10,Win32,60,,,space,0.107135,2,1,0.855265,,0,362,362,542,1,2c,86,2,31,
,,,,,,,,,,,,,,,,,,,,,,,,,,images/exp2b_trial_69_colour3_distractors4_l.png,l,1,007,001,2021-04-14_19h46.58.408,searchDisc4,2020.2.10,Win32,60,,,space,0.049905,1,1,0.839085,,0,363,363,411,1,2b,69,3,4,
,,,,,,,,,,,,,,,,,,,,,,,,,,images/exp2b_trial_46_colour2_distractors9_r.png,r,2,007,001,2021-04-14_19h46.58.408,searchDisc4,2020.2.10,Win32,60,,,space,0.14584,2,1,0.702775,,0,364,364,388,1,2b,46,2,9,
,,,,,,,,,,,,,,,,,,,,,,,,,,images/exp1b_trial_5_colour1_distractors43_r.png,r,2,007,001,2021-04-14_19h46.58.408,searchDisc4,2020.2.10,Win32,60,,,space,0.16742,2,1,0.966035,,0,365,365,119,1,1b,5,1,43,
,,,,,,,,,,,,,,,,,,,,,,,,,,images/exp2b_trial_73_colour3_distractors43_l.png,l,1,007,001,2021-04-14_19h46.58.408,searchDisc4,2020.2.10,Win32,60,,,space,0.181775,1,1,0.90632,,0,366,366,415,1,2b,73,3,43,
,,,,,,,,,,,,,,,,,,,,,,,,,,images/exp1b_trial_88_colour3_distractors1_r.png,r,2,007,001,2021-04-14_19h46.58.408,searchDisc4,2020.2.10,Win32,60,,,space,0.175775,2,1,0.664705,,0,367,367,202,1,1b,88,3,1,
,,,,,,,,,,,,,,,,,,,,,,,,,,images/exp1b_trial_80_colour1_distractors31_r.png,r,2,007,001,2021-04-14_19h46.58.408,searchDisc4,2020.2.10,Win32,60,,,space,0.18893,2,1,0.7717,,0,368,368,194,1,1b,80,1,31,
,,,,,,,,,,,,,,,,,,,,,,,,,,images/exp1b_trial_0_colour1_distractors1_r.png,r,2,007,001,2021-04-14_19h46.58.408,searchDisc4,2020.2.10,Win32,60,,,space,0.167395,2,1,0.748295,,0,369,369,114,1,1b,0,1,1,
,,,,,,,,,,,,,,,,,,,,,,,,,,images/exp2c_trial_2_colour1_distractors9_r.png,r,2,007,001,2021-04-14_19h46.58.408,searchDisc4,2020.2.10,Win32,60,,,space,0.13098,2,1,0.549105,,0,370,370,458,1,2c,2,1,9,
,,,,,,,,,,,,,,,,,,,,,,,,,,images/exp1a_trial_94_colour1_distractors1_l.png,l,1,007,001,2021-04-14_19h46.58.408,searchDisc4,2020.2.10,Win32,60,,,space,0.172765,2,0,0.79195,,0,371,371,94,1,1a,94,1,1,
,,,,,,,,,,,,,,,,,,,,,,,,,,images/exp1b_trial_3_colour1_distractors19_r.png,r,2,007,001,2021-04-14_19h46.58.408,searchDisc4,2020.2.10,Win32,60,,,space,0.0985,2,1,0.78741,,0,372,372,117,1,1b,3,1,19,
,,,,,,,,,,,,,,,,,,,,,,,,,,images/exp1a_trial_18_colour1_distractors1_l.png,l,1,007,001,2021-04-14_19h46.58.408,searchDisc4,2020.2.10,Win32,60,,,space,0.112125,1,1,0.774025,,0,373,373,18,1,1a,18,1,1,
,,,,,,,,,,,,,,,,,,,,,,,,,,images/exp1b_trial_82_colour2_distractors1_r.png,r,2,007,001,2021-04-14_19h46.58.408,searchDisc4,2020.2.10,Win32,60,,,space,0.142335,2,1,0.627035,,0,374,374,196,1,1b,82,2,1,
,,,,,,,,,,,,,,,,,,,,,,,,,,images/exp1a_trial_89_colour3_distractors4_r.png,r,2,007,001,2021-04-14_19h46.58.408,searchDisc4,2020.2.10,Win32,60,,,space,0.145045,2,1,0.531915,,0,375,375,89,1,1a,89,3,4,
,,,,,,,,,,,,,,,,,,,,,,,,,,images/exp2a_trial_19_colour1_distractors4_l.png,l,1,007,001,2021-04-14_19h46.58.408,searchDisc4,2020.2.10,Win32,60,,,space,0.16659,1,1,0.538325,,0,376,376,247,1,2a,19,1,4,
,,,,,,,,,,,,,,,,,,,,,,,,,,images/exp2b_trial_62_colour2_distractors1_l.png,l,1,007,001,2021-04-14_19h46.58.408,searchDisc4,2020.2.10,Win32,60,,,space,0.126555,1,1,0.624335,,0,377,377,404,1,2b,62,2,1,
,,,,,,,,,,,,,,,,,,,,,,,,,,images/exp1b_trial_87_colour2_distractors43_r.png,r,2,007,001,2021-04-14_19h46.58.408,searchDisc4,2020.2.10,Win32,60,,,space,0.07489,2,1,0.554655,,0,378,378,201,1,1b,87,2,43,
,,,,,,,,,,,,,,,,,,,,,,,,,,images/exp1b_trial_55_colour3_distractors43_r.png,r,2,007,001,2021-04-14_19h46.58.408,searchDisc4,2020.2.10,Win32,60,,,space,0.11713,2,1,1.422895,,0,379,379,169,1,1b,55,3,43,
,,,,,,,,,,,,,,,,,,,,,,,,,,images/exp2c_trial_71_colour3_distractors19_l.png,l,1,007,001,2021-04-14_19h46.58.408,searchDisc4,2020.2.10,Win32,60,,,space,0.13556,1,1,0.6036,,0,380,380,527,1,2c,71,3,19,
,,,,,,,,,,,,,,,,,,,,,,,,,,images/exp2b_trial_26_colour2_distractors9_l.png,l,1,007,001,2021-04-14_19h46.58.408,searchDisc4,2020.2.10,Win32,60,,,space,0.121705,1,1,0.628435,,0,381,381,368,1,2b,26,2,9,
,,,,,,,,,,,,,,,,,,,,,,,,,,images/exp2b_trial_42_colour1_distractors31_r.png,r,2,007,001,2021-04-14_19h46.58.408,searchDisc4,2020.2.10,Win32,60,,,space,0.152285,2,1,0.533555,,0,382,382,384,1,2b,42,1,31,
,,,,,,,,,,,,,,,,,,,,,,,,,,images/exp2b_trial_72_colour3_distractors31_l.png,l,1,007,001,2021-04-14_19h46.58.408,searchDisc4,2020.2.10,Win32,60,,,space,0.1368,1,1,1.045895,,0,383,383,414,1,2b,72,3,31,
,,,,,,,,,,,,,,,,,,,,,,,,,,images/exp2c_trial_46_colour2_distractors9_r.png,r,2,007,001,2021-04-14_19h46.58.408,searchDisc4,2020.2.10,Win32,60,,,space,0.28076,2,1,0.584465,,0,384,384,502,1,2c,46,2,9,
,,,,,,,,,,,,,,,,,,,,,,,,,,images/exp2a_trial_113_colour0_distractors0_l.png,l,1,007,001,2021-04-14_19h46.58.408,searchDisc4,2020.2.10,Win32,60,,,space,0.196055,1,1,0.51175,,0,385,385,341,1,2a,113,0,0,
,,,,,,,,,,,,,,,,,,,,,,,,,,images/exp1b_trial_42_colour1_distractors31_r.png,r,2,007,001,2021-04-14_19h46.58.408,searchDisc4,2020.2.10,Win32,60,,,space,0.2263,2,1,0.579155,,0,386,386,156,1,1b,42,1,31,
,,,,,,,,,,,,,,,,,,,,,,,,,,images/exp2b_trial_99_colour1_distractors43_l.png,l,1,007,001,2021-04-14_19h46.58.408,searchDisc4,2020.2.10,Win32,60,,,space,0.20858,1,1,0.555765,,0,387,387,441,1,2b,99,1,43,
,,,,,,,,,,,,,,,,,,,,,,,,,,images/exp2c_trial_80_colour1_distractors31_r.png,r,2,007,001,2021-04-14_19h46.58.408,searchDisc4,2020.2.10,Win32,60,,,space,0.194825,2,1,0.565945,,0,388,388,536,1,2c,80,1,31,
,,,,,,,,,,,,,,,,,,,,,,,,,,images/exp2c_trial_12_colour3_distractors1_r.png,r,2,007,001,2021-04-14_19h46.58.408,searchDisc4,2020.2.10,Win32,60,,,space,0.216735,2,1,0.537625,,0,389,389,468,1,2c,12,3,1,
,,,,,,,,,,,,,,,,,,,,,,,,,,images/exp2c_trial_25_colour2_distractors4_l.png,l,1,007,001,2021-04-14_19h46.58.408,searchDisc4,2020.2.10,Win32,60,,,space,0.255995,1,1,0.553475,,0,390,390,481,1,2c,25,2,4,
,,,,,,,,,,,,,,,,,,,,,,,,,,images/exp1b_trial_10_colour2_distractors31_r.png,r,2,007,001,2021-04-14_19h46.58.408,searchDisc4,2020.2.10,Win32,60,,,space,0.1959,2,1,0.742365,,0,391,391,124,1,1b,10,2,31,
,,,,,,,,,,,,,,,,,,,,,,,,,,images/exp1a_trial_12_colour3_distractors1_r.png,r,2,007,001,2021-04-14_19h46.58.408,searchDisc4,2020.2.10,Win32,60,,,space,0.15349,2,1,0.770095,,0,392,392,12,1,1a,12,3,1,
,,,,,,,,,,,,,,,,,,,,,,,,,,images/exp2c_trial_97_colour1_distractors19_l.png,l,1,007,001,2021-04-14_19h46.58.408,searchDisc4,2020.2.10,Win32,60,,,space,0.11926,1,1,0.66804,,0,393,393,553,1,2c,97,1,19,
,,,,,,,,,,,,,,,,,,,,,,,,,,images/exp1b_trial_57_colour1_distractors4_l.png,l,1,007,001,2021-04-14_19h46.58.408,searchDisc4,2020.2.10,Win32,60,,,space,0.157825,1,1,0.8855,,0,394,394,171,1,1b,57,1,4,
,,,,,,,,,,,,,,,,,,,,,,,,,,images/exp2c_trial_68_colour3_distractors1_l.png,l,1,007,001,2021-04-14_19h46.58.408,searchDisc4,2020.2.10,Win32,60,,,space,0.150615,1,1,0.626735,,0,395,395,524,1,2c,68,3,1,
,,,,,,,,,,,,,,,,,,,,,,,,,,images/exp2c_trial_67_colour2_distractors43_l.png,l,1,007,001,2021-04-14_19h46.58.408,searchDisc4,2020.2.10,Win32,60,,,space,0.18627,1,1,0.917845,,0,396,396,523,1,2c,67,2,43,
,,,,,,,,,,,,,,,,,,,,,,,,,,images/exp2c_trial_3_colour1_distractors19_r.png,r,2,007,001,2021-04-14_19h46.58.408,searchDisc4,2020.2.10,Win32,60,,,space,0.19488,2,1,0.550155,,0,397,397,459,1,2c,3,1,19,
,,,,,,,,,,,,,,,,,,,,,,,,,,images/exp2c_trial_54_colour3_distractors31_r.png,r,2,007,001,2021-04-14_19h46.58.408,searchDisc4,2020.2.10,Win32,60,,,space,0.198325,2,1,0.81977,,0,398,398,510,1,2c,54,3,31,
,,,,,,,,,,,,,,,,,,,,,,,,,,images/exp1a_trial_19_colour1_distractors4_l.png,l,1,007,001,2021-04-14_19h46.58.408,searchDisc4,2020.2.10,Win32,60,,,space,0.24314,1,1,0.604265,,0,399,399,19,1,1a,19,1,4,
,,,,,,,,,,,,,,,,,,,,,,,,,,images/exp1b_trial_22_colour1_distractors31_l.png,l,1,007,001,2021-04-14_19h46.58.408,searchDisc4,2020.2.10,Win32,60,,,space,0.195375,1,1,1.240795,,0,400,400,136,1,1b,22,1,31,
,,,,,,,,,,,,,,,,,,,,,,,,,,images/exp2a_trial_87_colour2_distractors43_r.png,r,2,007,001,2021-04-14_19h46.58.408,searchDisc4,2020.2.10,Win32,60,,,space,0.16326,2,1,0.57368,,0,401,401,315,1,2a,87,2,43,
,,,,,,,,,,,,,,,,,,,,,,,,,,images/exp2c_trial_55_colour3_distractors43_r.png,r,2,007,001,2021-04-14_19h46.58.408,searchDisc4,2020.2.10,Win32,60,,,space,0.22363,2,1,0.613305,,0,402,402,511,1,2c,55,3,43,
,,,,,,,,,,,,,,,,,,,,,,,,,,images/exp2c_trial_36_colour0_distractors0_r.png,r,2,007,001,2021-04-14_19h46.58.408,searchDisc4,2020.2.10,Win32,60,,,space,0.28634,2,1,0.519565,,0,403,403,492,1,2c,36,0,0,
,,,,,,,,,,,,,,,,,,,,,,,,,,images/exp2a_trial_100_colour2_distractors1_l.png,l,1,007,001,2021-04-14_19h46.58.408,searchDisc4,2020.2.10,Win32,60,,,space,0.214355,1,1,0.505365,,0,404,404,328,1,2a,100,2,1,
,,,,,,,,,,,,,,,,,,,,,,,,,,images/exp1b_trial_18_colour1_distractors1_l.png,l,1,007,001,2021-04-14_19h46.58.408,searchDisc4,2020.2.10,Win32,60,,,space,0.20945,1,1,0.55689,,0,405,405,132,1,1b,18,1,1,
,,,,,,,,,,,,,,,,,,,,,,,,,,images/exp1b_trial_24_colour2_distractors1_l.png,l,1,007,001,2021-04-14_19h46.58.408,searchDisc4,2020.2.10,Win32,60,,,space,0.210005,1,1,0.610755,,0,406,406,138,1,1b,24,2,1,
,,,,,,,,,,,,,,,,,,,,,,,,,,images/exp1b_trial_90_colour3_distractors9_r.png,r,2,007,001,2021-04-14_19h46.58.408,searchDisc4,2020.2.10,Win32,60,,,space,0.17648,2,1,0.543895,,0,407,407,204,1,1b,90,3,9,
,,,,,,,,,,,,,,,,,,,,,,,,,,images/exp2b_trial_97_colour1_distractors19_l.png,l,1,007,001,2021-04-14_19h46.58.408,searchDisc4,2020.2.10,Win32,60,,,space,0.20828,1,1,0.58354,,0,408,408,439,1,2b,97,1,19,
,,,,,,,,,,,,,,,,,,,,,,,,,,images/exp1b_trial_97_colour1_distractors19_l.png,l,1,007,001,2021-04-14_19h46.58.408,searchDisc4,2020.2.10,Win32,60,,,space,0.228895,1,1,0.666915,,0,409,409,211,1,1b,97,1,19,
,,,,,,,,,,,,,,,,,,,,,,,,,,images/exp1a_trial_100_colour2_distractors1_l.png,l,1,007,001,2021-04-14_19h46.58.408,searchDisc4,2020.2.10,Win32,60,,,space,0.14898,1,1,0.838325,,0,410,410,100,1,1a,100,2,1,
,,,,,,,,,,,,,,,,,,,,,,,,,,images/exp1a_trial_62_colour2_distractors1_l.png,l,1,007,001,2021-04-14_19h46.58.408,searchDisc4,2020.2.10,Win32,60,,,space,0.187375,1,1,0.570365,,0,411,411,62,1,1a,62,2,1,
,,,,,,,,,,,,,,,,,,,,,,,,,,images/exp1b_trial_38_colour1_distractors1_r.png,r,2,007,001,2021-04-14_19h46.58.408,searchDisc4,2020.2.10,Win32,60,,,space,0.21538,2,1,0.66805,,0,412,412,152,1,1b,38,1,1,
,,,,,,,,,,,,,,,,,,,,,,,,,,images/exp2b_trial_29_colour2_distractors43_l.png,l,1,007,001,2021-04-14_19h46.58.408,searchDisc4,2020.2.10,Win32,60,,,space,0.23683,1,1,0.615865,,0,413,413,371,1,2b,29,2,43,
,,,,,,,,,,,,,,,,,,,,,,,,,,images/exp1a_trial_1_colour1_distractors4_r.png,r,2,007,001,2021-04-14_19h46.58.408,searchDisc4,2020.2.10,Win32,60,,,space,0.239315,2,1,0.53083,,0,414,414,1,1,1a,1,1,4,
,,,,,,,,,,,,,,,,,,,,,,,,,,images/exp1b_trial_37_colour0_distractors0_l.png,l,1,007,001,2021-04-14_19h46.58.408,searchDisc4,2020.2.10,Win32,60,,,space,0.202955,1,1,0.510055,,0,415,415,151,1,1b,37,0,0,
,,,,,,,,,,,,,,,,,,,,,,,,,,images/exp2c_trial_107_colour3_distractors4_l.png,l,1,007,001,2021-04-14_19h46.58.408,searchDisc4,2020.2.10,Win32,60,,,space,0.250475,1,1,0.56902,,0,416,416,563,1,2c,107,3,4,
,,,,,,,,,,,,,,,,,,,,,,,,,,images/exp1b_trial_48_colour2_distractors31_r.png,r,2,007,001,2021-04-14_19h46.58.408,searchDisc4,2020.2.10,Win32,60,,,space,0.20756,2,1,0.575655,,0,417,417,162,1,1b,48,2,31,
,,,,,,,,,,,,,,,,,,,,,,,,,,images/exp1a_trial_54_colour3_distractors31_r.png,r,2,007,001,2021-04-14_19h46.58.408,searchDisc4,2020.2.10,Win32,60,,,space,0.20445,2,1,0.555555,,0,418,418,54,1,1a,54,3,31,
,,,,,,,,,,,,,,,,,,,,,,,,,,images/exp1a_trial_28_colour2_distractors31_l.png,l,1,007,001,2021-04-14_19h46.58.408,searchDisc4,2020.2.10,Win32,60,,,space,0.194965,1,1,0.773715,space,0,419,419,28,1,1a,28,2,31,0.187265
,,,,,,,,,,,,,,,,,,,,,,,,,,images/exp2a_trial_35_colour3_distractors43_l.png,l,1,007,001,2021-04-14_19h46.58.408,searchDisc4,2020.2.10,Win32,60,,,space,2.27338,1,1,0.74841,,0,420,420,263,1,2a,35,3,43,
,,,,,,,,,,,,,,,,,,,,,,,,,,images/exp2a_trial_15_colour3_distractors19_r.png,r,2,007,001,2021-04-14_19h46.58.408,searchDisc4,2020.2.10,Win32,60,,,space,0.292525,2,1,0.450035,,0,421,421,243,1,2a,15,3,19,
,,,,,,,,,,,,,,,,,,,,,,,,,,images/exp2b_trial_25_colour2_distractors4_l.png,l,1,007,001,2021-04-14_19h46.58.408,searchDisc4,2020.2.10,Win32,60,,,space,0.242945,1,1,0.415855,,0,422,422,367,1,2b,25,2,4,
,,,,,,,,,,,,,,,,,,,,,,,,,,images/exp2c_trial_92_colour3_distractors31_r.png,r,2,007,001,2021-04-14_19h46.58.408,searchDisc4,2020.2.10,Win32,60,,,space,0.194795,2,1,0.402225,,0,423,423,548,1,2c,92,3,31,
,,,,,,,,,,,,,,,,,,,,,,,,,,images/exp2b_trial_33_colour3_distractors19_l.png,l,1,007,001,2021-04-14_19h46.58.408,searchDisc4,2020.2.10,Win32,60,,,space,0.224855,1,1,0.849205,,0,424,424,375,1,2b,33,3,19,
,,,,,,,,,,,,,,,,,,,,,,,,,,images/exp2c_trial_50_colour3_distractors1_r.png,r,2,007,001,2021-04-14_19h46.58.408,searchDisc4,2020.2.10,Win32,60,,,space,0.208365,2,1,0.4337,,0,425,425,506,1,2c,50,3,1,
,,,,,,,,,,,,,,,,,,,,,,,,,,images/exp1a_trial_65_colour2_distractors19_l.png,l,1,007,001,2021-04-14_19h46.58.408,searchDisc4,2020.2.10,Win32,60,,,space,0.22232,1,1,0.62264,,0,426,426,65,1,1a,65,2,19,
,,,,,,,,,,,,,,,,,,,,,,,,,,images/exp1a_trial_67_colour2_distractors43_l.png,l,1,007,001,2021-04-14_19h46.58.408,searchDisc4,2020.2.10,Win32,60,,,space,0.228555,1,1,0.7552,,0,427,427,67,1,1a,67,2,43,
,,,,,,,,,,,,,,,,,,,,,,,,,,images/exp2a_trial_42_colour1_distractors31_r.png,r,2,007,001,2021-04-14_19h46.58.408,searchDisc4,2020.2.10,Win32,60,,,space,0.256935,2,1,0.520125,,0,428,428,270,1,2a,42,1,31,
,,,,,,,,,,,,,,,,,,,,,,,,,,images/exp1a_trial_81_colour1_distractors43_r.png,r,2,007,001,2021-04-14_19h46.58.408,searchDisc4,2020.2.10,Win32,60,,,space,0.22466,2,1,0.54103,,0,429,429,81,1,1a,81,1,43,
,,,,,,,,,,,,,,,,,,,,,,,,,,images/exp1b_trial_62_colour2_distractors1_l.png,l,1,007,001,2021-04-14_19h46.58.408,searchDisc4,2020.2.10,Win32,60,,,space,0.27193,1,1,0.53563,,0,430,430,176,1,1b,62,2,1,
,,,,,,,,,,,,,,,,,,,,,,,,,,images/exp2b_trial_5_colour1_distractors43_r.png,r,2,007,001,2021-04-14_19h46.58.408,searchDisc4,2020.2.10,Win32,60,,,space,0.246535,2,1,0.597235,,0,431,431,347,1,2b,5,1,43,
,,,,,,,,,,,,,,,,,,,,,,,,,,images/exp2b_trial_41_colour1_distractors19_r.png,r,2,007,001,2021-04-14_19h46.58.408,searchDisc4,2020.2.10,Win32,60,,,space,0.180965,2,1,0.489425,,0,432,432,383,1,2b,41,1,19,
,,,,,,,,,,,,,,,,,,,,,,,,,,images/exp1a_trial_68_colour3_distractors1_l.png,l,1,007,001,2021-04-14_19h46.58.408,searchDisc4,2020.2.10,Win32,60,,,space,0.22557,1,1,0.43277,,0,433,433,68,1,1a,68,3,1,
,,,,,,,,,,,,,,,,,,,,,,,,,,images/exp1a_trial_47_colour2_distractors19_r.png,r,2,007,001,2021-04-14_19h46.58.408,searchDisc4,2020.2.10,Win32,60,,,space,0.2495,2,1,0.72149,,0,434,434,47,1,1a,47,2,19,
,,,,,,,,,,,,,,,,,,,,,,,,,,images/exp1a_trial_76_colour1_distractors1_r.png,r,2,007,001,2021-04-14_19h46.58.408,searchDisc4,2020.2.10,Win32,60,,,space,0.21586,2,1,0.52249,,0,435,435,76,1,1a,76,1,1,
,,,,,,,,,,,,,,,,,,,,,,,,,,images/exp2a_trial_78_colour1_distractors9_r.png,r,2,007,001,2021-04-14_19h46.58.408,searchDisc4,2020.2.10,Win32,60,,,space,0.24856,2,1,0.60121,,0,436,436,306,1,2a,78,1,9,
,,,,,,,,,,,,,,,,,,,,,,,,,,images/exp2c_trial_42_colour1_distractors31_r.png,r,2,007,001,2021-04-14_19h46.58.408,searchDisc4,2020.2.10,Win32,60,,,space,0.25114,2,1,0.55766,,0,437,437,498,1,2c,42,1,31,
,,,,,,,,,,,,,,,,,,,,,,,,,,images/exp1b_trial_44_colour2_distractors1_r.png,r,2,007,001,2021-04-14_19h46.58.408,searchDisc4,2020.2.10,Win32,60,,,space,0.24973,2,1,0.54508,,0,438,438,158,1,1b,44,2,1,
,,,,,,,,,,,,,,,,,,,,,,,,,,images/exp2a_trial_60_colour1_distractors31_l.png,l,1,007,001,2021-04-14_19h46.58.408,searchDisc4,2020.2.10,Win32,60,,,space,0.18561,1,1,0.67405,,0,439,439,288,1,2a,60,1,31,
,,,,,,,,,,,,,,,,,,,,,,,,,,images/exp1a_trial_101_colour2_distractors4_l.png,l,1,007,001,2021-04-14_19h46.58.408,searchDisc4,2020.2.10,Win32,60,,,space,0.23423,1,1,0.46653,,0,440,440,101,1,1a,101,2,4,
,,,,,,,,,,,,,,,,,,,,,,,,,,images/exp2c_trial_31_colour3_distractors4_l.png,l,1,007,001,2021-04-14_19h46.58.408,searchDisc4,2020.2.10,Win32,60,,,space,0.200815,1,1,0.5626,,0,441,441,487,1,2c,31,3,4,
,,,,,,,,,,,,,,,,,,,,,,,,,,images/exp2c_trial_53_colour3_distractors19_r.png,r,2,007,001,2021-04-14_19h46.58.408,searchDisc4,2020.2.10,Win32,60,,,space,0.185995,2,1,0.499425,,0,442,442,509,1,2c,53,3,19,
,,,,,,,,,,,,,,,,,,,,,,,,,,images/exp2b_trial_48_colour2_distractors31_r.png,r,2,007,001,2021-04-14_19h46.58.408,searchDisc4,2020.2.10,Win32,60,,,space,0.183295,1,0,0.548875,,0,443,443,390,1,2b,48,2,31,
,,,,,,,,,,,,,,,,,,,,,,,,,,images/exp2a_trial_29_colour2_distractors43_l.png,l,1,007,001,2021-04-14_19h46.58.408,searchDisc4,2020.2.10,Win32,60,,,space,0.473035,1,1,0.520785,,0,444,444,257,1,2a,29,2,43,
,,,,,,,,,,,,,,,,,,,,,,,,,,images/exp2b_trial_101_colour2_distractors4_l.png,l,1,007,001,2021-04-14_19h46.58.408,searchDisc4,2020.2.10,Win32,60,,,space,0.21117,1,1,0.80916,,0,445,445,443,1,2b,101,2,4,
,,,,,,,,,,,,,,,,,,,,,,,,,,images/exp1b_trial_4_colour1_distractors31_r.png,r,2,007,001,2021-04-14_19h46.58.408,searchDisc4,2020.2.10,Win32,60,,,space,0.169955,2,1,0.76662,,0,446,446,118,1,1b,4,1,31,
,,,,,,,,,,,,,,,,,,,,,,,,,,images/exp1b_trial_29_colour2_distractors43_l.png,l,1,007,001,2021-04-14_19h46.58.408,searchDisc4,2020.2.10,Win32,60,,,space,0.236065,1,1,0.59806,,0,447,447,143,1,1b,29,2,43,
,,,,,,,,,,,,,,,,,,,,,,,,,,images/exp1a_trial_15_colour3_distractors19_r.png,r,2,007,001,2021-04-14_19h46.58.408,searchDisc4,2020.2.10,Win32,60,,,space,0.22693,2,1,0.549905,,0,448,448,15,1,1a,15,3,19,
,,,,,,,,,,,,,,,,,,,,,,,,,,images/exp1a_trial_105_colour2_distractors43_l.png,l,1,007,001,2021-04-14_19h46.58.408,searchDisc4,2020.2.10,Win32,60,,,space,0.18446,1,1,0.477905,,0,449,449,105,1,1a,105,2,43,
,,,,,,,,,,,,,,,,,,,,,,,,,,images/exp1b_trial_32_colour3_distractors9_l.png,l,1,007,001,2021-04-14_19h46.58.408,searchDisc4,2020.2.10,Win32,60,,,space,0.23723,1,1,1.3637,,0,450,450,146,1,1b,32,3,9,
,,,,,,,,,,,,,,,,,,,,,,,,,,images/exp2a_trial_105_colour2_distractors43_l.png,l,1,007,001,2021-04-14_19h46.58.408,searchDisc4,2020.2.10,Win32,60,,,space,0.208355,1,1,0.621385,,0,451,451,333,1,2a,105,2,43,
,,,,,,,,,,,,,,,,,,,,,,,,,,images/exp2c_trial_26_colour2_distractors9_l.png,l,1,007,001,2021-04-14_19h46.58.408,searchDisc4,2020.2.10,Win32,60,,,space,0.251455,1,1,0.54356,,0,452,452,482,1,2c,26,2,9,
,,,,,,,,,,,,,,,,,,,,,,,,,,images/exp1a_trial_97_colour1_distractors19_l.png,l,1,007,001,2021-04-14_19h46.58.408,searchDisc4,2020.2.10,Win32,60,,,space,0.178915,1,1,0.59689,,0,453,453,97,1,1a,97,1,19,
,,,,,,,,,,,,,,,,,,,,,,,,,,images/exp2b_trial_21_colour1_distractors19_l.png,l,1,007,001,2021-04-14_19h46.58.408,searchDisc4,2020.2.10,Win32,60,,,space,0.167355,1,1,0.660525,,0,454,454,363,1,2b,21,1,19,
,,,,,,,,,,,,,,,,,,,,,,,,,,images/exp1a_trial_80_colour1_distractors31_r.png,r,2,007,001,2021-04-14_19h46.58.408,searchDisc4,2020.2.10,Win32,60,,,space,0.17256,2,1,0.466205,,0,455,455,80,1,1a,80,1,31,
,,,,,,,,,,,,,,,,,,,,,,,,,,images/exp1a_trial_69_colour3_distractors4_l.png,l,1,007,001,2021-04-14_19h46.58.408,searchDisc4,2020.2.10,Win32,60,,,space,0.173355,1,1,0.493965,,0,456,456,69,1,1a,69,3,4,
,,,,,,,,,,,,,,,,,,,,,,,,,,images/exp1b_trial_109_colour3_distractors19_l.png,l,1,007,001,2021-04-14_19h46.58.408,searchDisc4,2020.2.10,Win32,60,,,space,0.234305,1,1,0.775675,,0,457,457,223,1,1b,109,3,19,
,,,,,,,,,,,,,,,,,,,,,,,,,,images/exp2a_trial_33_colour3_distractors19_l.png,l,1,007,001,2021-04-14_19h46.58.408,searchDisc4,2020.2.10,Win32,60,,,space,0.21431,1,1,0.63935,,0,458,458,261,1,2a,33,3,19,
,,,,,,,,,,,,,,,,,,,,,,,,,,images/exp1a_trial_55_colour3_distractors43_r.png,r,2,007,001,2021-04-14_19h46.58.408,searchDisc4,2020.2.10,Win32,60,,,space,0.250455,2,1,0.588585,,0,459,459,55,1,1a,55,3,43,
,,,,,,,,,,,,,,,,,,,,,,,,,,images/exp1a_trial_61_colour1_distractors43_l.png,l,1,007,001,2021-04-14_19h46.58.408,searchDisc4,2020.2.10,Win32,60,,,space,0.16707,1,1,0.66337,,0,460,460,61,1,1a,61,1,43,
,,,,,,,,,,,,,,,,,,,,,,,,,,images/exp1a_trial_78_colour1_distractors9_r.png,r,2,007,001,2021-04-14_19h46.58.408,searchDisc4,2020.2.10,Win32,60,,,space,0.26745,2,1,0.47824,,0,461,461,78,1,1a,78,1,9,
,,,,,,,,,,,,,,,,,,,,,,,,,,images/exp2c_trial_49_colour2_distractors43_r.png,r,2,007,001,2021-04-14_19h46.58.408,searchDisc4,2020.2.10,Win32,60,,,space,0.16558,2,1,0.60049,,0,462,462,505,1,2c,49,2,43,
,,,,,,,,,,,,,,,,,,,,,,,,,,images/exp2b_trial_112_colour0_distractors0_r.png,r,2,007,001,2021-04-14_19h46.58.408,searchDisc4,2020.2.10,Win32,60,,,space,0.242635,2,1,0.495015,,0,463,463,454,1,2b,112,0,0,
,,,,,,,,,,,,,,,,,,,,,,,,,,images/exp1b_trial_47_colour2_distractors19_r.png,r,2,007,001,2021-04-14_19h46.58.408,searchDisc4,2020.2.10,Win32,60,,,space,0.18635,2,1,1.071225,,0,464,464,161,1,1b,47,2,19,
,,,,,,,,,,,,,,,,,,,,,,,,,,images/exp2c_trial_5_colour1_distractors43_r.png,r,2,007,001,2021-04-14_19h46.58.408,searchDisc4,2020.2.10,Win32,60,,,space,0.12108,2,1,0.64962,,0,465,465,461,1,2c,5,1,43,
,,,,,,,,,,,,,,,,,,,,,,,,,,images/exp1b_trial_112_colour0_distractors0_r.png,r,2,007,001,2021-04-14_19h46.58.408,searchDisc4,2020.2.10,Win32,60,,,space,0.139655,2,1,0.50562,,0,466,466,226,1,1b,112,0,0,
,,,,,,,,,,,,,,,,,,,,,,,,,,images/exp1b_trial_17_colour3_distractors43_r.png,r,2,007,001,2021-04-14_19h46.58.408,searchDisc4,2020.2.10,Win32,60,,,space,0.11734,2,1,4.20864,,0,467,467,131,1,1b,17,3,43,
,,,,,,,,,,,,,,,,,,,,,,,,,,images/exp2c_trial_65_colour2_distractors19_l.png,l,1,007,001,2021-04-14_19h46.58.408,searchDisc4,2020.2.10,Win32,60,,,space,0.160265,1,1,0.668535,,0,468,468,521,1,2c,65,2,19,
,,,,,,,,,,,,,,,,,,,,,,,,,,images/exp1b_trial_1_colour1_distractors4_r.png,r,2,007,001,2021-04-14_19h46.58.408,searchDisc4,2020.2.10,Win32,60,,,space,0.172455,2,1,0.64543,,0,469,469,115,1,1b,1,1,4,
,,,,,,,,,,,,,,,,,,,,,,,,,,images/exp2a_trial_9_colour2_distractors19_r.png,r,2,007,001,2021-04-14_19h46.58.408,searchDisc4,2020.2.10,Win32,60,,,space,0.088465,2,1,0.472675,,0,470,470,237,1,2a,9,2,19,
,,,,,,,,,,,,,,,,,,,,,,,,,,images/exp1b_trial_91_colour3_distractors19_r.png,r,2,007,001,2021-04-14_19h46.58.408,searchDisc4,2020.2.10,Win32,60,,,space,0.11493,2,1,1.77222,,0,471,471,205,1,1b,91,3,19,
,,,,,,,,,,,,,,,,,,,,,,,,,,images/exp2a_trial_92_colour3_distractors31_r.png,r,2,007,001,2021-04-14_19h46.58.408,searchDisc4,2020.2.10,Win32,60,,,space,0.152495,2,1,0.547495,,0,472,472,320,1,2a,92,3,31,
,,,,,,,,,,,,,,,,,,,,,,,,,,images/exp2b_trial_71_colour3_distractors19_l.png,l,1,007,001,2021-04-14_19h46.58.408,searchDisc4,2020.2.10,Win32,60,,,space,0.137965,1,1,0.5958,,0,473,473,413,1,2b,71,3,19,
,,,,,,,,,,,,,,,,,,,,,,,,,,images/exp1a_trial_63_colour2_distractors4_l.png,l,1,007,001,2021-04-14_19h46.58.408,searchDisc4,2020.2.10,Win32,60,,,space,0.173665,2,0,0.78628,,0,474,474,63,1,1a,63,2,4,
,,,,,,,,,,,,,,,,,,,,,,,,,,images/exp1a_trial_64_colour2_distractors9_l.png,l,1,007,001,2021-04-14_19h46.58.408,searchDisc4,2020.2.10,Win32,60,,,space,0.173625,1,1,0.763075,,0,475,475,64,1,1a,64,2,9,
,,,,,,,,,,,,,,,,,,,,,,,,,,images/exp2a_trial_90_colour3_distractors9_r.png,r,2,007,001,2021-04-14_19h46.58.408,searchDisc4,2020.2.10,Win32,60,,,space,0.158745,2,1,0.54592,,0,476,476,318,1,2a,90,3,9,
