X Scale,Y Scale,key_resp_10.keys,key_resp_10.rt,key_resp_11.keys,key_resp_11.rt,key_resp_12.keys,key_resp_12.rt,key_resp_13.keys,key_resp_13.rt,key_resp_5.keys,key_resp_5.rt,key_resp_8.keys,key_resp_8.rt,key_resp_6.keys,key_resp_6.rt,key_resp_7.keys,key_resp_7.rt,key_resp_4.keys,key_resp_4.corr,trials_2.thisRepN,trials_2.thisTrialN,trials_2.thisN,trials_2.thisIndex,trials_2.ran,ImageFile,targ_side,correctAnswer,participant,session,date,expName,psychopyVersion,OS,frameRate,key_resp_4.rt,key_resp_3.keys,key_resp_3.rt,key_resp_9.keys,key_resp_9.rt,key_resp_2.keys,key_resp_2.corr,key_resp_2.rt,key_resp.keys,trials.thisRepN,trials.thisTrialN,trials.thisN,trials.thisIndex,trials.ran,exp,trial,colour,distNo,key_resp.rt
22.9,22.4,space,8.14097,space,48.36139,space,31.0872,space,6.208165,space,12.079195,space,15.00785,space,12.875435,space,4.069225,,0,0,0,0,14,1,Practice arrays/exp1a_trial_29_colour2_distractors43_l.png,l,1,008,001,2021-04-14_18h50.07.767,searchDisc4,2020.2.10,Win32,60,,,,,,,,,,,,,,,,,,,
,,,,,,,,,,,,,,,,space,2.447955,2,1,0,1,1,0,1,Practice arrays/exp1a_trial_0_colour1_distractors1_r.png,r,2,008,001,2021-04-14_18h50.07.767,searchDisc4,2020.2.10,Win32,60,1.306985,,,,,,,,,,,,,,,,,,
,,,,,,,,,,,,,,,,space,0.71751,1,1,0,2,2,10,1,Practice arrays/exp1a_trial_20_colour1_distractors9_l.png,l,1,008,001,2021-04-14_18h50.07.767,searchDisc4,2020.2.10,Win32,60,1.008095,,,,,,,,,,,,,,,,,,
,,,,,,,,,,,,,,,,space,0.352015,1,1,0,3,3,9,1,Practice arrays/exp1a_trial_19_colour1_distractors4_l.png,l,1,008,001,2021-04-14_18h50.07.767,searchDisc4,2020.2.10,Win32,60,0.804965,,,,,,,,,,,,,,,,,,
,,,,,,,,,,,,,,,,space,0.441505,1,1,0,4,4,11,1,Practice arrays/exp1a_trial_21_colour1_distractors19_l.png,l,1,008,001,2021-04-14_18h50.07.767,searchDisc4,2020.2.10,Win32,60,1.377985,,,,,,,,,,,,,,,,,,
,,,,,,,,,,,,,,,,space,0.13584,2,1,0,5,5,5,1,Practice arrays/exp1a_trial_10_colour2_distractors31_r.png,r,2,008,001,2021-04-14_18h50.07.767,searchDisc4,2020.2.10,Win32,60,1.319385,,,,,,,,,,,,,,,,,,
,,,,,,,,,,,,,,,,space,0.405395,1,1,0,6,6,12,1,Practice arrays/exp1a_trial_25_colour2_distractors4_l.png,l,1,008,001,2021-04-14_18h50.07.767,searchDisc4,2020.2.10,Win32,60,0.794105,,,,,,,,,,,,,,,,,,
,,,,,,,,,,,,,,,,space,0.39795,2,1,0,7,7,8,1,Practice arrays/exp1a_trial_16_colour3_distractors31_r.png,r,2,008,001,2021-04-14_18h50.07.767,searchDisc4,2020.2.10,Win32,60,1.260255,,,,,,,,,,,,,,,,,,
,,,,,,,,,,,,,,,,space,0.357165,1,1,0,8,8,15,1,Practice arrays/exp1a_trial_32_colour3_distractors9_l.png,l,1,008,001,2021-04-14_18h50.07.767,searchDisc4,2020.2.10,Win32,60,0.76065,,,,,,,,,,,,,,,,,,
,,,,,,,,,,,,,,,,space,0.314635,2,1,0,9,9,6,1,Practice arrays/exp1a_trial_12_colour3_distractors1_r.png,r,2,008,001,2021-04-14_18h50.07.767,searchDisc4,2020.2.10,Win32,60,0.82342,,,,,,,,,,,,,,,,,,
,,,,,,,,,,,,,,,,space,0.386575,2,1,0,10,10,4,1,Practice arrays/exp1a_trial_8_colour2_distractors9_r.png,r,2,008,001,2021-04-14_18h50.07.767,searchDisc4,2020.2.10,Win32,60,0.824385,,,,,,,,,,,,,,,,,,
,,,,,,,,,,,,,,,,space,0.27444,2,1,0,11,11,3,1,Practice arrays/exp1a_trial_7_colour2_distractors4_r.png,r,2,008,001,2021-04-14_18h50.07.767,searchDisc4,2020.2.10,Win32,60,0.85905,,,,,,,,,,,,,,,,,,
,,,,,,,,,,,,,,,,space,0.15307,1,1,0,12,12,17,1,Practice arrays/exp1a_trial_35_colour3_distractors43_l.png,l,1,008,001,2021-04-14_18h50.07.767,searchDisc4,2020.2.10,Win32,60,0.863455,,,,,,,,,,,,,,,,,,
,,,,,,,,,,,,,,,,space,0.430475,1,1,0,13,13,13,1,Practice arrays/exp1a_trial_28_colour2_distractors31_l.png,l,1,008,001,2021-04-14_18h50.07.767,searchDisc4,2020.2.10,Win32,60,0.68104,,,,,,,,,,,,,,,,,,
,,,,,,,,,,,,,,,,space,0.74526,2,1,0,14,14,1,1,Practice arrays/exp1a_trial_3_colour1_distractors19_r.png,r,2,008,001,2021-04-14_18h50.07.767,searchDisc4,2020.2.10,Win32,60,0.741585,,,,,,,,,,,,,,,,,,
,,,,,,,,,,,,,,,,space,0.43839,1,1,0,15,15,16,1,Practice arrays/exp1a_trial_33_colour3_distractors19_l.png,l,1,008,001,2021-04-14_18h50.07.767,searchDisc4,2020.2.10,Win32,60,0.655395,,,,,,,,,,,,,,,,,,
,,,,,,,,,,,,,,,,space,0.072265,2,1,0,16,16,18,1,Practice arrays/exp1a_trial_36_colour0_distractors0_r.png,r,2,008,001,2021-04-14_18h50.07.767,searchDisc4,2020.2.10,Win32,60,0.831465,,,,,,,,,,,,,,,,,,
,,,,,,,,,,,,,,,,space,0.404645,2,1,0,17,17,2,1,Practice arrays/exp1a_trial_5_colour1_distractors43_r.png,r,2,008,001,2021-04-14_18h50.07.767,searchDisc4,2020.2.10,Win32,60,0.779055,,,,,,,,,,,,,,,,,,
,,,,,,,,,,,,,,,,space,0.29888,2,1,0,18,18,7,1,Practice arrays/exp1a_trial_13_colour3_distractors4_r.png,r,2,008,001,2021-04-14_18h50.07.767,searchDisc4,2020.2.10,Win32,60,0.59514,,,,,,,,,,,,,,,,,,
,,,,,,,,,,,,,,,,space,0.27902,1,1,0,19,19,19,1,Practice arrays/exp1a_trial_37_colour0_distractors0_l.png,l,1,008,001,2021-04-14_18h50.07.767,searchDisc4,2020.2.10,Win32,60,0.642675,,,,,,,,,,,,,,,,,,
,,,,,,,,,,,,,,,,,,,,,,,,,images/exp1a_trial_85_colour2_distractors19_r.png,r,2,008,001,2021-04-14_18h50.07.767,searchDisc4,2020.2.10,Win32,60,,space,7.617935,space,0.67295,2,1,2.545165,,0,0,0,85,1,1a,85,2,19,
,,,,,,,,,,,,,,,,,,,,,,,,,images/exp1a_trial_109_colour3_distractors19_l.png,l,1,008,001,2021-04-14_18h50.07.767,searchDisc4,2020.2.10,Win32,60,,,,space,1.041895,1,1,1.244015,,0,1,1,109,1,1a,109,3,19,
,,,,,,,,,,,,,,,,,,,,,,,,,images/exp2c_trial_109_colour3_distractors19_l.png,l,1,008,001,2021-04-14_18h50.07.767,searchDisc4,2020.2.10,Win32,60,,,,space,0.715965,1,1,1.11428,,0,2,2,565,1,2c,109,3,19,
,,,,,,,,,,,,,,,,,,,,,,,,,images/exp2b_trial_9_colour2_distractors19_r.png,r,2,008,001,2021-04-14_18h50.07.767,searchDisc4,2020.2.10,Win32,60,,,,space,0.766165,2,1,1.082925,,0,3,3,351,1,2b,9,2,19,
,,,,,,,,,,,,,,,,,,,,,,,,,images/exp1b_trial_38_colour1_distractors1_r.png,r,2,008,001,2021-04-14_18h50.07.767,searchDisc4,2020.2.10,Win32,60,,,,space,0.723335,2,1,1.911575,,0,4,4,152,1,1b,38,1,1,
,,,,,,,,,,,,,,,,,,,,,,,,,images/exp1a_trial_106_colour3_distractors1_l.png,l,1,008,001,2021-04-14_18h50.07.767,searchDisc4,2020.2.10,Win32,60,,,,space,0.72774,1,1,1.04983,,0,5,5,106,1,1a,106,3,1,
,,,,,,,,,,,,,,,,,,,,,,,,,images/exp2a_trial_96_colour1_distractors9_l.png,l,1,008,001,2021-04-14_18h50.07.767,searchDisc4,2020.2.10,Win32,60,,,,space,0.663875,1,1,1.073545,,0,6,6,324,1,2a,96,1,9,
,,,,,,,,,,,,,,,,,,,,,,,,,images/exp2a_trial_108_colour3_distractors9_l.png,l,1,008,001,2021-04-14_18h50.07.767,searchDisc4,2020.2.10,Win32,60,,,,space,0.59621,1,1,1.30622,,0,7,7,336,1,2a,108,3,9,
,,,,,,,,,,,,,,,,,,,,,,,,,images/exp1a_trial_26_colour2_distractors9_l.png,l,1,008,001,2021-04-14_18h50.07.767,searchDisc4,2020.2.10,Win32,60,,,,space,0.472465,1,1,0.933945,,0,8,8,26,1,1a,26,2,9,
,,,,,,,,,,,,,,,,,,,,,,,,,images/exp2c_trial_9_colour2_distractors19_r.png,r,2,008,001,2021-04-14_18h50.07.767,searchDisc4,2020.2.10,Win32,60,,,,space,0.514975,2,1,1.282655,,0,9,9,465,1,2c,9,2,19,
,,,,,,,,,,,,,,,,,,,,,,,,,images/exp2c_trial_32_colour3_distractors9_l.png,l,1,008,001,2021-04-14_18h50.07.767,searchDisc4,2020.2.10,Win32,60,,,,space,0.5097,1,1,0.80004,,0,10,10,488,1,2c,32,3,9,
,,,,,,,,,,,,,,,,,,,,,,,,,images/exp2b_trial_33_colour3_distractors19_l.png,l,1,008,001,2021-04-14_18h50.07.767,searchDisc4,2020.2.10,Win32,60,,,,space,0.45563,1,1,0.68405,,0,11,11,375,1,2b,33,3,19,
,,,,,,,,,,,,,,,,,,,,,,,,,images/exp2a_trial_102_colour2_distractors9_l.png,l,1,008,001,2021-04-14_18h50.07.767,searchDisc4,2020.2.10,Win32,60,,,,space,0.34954,1,1,0.575085,,0,12,12,330,1,2a,102,2,9,
,,,,,,,,,,,,,,,,,,,,,,,,,images/exp2b_trial_77_colour1_distractors4_r.png,r,2,008,001,2021-04-14_18h50.07.767,searchDisc4,2020.2.10,Win32,60,,,,space,0.338085,2,1,0.625555,,0,13,13,419,1,2b,77,1,4,
,,,,,,,,,,,,,,,,,,,,,,,,,images/exp2c_trial_10_colour2_distractors31_r.png,r,2,008,001,2021-04-14_18h50.07.767,searchDisc4,2020.2.10,Win32,60,,,,space,0.29759,2,1,1.63206,,0,14,14,466,1,2c,10,2,31,
,,,,,,,,,,,,,,,,,,,,,,,,,images/exp2c_trial_16_colour3_distractors31_r.png,r,2,008,001,2021-04-14_18h50.07.767,searchDisc4,2020.2.10,Win32,60,,,,space,0.277,2,1,1.14432,,0,15,15,472,1,2c,16,3,31,
,,,,,,,,,,,,,,,,,,,,,,,,,images/exp1a_trial_22_colour1_distractors31_l.png,l,1,008,001,2021-04-14_18h50.07.767,searchDisc4,2020.2.10,Win32,60,,,,space,0.27007,1,1,0.762295,,0,16,16,22,1,1a,22,1,31,
,,,,,,,,,,,,,,,,,,,,,,,,,images/exp2b_trial_27_colour2_distractors19_l.png,l,1,008,001,2021-04-14_18h50.07.767,searchDisc4,2020.2.10,Win32,60,,,,space,0.268155,1,1,0.909865,,0,17,17,369,1,2b,27,2,19,
,,,,,,,,,,,,,,,,,,,,,,,,,images/exp2a_trial_32_colour3_distractors9_l.png,l,1,008,001,2021-04-14_18h50.07.767,searchDisc4,2020.2.10,Win32,60,,,,space,0.337605,1,1,0.88141,,0,18,18,260,1,2a,32,3,9,
,,,,,,,,,,,,,,,,,,,,,,,,,images/exp1b_trial_100_colour2_distractors1_l.png,l,1,008,001,2021-04-14_18h50.07.767,searchDisc4,2020.2.10,Win32,60,,,,space,0.350575,1,1,1.06614,,0,19,19,214,1,1b,100,2,1,
,,,,,,,,,,,,,,,,,,,,,,,,,images/exp2b_trial_111_colour3_distractors43_l.png,l,1,008,001,2021-04-14_18h50.07.767,searchDisc4,2020.2.10,Win32,60,,,,space,0.28329,1,1,0.876565,,0,20,20,453,1,2b,111,3,43,
,,,,,,,,,,,,,,,,,,,,,,,,,images/exp2c_trial_26_colour2_distractors9_l.png,l,1,008,001,2021-04-14_18h50.07.767,searchDisc4,2020.2.10,Win32,60,,,,space,0.25439,1,1,0.88575,,0,21,21,482,1,2c,26,2,9,
,,,,,,,,,,,,,,,,,,,,,,,,,images/exp2c_trial_54_colour3_distractors31_r.png,r,2,008,001,2021-04-14_18h50.07.767,searchDisc4,2020.2.10,Win32,60,,,,space,0.234525,2,1,0.757935,,0,22,22,510,1,2c,54,3,31,
,,,,,,,,,,,,,,,,,,,,,,,,,images/exp1b_trial_33_colour3_distractors19_l.png,l,1,008,001,2021-04-14_18h50.07.767,searchDisc4,2020.2.10,Win32,60,,,,space,0.213085,1,1,2.22351,,0,23,23,147,1,1b,33,3,19,
,,,,,,,,,,,,,,,,,,,,,,,,,images/exp1a_trial_87_colour2_distractors43_r.png,r,2,008,001,2021-04-14_18h50.07.767,searchDisc4,2020.2.10,Win32,60,,,,space,0.201265,2,1,2.21127,,0,24,24,87,1,1a,87,2,43,
,,,,,,,,,,,,,,,,,,,,,,,,,images/exp2b_trial_68_colour3_distractors1_l.png,l,1,008,001,2021-04-14_18h50.07.767,searchDisc4,2020.2.10,Win32,60,,,,space,0.21544,1,1,0.90988,,0,25,25,410,1,2b,68,3,1,
,,,,,,,,,,,,,,,,,,,,,,,,,images/exp2c_trial_19_colour1_distractors4_l.png,l,1,008,001,2021-04-14_18h50.07.767,searchDisc4,2020.2.10,Win32,60,,,,space,0.209955,1,1,0.85402,,0,26,26,475,1,2c,19,1,4,
,,,,,,,,,,,,,,,,,,,,,,,,,images/exp2c_trial_8_colour2_distractors9_r.png,r,2,008,001,2021-04-14_18h50.07.767,searchDisc4,2020.2.10,Win32,60,,,,space,0.225565,2,1,0.766055,,0,27,27,464,1,2c,8,2,9,
,,,,,,,,,,,,,,,,,,,,,,,,,images/exp2c_trial_85_colour2_distractors19_r.png,r,2,008,001,2021-04-14_18h50.07.767,searchDisc4,2020.2.10,Win32,60,,,,space,0.219545,2,1,2.26614,,0,28,28,541,1,2c,85,2,19,
,,,,,,,,,,,,,,,,,,,,,,,,,images/exp1a_trial_35_colour3_distractors43_l.png,l,1,008,001,2021-04-14_18h50.07.767,searchDisc4,2020.2.10,Win32,60,,,,space,0.193355,1,1,1.071065,,0,29,29,35,1,1a,35,3,43,
,,,,,,,,,,,,,,,,,,,,,,,,,images/exp1b_trial_32_colour3_distractors9_l.png,l,1,008,001,2021-04-14_18h50.07.767,searchDisc4,2020.2.10,Win32,60,,,,space,0.56976,1,1,1.58475,,0,30,30,146,1,1b,32,3,9,
,,,,,,,,,,,,,,,,,,,,,,,,,images/exp1a_trial_60_colour1_distractors31_l.png,l,1,008,001,2021-04-14_18h50.07.767,searchDisc4,2020.2.10,Win32,60,,,,space,0.240205,1,1,0.65291,,0,31,31,60,1,1a,60,1,31,
,,,,,,,,,,,,,,,,,,,,,,,,,images/exp2a_trial_66_colour2_distractors31_l.png,l,1,008,001,2021-04-14_18h50.07.767,searchDisc4,2020.2.10,Win32,60,,,,space,0.191695,1,1,0.972655,,0,32,32,294,1,2a,66,2,31,
,,,,,,,,,,,,,,,,,,,,,,,,,images/exp2c_trial_4_colour1_distractors31_r.png,r,2,008,001,2021-04-14_18h50.07.767,searchDisc4,2020.2.10,Win32,60,,,,space,0.16719,2,1,0.76285,,0,33,33,460,1,2c,4,1,31,
,,,,,,,,,,,,,,,,,,,,,,,,,images/exp2b_trial_30_colour3_distractors1_l.png,l,1,008,001,2021-04-14_18h50.07.767,searchDisc4,2020.2.10,Win32,60,,,,space,0.175245,2,0,0.92263,,0,34,34,372,1,2b,30,3,1,
,,,,,,,,,,,,,,,,,,,,,,,,,images/exp1a_trial_23_colour1_distractors43_l.png,l,1,008,001,2021-04-14_18h50.07.767,searchDisc4,2020.2.10,Win32,60,,,,space,1.66994,1,1,1.495585,,0,35,35,23,1,1a,23,1,43,
,,,,,,,,,,,,,,,,,,,,,,,,,images/exp2b_trial_80_colour1_distractors31_r.png,r,2,008,001,2021-04-14_18h50.07.767,searchDisc4,2020.2.10,Win32,60,,,,space,0.398415,2,1,1.18033,,0,36,36,422,1,2b,80,1,31,
,,,,,,,,,,,,,,,,,,,,,,,,,images/exp2b_trial_106_colour3_distractors1_l.png,l,1,008,001,2021-04-14_18h50.07.767,searchDisc4,2020.2.10,Win32,60,,,,space,0.25796,1,1,0.881605,,0,37,37,448,1,2b,106,3,1,
,,,,,,,,,,,,,,,,,,,,,,,,,images/exp1a_trial_31_colour3_distractors4_l.png,l,1,008,001,2021-04-14_18h50.07.767,searchDisc4,2020.2.10,Win32,60,,,,space,0.23479,1,1,1.03121,,0,38,38,31,1,1a,31,3,4,
,,,,,,,,,,,,,,,,,,,,,,,,,images/exp2a_trial_83_colour2_distractors4_r.png,r,2,008,001,2021-04-14_18h50.07.767,searchDisc4,2020.2.10,Win32,60,,,,space,0.339155,2,1,2.229815,,0,39,39,311,1,2a,83,2,4,
,,,,,,,,,,,,,,,,,,,,,,,,,images/exp1b_trial_4_colour1_distractors31_r.png,r,2,008,001,2021-04-14_18h50.07.767,searchDisc4,2020.2.10,Win32,60,,,,space,1.108505,2,1,2.40211,,0,40,40,118,1,1b,4,1,31,
,,,,,,,,,,,,,,,,,,,,,,,,,images/exp2c_trial_11_colour2_distractors43_r.png,r,2,008,001,2021-04-14_18h50.07.767,searchDisc4,2020.2.10,Win32,60,,,,space,0.194945,2,1,1.572655,,0,41,41,467,1,2c,11,2,43,
,,,,,,,,,,,,,,,,,,,,,,,,,images/exp2a_trial_59_colour1_distractors19_l.png,l,1,008,001,2021-04-14_18h50.07.767,searchDisc4,2020.2.10,Win32,60,,,,space,0.227525,1,1,0.895085,,0,42,42,287,1,2a,59,1,19,
,,,,,,,,,,,,,,,,,,,,,,,,,images/exp1a_trial_59_colour1_distractors19_l.png,l,1,008,001,2021-04-14_18h50.07.767,searchDisc4,2020.2.10,Win32,60,,,,space,0.17663,1,1,1.03564,,0,43,43,59,1,1a,59,1,19,
,,,,,,,,,,,,,,,,,,,,,,,,,images/exp1b_trial_69_colour3_distractors4_l.png,l,1,008,001,2021-04-14_18h50.07.767,searchDisc4,2020.2.10,Win32,60,,,,space,0.16384,1,1,1.07921,,0,44,44,183,1,1b,69,3,4,
,,,,,,,,,,,,,,,,,,,,,,,,,images/exp2b_trial_74_colour0_distractors0_r.png,r,2,008,001,2021-04-14_18h50.07.767,searchDisc4,2020.2.10,Win32,60,,,,space,0.19793,2,1,0.880555,,0,45,45,416,1,2b,74,0,0,
,,,,,,,,,,,,,,,,,,,,,,,,,images/exp2c_trial_95_colour1_distractors4_l.png,l,1,008,001,2021-04-14_18h50.07.767,searchDisc4,2020.2.10,Win32,60,,,,space,0.158945,1,1,0.811305,,0,46,46,551,1,2c,95,1,4,
,,,,,,,,,,,,,,,,,,,,,,,,,images/exp1a_trial_73_colour3_distractors43_l.png,l,1,008,001,2021-04-14_18h50.07.767,searchDisc4,2020.2.10,Win32,60,,,,space,0.195775,1,1,0.77875,,0,47,47,73,1,1a,73,3,43,
,,,,,,,,,,,,,,,,,,,,,,,,,images/exp1a_trial_5_colour1_distractors43_r.png,r,2,008,001,2021-04-14_18h50.07.767,searchDisc4,2020.2.10,Win32,60,,,,space,0.20782,2,1,0.785295,,0,48,48,5,1,1a,5,1,43,
,,,,,,,,,,,,,,,,,,,,,,,,,images/exp1a_trial_111_colour3_distractors43_l.png,l,1,008,001,2021-04-14_18h50.07.767,searchDisc4,2020.2.10,Win32,60,,,,space,0.202185,1,1,0.7983,,0,49,49,111,1,1a,111,3,43,
,,,,,,,,,,,,,,,,,,,,,,,,,images/exp2b_trial_66_colour2_distractors31_l.png,l,1,008,001,2021-04-14_18h50.07.767,searchDisc4,2020.2.10,Win32,60,,,,space,0.21121,1,1,0.731385,,0,50,50,408,1,2b,66,2,31,
,,,,,,,,,,,,,,,,,,,,,,,,,images/exp2a_trial_50_colour3_distractors1_r.png,r,2,008,001,2021-04-14_18h50.07.767,searchDisc4,2020.2.10,Win32,60,,,,space,0.22509,2,1,0.886395,,0,51,51,278,1,2a,50,3,1,
,,,,,,,,,,,,,,,,,,,,,,,,,images/exp2c_trial_48_colour2_distractors31_r.png,r,2,008,001,2021-04-14_18h50.07.767,searchDisc4,2020.2.10,Win32,60,,,,space,0.23511,2,1,0.947255,,0,52,52,504,1,2c,48,2,31,
,,,,,,,,,,,,,,,,,,,,,,,,,images/exp2c_trial_53_colour3_distractors19_r.png,r,2,008,001,2021-04-14_18h50.07.767,searchDisc4,2020.2.10,Win32,60,,,,space,0.207755,2,1,1.274455,,0,53,53,509,1,2c,53,3,19,
,,,,,,,,,,,,,,,,,,,,,,,,,images/exp2b_trial_56_colour1_distractors1_l.png,l,1,008,001,2021-04-14_18h50.07.767,searchDisc4,2020.2.10,Win32,60,,,,space,0.292945,1,1,0.746095,,0,54,54,398,1,2b,56,1,1,
,,,,,,,,,,,,,,,,,,,,,,,,,images/exp1a_trial_36_colour0_distractors0_r.png,r,2,008,001,2021-04-14_18h50.07.767,searchDisc4,2020.2.10,Win32,60,,,,space,0.20152,2,1,1.013705,,0,55,55,36,1,1a,36,0,0,
,,,,,,,,,,,,,,,,,,,,,,,,,images/exp1b_trial_78_colour1_distractors9_r.png,r,2,008,001,2021-04-14_18h50.07.767,searchDisc4,2020.2.10,Win32,60,,,,space,0.27949,2,1,0.97241,,0,56,56,192,1,1b,78,1,9,
,,,,,,,,,,,,,,,,,,,,,,,,,images/exp1b_trial_53_colour3_distractors19_r.png,r,2,008,001,2021-04-14_18h50.07.767,searchDisc4,2020.2.10,Win32,60,,,,space,0.18822,2,1,1.012825,,0,57,57,167,1,1b,53,3,19,
,,,,,,,,,,,,,,,,,,,,,,,,,images/exp2c_trial_97_colour1_distractors19_l.png,l,1,008,001,2021-04-14_18h50.07.767,searchDisc4,2020.2.10,Win32,60,,,,space,0.17962,1,1,0.95699,,0,58,58,553,1,2c,97,1,19,
,,,,,,,,,,,,,,,,,,,,,,,,,images/exp2c_trial_91_colour3_distractors19_r.png,r,2,008,001,2021-04-14_18h50.07.767,searchDisc4,2020.2.10,Win32,60,,,,space,0.179795,2,1,0.95029,space,0,59,59,547,1,2c,91,3,19,0.17617
,,,,,,,,,,,,,,,,,,,,,,,,,images/exp1a_trial_68_colour3_distractors1_l.png,l,1,008,001,2021-04-14_18h50.07.767,searchDisc4,2020.2.10,Win32,60,,,,space,2.25724,1,1,0.799435,,0,60,60,68,1,1a,68,3,1,
,,,,,,,,,,,,,,,,,,,,,,,,,images/exp1a_trial_49_colour2_distractors43_r.png,r,2,008,001,2021-04-14_18h50.07.767,searchDisc4,2020.2.10,Win32,60,,,,space,0.187955,2,1,0.85416,,0,61,61,49,1,1a,49,2,43,
,,,,,,,,,,,,,,,,,,,,,,,,,images/exp2b_trial_15_colour3_distractors19_r.png,r,2,008,001,2021-04-14_18h50.07.767,searchDisc4,2020.2.10,Win32,60,,,,space,0.38717,2,1,1.287835,,0,62,62,357,1,2b,15,3,19,
,,,,,,,,,,,,,,,,,,,,,,,,,images/exp1a_trial_92_colour3_distractors31_r.png,r,2,008,001,2021-04-14_18h50.07.767,searchDisc4,2020.2.10,Win32,60,,,,space,2.28965,2,1,0.989865,,0,63,63,92,1,1a,92,3,31,
,,,,,,,,,,,,,,,,,,,,,,,,,images/exp2b_trial_83_colour2_distractors4_r.png,r,2,008,001,2021-04-14_18h50.07.767,searchDisc4,2020.2.10,Win32,60,,,,space,0.263655,2,1,0.779135,,0,64,64,425,1,2b,83,2,4,
,,,,,,,,,,,,,,,,,,,,,,,,,images/exp2b_trial_38_colour1_distractors1_r.png,r,2,008,001,2021-04-14_18h50.07.767,searchDisc4,2020.2.10,Win32,60,,,,space,0.220355,2,1,0.63749,,0,65,65,380,1,2b,38,1,1,
,,,,,,,,,,,,,,,,,,,,,,,,,images/exp1a_trial_79_colour1_distractors19_r.png,r,2,008,001,2021-04-14_18h50.07.767,searchDisc4,2020.2.10,Win32,60,,,,space,0.229905,2,1,0.63991,,0,66,66,79,1,1a,79,1,19,
,,,,,,,,,,,,,,,,,,,,,,,,,images/exp1a_trial_84_colour2_distractors9_r.png,r,2,008,001,2021-04-14_18h50.07.767,searchDisc4,2020.2.10,Win32,60,,,,space,0.248735,2,1,0.734245,,0,67,67,84,1,1a,84,2,9,
,,,,,,,,,,,,,,,,,,,,,,,,,images/exp2b_trial_104_colour2_distractors31_l.png,l,1,008,001,2021-04-14_18h50.07.767,searchDisc4,2020.2.10,Win32,60,,,,space,0.219695,1,1,0.662065,,0,68,68,446,1,2b,104,2,31,
,,,,,,,,,,,,,,,,,,,,,,,,,images/exp1a_trial_96_colour1_distractors9_l.png,l,1,008,001,2021-04-14_18h50.07.767,searchDisc4,2020.2.10,Win32,60,,,,space,0.203435,1,1,0.67517,,0,69,69,96,1,1a,96,1,9,
,,,,,,,,,,,,,,,,,,,,,,,,,images/exp2c_trial_90_colour3_distractors9_r.png,r,2,008,001,2021-04-14_18h50.07.767,searchDisc4,2020.2.10,Win32,60,,,,space,0.227725,2,1,0.658315,,0,70,70,546,1,2c,90,3,9,
,,,,,,,,,,,,,,,,,,,,,,,,,images/exp2a_trial_30_colour3_distractors1_l.png,l,1,008,001,2021-04-14_18h50.07.767,searchDisc4,2020.2.10,Win32,60,,,,space,0.22508,1,1,0.71844,,0,71,71,258,1,2a,30,3,1,
,,,,,,,,,,,,,,,,,,,,,,,,,images/exp2c_trial_20_colour1_distractors9_l.png,l,1,008,001,2021-04-14_18h50.07.767,searchDisc4,2020.2.10,Win32,60,,,,space,0.251655,1,1,0.60308,,0,72,72,476,1,2c,20,1,9,
,,,,,,,,,,,,,,,,,,,,,,,,,images/exp1b_trial_54_colour3_distractors31_r.png,r,2,008,001,2021-04-14_18h50.07.767,searchDisc4,2020.2.10,Win32,60,,,,space,0.21483,2,1,2.78046,,0,73,73,168,1,1b,54,3,31,
,,,,,,,,,,,,,,,,,,,,,,,,,images/exp2a_trial_81_colour1_distractors43_r.png,r,2,008,001,2021-04-14_18h50.07.767,searchDisc4,2020.2.10,Win32,60,,,,space,0.166805,2,1,1.09401,,0,74,74,309,1,2a,81,1,43,
,,,,,,,,,,,,,,,,,,,,,,,,,images/exp1a_trial_110_colour3_distractors31_l.png,l,1,008,001,2021-04-14_18h50.07.767,searchDisc4,2020.2.10,Win32,60,,,,space,0.31241,1,1,2.19933,,0,75,75,110,1,1a,110,3,31,
,,,,,,,,,,,,,,,,,,,,,,,,,images/exp2a_trial_88_colour3_distractors1_r.png,r,2,008,001,2021-04-14_18h50.07.767,searchDisc4,2020.2.10,Win32,60,,,,space,0.18839,2,1,1.499875,,0,76,76,316,1,2a,88,3,1,
,,,,,,,,,,,,,,,,,,,,,,,,,images/exp2a_trial_94_colour1_distractors1_l.png,l,1,008,001,2021-04-14_18h50.07.767,searchDisc4,2020.2.10,Win32,60,,,,space,0.167525,1,1,0.64221,,0,77,77,322,1,2a,94,1,1,
,,,,,,,,,,,,,,,,,,,,,,,,,images/exp1b_trial_15_colour3_distractors19_r.png,r,2,008,001,2021-04-14_18h50.07.767,searchDisc4,2020.2.10,Win32,60,,,,space,0.20664,2,1,2.236605,,0,78,78,129,1,1b,15,3,19,
,,,,,,,,,,,,,,,,,,,,,,,,,images/exp2a_trial_103_colour2_distractors19_l.png,l,1,008,001,2021-04-14_18h50.07.767,searchDisc4,2020.2.10,Win32,60,,,,space,0.201555,1,1,0.713265,,0,79,79,331,1,2a,103,2,19,
,,,,,,,,,,,,,,,,,,,,,,,,,images/exp1b_trial_113_colour0_distractors0_l.png,l,1,008,001,2021-04-14_18h50.07.767,searchDisc4,2020.2.10,Win32,60,,,,space,0.26209,1,1,0.8396,,0,80,80,227,1,1b,113,0,0,
,,,,,,,,,,,,,,,,,,,,,,,,,images/exp2c_trial_51_colour3_distractors4_r.png,r,2,008,001,2021-04-14_18h50.07.767,searchDisc4,2020.2.10,Win32,60,,,,space,0.191235,2,1,0.62869,,0,81,81,507,1,2c,51,3,4,
,,,,,,,,,,,,,,,,,,,,,,,,,images/exp2c_trial_110_colour3_distractors31_l.png,l,1,008,001,2021-04-14_18h50.07.767,searchDisc4,2020.2.10,Win32,60,,,,space,0.21548,1,1,0.91271,,0,82,82,566,1,2c,110,3,31,
,,,,,,,,,,,,,,,,,,,,,,,,,images/exp2b_trial_25_colour2_distractors4_l.png,l,1,008,001,2021-04-14_18h50.07.767,searchDisc4,2020.2.10,Win32,60,,,,space,0.227815,1,1,0.67254,,0,83,83,367,1,2b,25,2,4,
,,,,,,,,,,,,,,,,,,,,,,,,,images/exp1a_trial_56_colour1_distractors1_l.png,l,1,008,001,2021-04-14_18h50.07.767,searchDisc4,2020.2.10,Win32,60,,,,space,0.22243,1,1,0.69695,,0,84,84,56,1,1a,56,1,1,
,,,,,,,,,,,,,,,,,,,,,,,,,images/exp1b_trial_73_colour3_distractors43_l.png,l,1,008,001,2021-04-14_18h50.07.767,searchDisc4,2020.2.10,Win32,60,,,,space,0.23379,1,1,2.209965,,0,85,85,187,1,1b,73,3,43,
,,,,,,,,,,,,,,,,,,,,,,,,,images/exp1b_trial_96_colour1_distractors9_l.png,l,1,008,001,2021-04-14_18h50.07.767,searchDisc4,2020.2.10,Win32,60,,,,space,0.166925,1,1,1.335575,,0,86,86,210,1,1b,96,1,9,
,,,,,,,,,,,,,,,,,,,,,,,,,images/exp2a_trial_19_colour1_distractors4_l.png,l,1,008,001,2021-04-14_18h50.07.767,searchDisc4,2020.2.10,Win32,60,,,,space,0.180755,1,1,0.753665,,0,87,87,247,1,2a,19,1,4,
,,,,,,,,,,,,,,,,,,,,,,,,,images/exp1b_trial_16_colour3_distractors31_r.png,r,2,008,001,2021-04-14_18h50.07.767,searchDisc4,2020.2.10,Win32,60,,,,space,0.155455,2,1,2.47287,,0,88,88,130,1,1b,16,3,31,
,,,,,,,,,,,,,,,,,,,,,,,,,images/exp2a_trial_68_colour3_distractors1_l.png,l,1,008,001,2021-04-14_18h50.07.767,searchDisc4,2020.2.10,Win32,60,,,,space,0.18058,1,1,0.589195,,0,89,89,296,1,2a,68,3,1,
,,,,,,,,,,,,,,,,,,,,,,,,,images/exp2a_trial_16_colour3_distractors31_r.png,r,2,008,001,2021-04-14_18h50.07.767,searchDisc4,2020.2.10,Win32,60,,,,space,0.167515,2,1,1.030555,,0,90,90,244,1,2a,16,3,31,
,,,,,,,,,,,,,,,,,,,,,,,,,images/exp2a_trial_8_colour2_distractors9_r.png,r,2,008,001,2021-04-14_18h50.07.767,searchDisc4,2020.2.10,Win32,60,,,,space,0.18706,2,1,0.731295,,0,91,91,236,1,2a,8,2,9,
,,,,,,,,,,,,,,,,,,,,,,,,,images/exp1b_trial_112_colour0_distractors0_r.png,r,2,008,001,2021-04-14_18h50.07.767,searchDisc4,2020.2.10,Win32,60,,,,space,0.175905,2,1,0.75671,,0,92,92,226,1,1b,112,0,0,
,,,,,,,,,,,,,,,,,,,,,,,,,images/exp2b_trial_65_colour2_distractors19_l.png,l,1,008,001,2021-04-14_18h50.07.767,searchDisc4,2020.2.10,Win32,60,,,,space,0.208575,1,1,1.181225,,0,93,93,407,1,2b,65,2,19,
,,,,,,,,,,,,,,,,,,,,,,,,,images/exp2b_trial_108_colour3_distractors9_l.png,l,1,008,001,2021-04-14_18h50.07.767,searchDisc4,2020.2.10,Win32,60,,,,space,0.432325,1,1,1.37652,,0,94,94,450,1,2b,108,3,9,
,,,,,,,,,,,,,,,,,,,,,,,,,images/exp2a_trial_39_colour1_distractors4_r.png,r,2,008,001,2021-04-14_18h50.07.767,searchDisc4,2020.2.10,Win32,60,,,,space,0.503325,2,1,0.86277,,0,95,95,267,1,2a,39,1,4,
,,,,,,,,,,,,,,,,,,,,,,,,,images/exp2a_trial_63_colour2_distractors4_l.png,l,1,008,001,2021-04-14_18h50.07.767,searchDisc4,2020.2.10,Win32,60,,,,space,0.576735,1,1,1.07111,,0,96,96,291,1,2a,63,2,4,
,,,,,,,,,,,,,,,,,,,,,,,,,images/exp2a_trial_55_colour3_distractors43_r.png,r,2,008,001,2021-04-14_18h50.07.767,searchDisc4,2020.2.10,Win32,60,,,,space,0.60106,2,1,0.973305,,0,97,97,283,1,2a,55,3,43,
,,,,,,,,,,,,,,,,,,,,,,,,,images/exp1b_trial_35_colour3_distractors43_l.png,l,1,008,001,2021-04-14_18h50.07.767,searchDisc4,2020.2.10,Win32,60,,,,space,0.56273,1,1,1.603185,,0,98,98,149,1,1b,35,3,43,
,,,,,,,,,,,,,,,,,,,,,,,,,images/exp2a_trial_43_colour1_distractors43_r.png,r,2,008,001,2021-04-14_18h50.07.767,searchDisc4,2020.2.10,Win32,60,,,,space,0.39605,2,1,1.210475,,0,99,99,271,1,2a,43,1,43,
,,,,,,,,,,,,,,,,,,,,,,,,,images/exp2b_trial_19_colour1_distractors4_l.png,l,1,008,001,2021-04-14_18h50.07.767,searchDisc4,2020.2.10,Win32,60,,,,space,0.68796,1,1,0.83398,,0,100,100,361,1,2b,19,1,4,
,,,,,,,,,,,,,,,,,,,,,,,,,images/exp1b_trial_76_colour1_distractors1_r.png,r,2,008,001,2021-04-14_18h50.07.767,searchDisc4,2020.2.10,Win32,60,,,,space,0.68806,2,1,0.92736,,0,101,101,190,1,1b,76,1,1,
,,,,,,,,,,,,,,,,,,,,,,,,,images/exp1a_trial_97_colour1_distractors19_l.png,l,1,008,001,2021-04-14_18h50.07.767,searchDisc4,2020.2.10,Win32,60,,,,space,0.528075,1,1,0.688595,,0,102,102,97,1,1a,97,1,19,
,,,,,,,,,,,,,,,,,,,,,,,,,images/exp2b_trial_84_colour2_distractors9_r.png,r,2,008,001,2021-04-14_18h50.07.767,searchDisc4,2020.2.10,Win32,60,,,,space,0.60921,2,1,0.62744,,0,103,103,426,1,2b,84,2,9,
,,,,,,,,,,,,,,,,,,,,,,,,,images/exp1a_trial_12_colour3_distractors1_r.png,r,2,008,001,2021-04-14_18h50.07.767,searchDisc4,2020.2.10,Win32,60,,,,space,0.553395,2,1,0.56524,,0,104,104,12,1,1a,12,3,1,
,,,,,,,,,,,,,,,,,,,,,,,,,images/exp2b_trial_20_colour1_distractors9_l.png,l,1,008,001,2021-04-14_18h50.07.767,searchDisc4,2020.2.10,Win32,60,,,,space,0.501595,1,1,0.61236,,0,105,105,362,1,2b,20,1,9,
,,,,,,,,,,,,,,,,,,,,,,,,,images/exp2c_trial_33_colour3_distractors19_l.png,l,1,008,001,2021-04-14_18h50.07.767,searchDisc4,2020.2.10,Win32,60,,,,space,0.50718,1,1,0.606535,,0,106,106,489,1,2c,33,3,19,
,,,,,,,,,,,,,,,,,,,,,,,,,images/exp1b_trial_51_colour3_distractors4_r.png,r,2,008,001,2021-04-14_18h50.07.767,searchDisc4,2020.2.10,Win32,60,,,,space,0.518475,2,1,0.600165,,0,107,107,165,1,1b,51,3,4,
,,,,,,,,,,,,,,,,,,,,,,,,,images/exp2b_trial_36_colour0_distractors0_r.png,r,2,008,001,2021-04-14_18h50.07.767,searchDisc4,2020.2.10,Win32,60,,,,space,0.49896,2,1,0.89294,,0,108,108,378,1,2b,36,0,0,
,,,,,,,,,,,,,,,,,,,,,,,,,images/exp2a_trial_46_colour2_distractors9_r.png,r,2,008,001,2021-04-14_18h50.07.767,searchDisc4,2020.2.10,Win32,60,,,,space,0.532385,2,1,0.810155,,0,109,109,274,1,2a,46,2,9,
,,,,,,,,,,,,,,,,,,,,,,,,,images/exp1a_trial_4_colour1_distractors31_r.png,r,2,008,001,2021-04-14_18h50.07.767,searchDisc4,2020.2.10,Win32,60,,,,space,0.480345,2,1,0.689185,,0,110,110,4,1,1a,4,1,31,
,,,,,,,,,,,,,,,,,,,,,,,,,images/exp2c_trial_60_colour1_distractors31_l.png,l,1,008,001,2021-04-14_18h50.07.767,searchDisc4,2020.2.10,Win32,60,,,,space,0.466955,1,1,0.890835,,0,111,111,516,1,2c,60,1,31,
,,,,,,,,,,,,,,,,,,,,,,,,,images/exp2b_trial_37_colour0_distractors0_l.png,l,1,008,001,2021-04-14_18h50.07.767,searchDisc4,2020.2.10,Win32,60,,,,space,0.43797,1,1,0.759175,,0,112,112,379,1,2b,37,0,0,
,,,,,,,,,,,,,,,,,,,,,,,,,images/exp2b_trial_32_colour3_distractors9_l.png,l,1,008,001,2021-04-14_18h50.07.767,searchDisc4,2020.2.10,Win32,60,,,,space,0.374315,1,1,1.01123,,0,113,113,374,1,2b,32,3,9,
,,,,,,,,,,,,,,,,,,,,,,,,,images/exp2c_trial_73_colour3_distractors43_l.png,l,1,008,001,2021-04-14_18h50.07.767,searchDisc4,2020.2.10,Win32,60,,,,space,0.530525,1,1,0.773025,,0,114,114,529,1,2c,73,3,43,
,,,,,,,,,,,,,,,,,,,,,,,,,images/exp1a_trial_88_colour3_distractors1_r.png,r,2,008,001,2021-04-14_18h50.07.767,searchDisc4,2020.2.10,Win32,60,,,,space,0.435095,2,1,0.714545,,0,115,115,88,1,1a,88,3,1,
,,,,,,,,,,,,,,,,,,,,,,,,,images/exp1a_trial_15_colour3_distractors19_r.png,r,2,008,001,2021-04-14_18h50.07.767,searchDisc4,2020.2.10,Win32,60,,,,space,0.43552,2,1,0.68933,,0,116,116,15,1,1a,15,3,19,
,,,,,,,,,,,,,,,,,,,,,,,,,images/exp1b_trial_36_colour0_distractors0_r.png,r,2,008,001,2021-04-14_18h50.07.767,searchDisc4,2020.2.10,Win32,60,,,,space,0.45157,2,1,0.718005,,0,117,117,150,1,1b,36,0,0,
,,,,,,,,,,,,,,,,,,,,,,,,,images/exp2b_trial_107_colour3_distractors4_l.png,l,1,008,001,2021-04-14_18h50.07.767,searchDisc4,2020.2.10,Win32,60,,,,space,0.465935,1,1,0.74402,,0,118,118,449,1,2b,107,3,4,
,,,,,,,,,,,,,,,,,,,,,,,,,images/exp1a_trial_53_colour3_distractors19_r.png,r,2,008,001,2021-04-14_18h50.07.767,searchDisc4,2020.2.10,Win32,60,,,,space,0.472755,2,1,0.744535,space,0,119,119,53,1,1a,53,3,19,6.057545
,,,,,,,,,,,,,,,,,,,,,,,,,images/exp2b_trial_28_colour2_distractors31_l.png,l,1,008,001,2021-04-14_18h50.07.767,searchDisc4,2020.2.10,Win32,60,,,,space,0.693005,1,1,0.647585,,0,120,120,370,1,2b,28,2,31,
,,,,,,,,,,,,,,,,,,,,,,,,,images/exp2a_trial_76_colour1_distractors1_r.png,r,2,008,001,2021-04-14_18h50.07.767,searchDisc4,2020.2.10,Win32,60,,,,space,0.36389,2,1,1.116785,,0,121,121,304,1,2a,76,1,1,
,,,,,,,,,,,,,,,,,,,,,,,,,images/exp1b_trial_89_colour3_distractors4_r.png,r,2,008,001,2021-04-14_18h50.07.767,searchDisc4,2020.2.10,Win32,60,,,,space,0.190055,2,1,1.17162,,0,122,122,203,1,1b,89,3,4,
,,,,,,,,,,,,,,,,,,,,,,,,,images/exp2a_trial_35_colour3_distractors43_l.png,l,1,008,001,2021-04-14_18h50.07.767,searchDisc4,2020.2.10,Win32,60,,,,space,0.192995,1,1,0.84025,,0,123,123,263,1,2a,35,3,43,
,,,,,,,,,,,,,,,,,,,,,,,,,images/exp2a_trial_52_colour3_distractors9_r.png,r,2,008,001,2021-04-14_18h50.07.767,searchDisc4,2020.2.10,Win32,60,,,,space,0.186855,2,1,0.82051,,0,124,124,280,1,2a,52,3,9,
,,,,,,,,,,,,,,,,,,,,,,,,,images/exp2a_trial_97_colour1_distractors19_l.png,l,1,008,001,2021-04-14_18h50.07.767,searchDisc4,2020.2.10,Win32,60,,,,space,0.189035,1,1,0.921515,,0,125,125,325,1,2a,97,1,19,
,,,,,,,,,,,,,,,,,,,,,,,,,images/exp1a_trial_9_colour2_distractors19_r.png,r,2,008,001,2021-04-14_18h50.07.767,searchDisc4,2020.2.10,Win32,60,,,,space,0.17382,2,1,0.709055,,0,126,126,9,1,1a,9,2,19,
,,,,,,,,,,,,,,,,,,,,,,,,,images/exp2a_trial_62_colour2_distractors1_l.png,l,1,008,001,2021-04-14_18h50.07.767,searchDisc4,2020.2.10,Win32,60,,,,space,0.21405,1,1,0.7108,,0,127,127,290,1,2a,62,2,1,
,,,,,,,,,,,,,,,,,,,,,,,,,images/exp2c_trial_5_colour1_distractors43_r.png,r,2,008,001,2021-04-14_18h50.07.767,searchDisc4,2020.2.10,Win32,60,,,,space,0.219995,2,1,0.80274,,0,128,128,461,1,2c,5,1,43,
,,,,,,,,,,,,,,,,,,,,,,,,,images/exp2c_trial_71_colour3_distractors19_l.png,l,1,008,001,2021-04-14_18h50.07.767,searchDisc4,2020.2.10,Win32,60,,,,space,0.20158,1,1,0.732355,,0,129,129,527,1,2c,71,3,19,
,,,,,,,,,,,,,,,,,,,,,,,,,images/exp2b_trial_39_colour1_distractors4_r.png,r,2,008,001,2021-04-14_18h50.07.767,searchDisc4,2020.2.10,Win32,60,,,,space,0.217265,2,1,0.654525,,0,130,130,381,1,2b,39,1,4,
,,,,,,,,,,,,,,,,,,,,,,,,,images/exp2c_trial_65_colour2_distractors19_l.png,l,1,008,001,2021-04-14_18h50.07.767,searchDisc4,2020.2.10,Win32,60,,,,space,0.23144,1,1,0.95957,,0,131,131,521,1,2c,65,2,19,
,,,,,,,,,,,,,,,,,,,,,,,,,images/exp1b_trial_24_colour2_distractors1_l.png,l,1,008,001,2021-04-14_18h50.07.767,searchDisc4,2020.2.10,Win32,60,,,,space,0.17484,1,1,0.859895,,0,132,132,138,1,1b,24,2,1,
,,,,,,,,,,,,,,,,,,,,,,,,,images/exp1b_trial_85_colour2_distractors19_r.png,r,2,008,001,2021-04-14_18h50.07.767,searchDisc4,2020.2.10,Win32,60,,,,space,0.147965,2,1,1.04844,,0,133,133,199,1,1b,85,2,19,
,,,,,,,,,,,,,,,,,,,,,,,,,images/exp2b_trial_61_colour1_distractors43_l.png,l,1,008,001,2021-04-14_18h50.07.767,searchDisc4,2020.2.10,Win32,60,,,,space,0.160065,1,1,1.046425,,0,134,134,403,1,2b,61,1,43,
,,,,,,,,,,,,,,,,,,,,,,,,,images/exp2a_trial_49_colour2_distractors43_r.png,r,2,008,001,2021-04-14_18h50.07.767,searchDisc4,2020.2.10,Win32,60,,,,space,0.154845,2,1,0.75082,,0,135,135,277,1,2a,49,2,43,
,,,,,,,,,,,,,,,,,,,,,,,,,images/exp1b_trial_44_colour2_distractors1_r.png,r,2,008,001,2021-04-14_18h50.07.767,searchDisc4,2020.2.10,Win32,60,,,,space,0.18217,2,1,0.95261,,0,136,136,158,1,1b,44,2,1,
,,,,,,,,,,,,,,,,,,,,,,,,,images/exp1a_trial_103_colour2_distractors19_l.png,l,1,008,001,2021-04-14_18h50.07.767,searchDisc4,2020.2.10,Win32,60,,,,space,0.176375,2,0,0.00069,,0,137,137,103,1,1a,103,2,19,
,,,,,,,,,,,,,,,,,,,,,,,,,images/exp2a_trial_74_colour0_distractors0_r.png,r,2,008,001,2021-04-14_18h50.07.767,searchDisc4,2020.2.10,Win32,60,,,,space,1.08344,2,1,1.255235,,0,138,138,302,1,2a,74,0,0,
,,,,,,,,,,,,,,,,,,,,,,,,,images/exp2c_trial_92_colour3_distractors31_r.png,r,2,008,001,2021-04-14_18h50.07.767,searchDisc4,2020.2.10,Win32,60,,,,space,1.75647,2,1,1.10375,,0,139,139,548,1,2c,92,3,31,
,,,,,,,,,,,,,,,,,,,,,,,,,images/exp2c_trial_64_colour2_distractors9_l.png,l,1,008,001,2021-04-14_18h50.07.767,searchDisc4,2020.2.10,Win32,60,,,,space,0.755845,1,1,1.16483,,0,140,140,520,1,2c,64,2,9,
,,,,,,,,,,,,,,,,,,,,,,,,,images/exp2a_trial_91_colour3_distractors19_r.png,r,2,008,001,2021-04-14_18h50.07.767,searchDisc4,2020.2.10,Win32,60,,,,space,0.821805,2,1,0.965555,,0,141,141,319,1,2a,91,3,19,
,,,,,,,,,,,,,,,,,,,,,,,,,images/exp1b_trial_42_colour1_distractors31_r.png,r,2,008,001,2021-04-14_18h50.07.767,searchDisc4,2020.2.10,Win32,60,,,,space,1.01667,2,1,3.240835,,0,142,142,156,1,1b,42,1,31,
,,,,,,,,,,,,,,,,,,,,,,,,,images/exp1b_trial_49_colour2_distractors43_r.png,r,2,008,001,2021-04-14_18h50.07.767,searchDisc4,2020.2.10,Win32,60,,,,space,0.48002,2,1,1.091945,,0,143,143,163,1,1b,49,2,43,
,,,,,,,,,,,,,,,,,,,,,,,,,images/exp2c_trial_6_colour2_distractors1_r.png,r,2,008,001,2021-04-14_18h50.07.767,searchDisc4,2020.2.10,Win32,60,,,,space,0.24325,2,1,0.97013,,0,144,144,462,1,2c,6,2,1,
,,,,,,,,,,,,,,,,,,,,,,,,,images/exp2b_trial_44_colour2_distractors1_r.png,r,2,008,001,2021-04-14_18h50.07.767,searchDisc4,2020.2.10,Win32,60,,,,space,0.329795,2,1,0.93364,,0,145,145,386,1,2b,44,2,1,
,,,,,,,,,,,,,,,,,,,,,,,,,images/exp2b_trial_75_colour0_distractors0_l.png,l,1,008,001,2021-04-14_18h50.07.767,searchDisc4,2020.2.10,Win32,60,,,,space,0.29745,1,1,0.942965,,0,146,146,417,1,2b,75,0,0,
,,,,,,,,,,,,,,,,,,,,,,,,,images/exp2c_trial_113_colour0_distractors0_l.png,l,1,008,001,2021-04-14_18h50.07.767,searchDisc4,2020.2.10,Win32,60,,,,space,0.29369,1,1,0.985195,,0,147,147,569,1,2c,113,0,0,
,,,,,,,,,,,,,,,,,,,,,,,,,images/exp1b_trial_31_colour3_distractors4_l.png,l,1,008,001,2021-04-14_18h50.07.767,searchDisc4,2020.2.10,Win32,60,,,,space,0.273295,1,1,0.921595,,0,148,148,145,1,1b,31,3,4,
,,,,,,,,,,,,,,,,,,,,,,,,,images/exp2b_trial_54_colour3_distractors31_r.png,r,2,008,001,2021-04-14_18h50.07.767,searchDisc4,2020.2.10,Win32,60,,,,space,0.26581,2,1,1.08628,,0,149,149,396,1,2b,54,3,31,
,,,,,,,,,,,,,,,,,,,,,,,,,images/exp1a_trial_38_colour1_distractors1_r.png,r,2,008,001,2021-04-14_18h50.07.767,searchDisc4,2020.2.10,Win32,60,,,,space,0.25787,2,1,2.10037,,0,150,150,38,1,1a,38,1,1,
,,,,,,,,,,,,,,,,,,,,,,,,,images/exp1a_trial_100_colour2_distractors1_l.png,l,1,008,001,2021-04-14_18h50.07.767,searchDisc4,2020.2.10,Win32,60,,,,space,0.24027,1,1,1.534225,,0,151,151,100,1,1a,100,2,1,
,,,,,,,,,,,,,,,,,,,,,,,,,images/exp2a_trial_109_colour3_distractors19_l.png,l,1,008,001,2021-04-14_18h50.07.767,searchDisc4,2020.2.10,Win32,60,,,,space,0.43644,1,1,1.161435,,0,152,152,337,1,2a,109,3,19,
,,,,,,,,,,,,,,,,,,,,,,,,,images/exp2a_trial_57_colour1_distractors4_l.png,l,1,008,001,2021-04-14_18h50.07.767,searchDisc4,2020.2.10,Win32,60,,,,space,0.388435,1,1,1.07104,,0,153,153,285,1,2a,57,1,4,
,,,,,,,,,,,,,,,,,,,,,,,,,images/exp2c_trial_67_colour2_distractors43_l.png,l,1,008,001,2021-04-14_18h50.07.767,searchDisc4,2020.2.10,Win32,60,,,,space,0.245375,1,1,1.197015,,0,154,154,523,1,2c,67,2,43,
,,,,,,,,,,,,,,,,,,,,,,,,,images/exp1b_trial_104_colour2_distractors31_l.png,l,1,008,001,2021-04-14_18h50.07.767,searchDisc4,2020.2.10,Win32,60,,,,space,0.24788,1,1,1.15084,,0,155,155,218,1,1b,104,2,31,
,,,,,,,,,,,,,,,,,,,,,,,,,images/exp2a_trial_33_colour3_distractors19_l.png,l,1,008,001,2021-04-14_18h50.07.767,searchDisc4,2020.2.10,Win32,60,,,,space,0.212685,1,1,0.95968,,0,156,156,261,1,2a,33,3,19,
,,,,,,,,,,,,,,,,,,,,,,,,,images/exp2a_trial_20_colour1_distractors9_l.png,l,1,008,001,2021-04-14_18h50.07.767,searchDisc4,2020.2.10,Win32,60,,,,space,0.23448,1,1,1.025125,,0,157,157,248,1,2a,20,1,9,
,,,,,,,,,,,,,,,,,,,,,,,,,images/exp1a_trial_47_colour2_distractors19_r.png,r,2,008,001,2021-04-14_18h50.07.767,searchDisc4,2020.2.10,Win32,60,,,,space,0.477175,2,1,1.76744,,0,158,158,47,1,1a,47,2,19,
,,,,,,,,,,,,,,,,,,,,,,,,,images/exp1a_trial_113_colour0_distractors0_l.png,l,1,008,001,2021-04-14_18h50.07.767,searchDisc4,2020.2.10,Win32,60,,,,space,0.211635,1,1,0.77788,,0,159,159,113,1,1a,113,0,0,
,,,,,,,,,,,,,,,,,,,,,,,,,images/exp2c_trial_83_colour2_distractors4_r.png,r,2,008,001,2021-04-14_18h50.07.767,searchDisc4,2020.2.10,Win32,60,,,,space,0.21466,2,1,2.292525,,0,160,160,539,1,2c,83,2,4,
,,,,,,,,,,,,,,,,,,,,,,,,,images/exp1a_trial_61_colour1_distractors43_l.png,l,1,008,001,2021-04-14_18h50.07.767,searchDisc4,2020.2.10,Win32,60,,,,space,0.20729,1,1,0.747985,,0,161,161,61,1,1a,61,1,43,
,,,,,,,,,,,,,,,,,,,,,,,,,images/exp2a_trial_13_colour3_distractors4_r.png,r,2,008,001,2021-04-14_18h50.07.767,searchDisc4,2020.2.10,Win32,60,,,,space,0.245135,2,1,0.75532,,0,162,162,241,1,2a,13,3,4,
,,,,,,,,,,,,,,,,,,,,,,,,,images/exp1b_trial_68_colour3_distractors1_l.png,l,1,008,001,2021-04-14_18h50.07.767,searchDisc4,2020.2.10,Win32,60,,,,space,0.25898,1,1,0.89054,,0,163,163,182,1,1b,68,3,1,
,,,,,,,,,,,,,,,,,,,,,,,,,images/exp1a_trial_57_colour1_distractors4_l.png,l,1,008,001,2021-04-14_18h50.07.767,searchDisc4,2020.2.10,Win32,60,,,,space,0.255045,1,1,0.97798,,0,164,164,57,1,1a,57,1,4,
,,,,,,,,,,,,,,,,,,,,,,,,,images/exp1b_trial_86_colour2_distractors31_r.png,r,2,008,001,2021-04-14_18h50.07.767,searchDisc4,2020.2.10,Win32,60,,,,space,0.209795,2,1,0.937385,,0,165,165,200,1,1b,86,2,31,
,,,,,,,,,,,,,,,,,,,,,,,,,images/exp2a_trial_71_colour3_distractors19_l.png,l,1,008,001,2021-04-14_18h50.07.767,searchDisc4,2020.2.10,Win32,60,,,,space,0.195145,1,1,0.844165,,0,166,166,299,1,2a,71,3,19,
,,,,,,,,,,,,,,,,,,,,,,,,,images/exp2b_trial_40_colour1_distractors9_r.png,r,2,008,001,2021-04-14_18h50.07.767,searchDisc4,2020.2.10,Win32,60,,,,space,0.19701,2,1,0.748855,,0,167,167,382,1,2b,40,1,9,
,,,,,,,,,,,,,,,,,,,,,,,,,images/exp2c_trial_25_colour2_distractors4_l.png,l,1,008,001,2021-04-14_18h50.07.767,searchDisc4,2020.2.10,Win32,60,,,,space,0.195545,1,1,0.8702,,0,168,168,481,1,2c,25,2,4,
,,,,,,,,,,,,,,,,,,,,,,,,,images/exp2a_trial_9_colour2_distractors19_r.png,r,2,008,001,2021-04-14_18h50.07.767,searchDisc4,2020.2.10,Win32,60,,,,space,0.16496,2,1,0.68633,,0,169,169,237,1,2a,9,2,19,
,,,,,,,,,,,,,,,,,,,,,,,,,images/exp1a_trial_71_colour3_distractors19_l.png,l,1,008,001,2021-04-14_18h50.07.767,searchDisc4,2020.2.10,Win32,60,,,,space,0.19773,1,1,0.78014,,0,170,170,71,1,1a,71,3,19,
,,,,,,,,,,,,,,,,,,,,,,,,,images/exp1b_trial_21_colour1_distractors19_l.png,l,1,008,001,2021-04-14_18h50.07.767,searchDisc4,2020.2.10,Win32,60,,,,space,0.21159,1,1,1.45141,,0,171,171,135,1,1b,21,1,19,
,,,,,,,,,,,,,,,,,,,,,,,,,images/exp2b_trial_11_colour2_distractors43_r.png,r,2,008,001,2021-04-14_18h50.07.767,searchDisc4,2020.2.10,Win32,60,,,,space,0.180855,2,1,0.7283,,0,172,172,353,1,2b,11,2,43,
,,,,,,,,,,,,,,,,,,,,,,,,,images/exp1b_trial_58_colour1_distractors9_l.png,l,1,008,001,2021-04-14_18h50.07.767,searchDisc4,2020.2.10,Win32,60,,,,space,0.18794,1,1,0.866795,,0,173,173,172,1,1b,58,1,9,
,,,,,,,,,,,,,,,,,,,,,,,,,images/exp2c_trial_57_colour1_distractors4_l.png,l,1,008,001,2021-04-14_18h50.07.767,searchDisc4,2020.2.10,Win32,60,,,,space,0.17476,1,1,0.76083,,0,174,174,513,1,2c,57,1,4,
,,,,,,,,,,,,,,,,,,,,,,,,,images/exp2c_trial_52_colour3_distractors9_r.png,r,2,008,001,2021-04-14_18h50.07.767,searchDisc4,2020.2.10,Win32,60,,,,space,0.169105,2,1,0.7101,,0,175,175,508,1,2c,52,3,9,
,,,,,,,,,,,,,,,,,,,,,,,,,images/exp1b_trial_70_colour3_distractors9_l.png,l,1,008,001,2021-04-14_18h50.07.767,searchDisc4,2020.2.10,Win32,60,,,,space,0.15949,1,1,1.939085,,0,176,176,184,1,1b,70,3,9,
,,,,,,,,,,,,,,,,,,,,,,,,,images/exp1b_trial_91_colour3_distractors19_r.png,r,2,008,001,2021-04-14_18h50.07.767,searchDisc4,2020.2.10,Win32,60,,,,space,0.177065,2,1,1.42314,,0,177,177,205,1,1b,91,3,19,
,,,,,,,,,,,,,,,,,,,,,,,,,images/exp2c_trial_104_colour2_distractors31_l.png,l,1,008,001,2021-04-14_18h50.07.767,searchDisc4,2020.2.10,Win32,60,,,,space,0.186365,1,1,0.82345,,0,178,178,560,1,2c,104,2,31,
,,,,,,,,,,,,,,,,,,,,,,,,,images/exp2b_trial_94_colour1_distractors1_l.png,l,1,008,001,2021-04-14_18h50.07.767,searchDisc4,2020.2.10,Win32,60,,,,space,0.166905,1,1,0.90394,space,0,179,179,436,1,2b,94,1,1,0.14604
,,,,,,,,,,,,,,,,,,,,,,,,,images/exp1b_trial_5_colour1_distractors43_r.png,r,2,008,001,2021-04-14_18h50.07.767,searchDisc4,2020.2.10,Win32,60,,,,space,1.31348,2,1,0.833945,,0,180,180,119,1,1b,5,1,43,
,,,,,,,,,,,,,,,,,,,,,,,,,images/exp2b_trial_17_colour3_distractors43_r.png,r,2,008,001,2021-04-14_18h50.07.767,searchDisc4,2020.2.10,Win32,60,,,,space,0.187255,2,1,0.638055,,0,181,181,359,1,2b,17,3,43,
,,,,,,,,,,,,,,,,,,,,,,,,,images/exp2c_trial_87_colour2_distractors43_r.png,r,2,008,001,2021-04-14_18h50.07.767,searchDisc4,2020.2.10,Win32,60,,,,space,0.180825,2,1,1.697025,,0,182,182,543,1,2c,87,2,43,
,,,,,,,,,,,,,,,,,,,,,,,,,images/exp1b_trial_61_colour1_distractors43_l.png,l,1,008,001,2021-04-14_18h50.07.767,searchDisc4,2020.2.10,Win32,60,,,,space,0.15295,1,1,0.808355,,0,183,183,175,1,1b,61,1,43,
,,,,,,,,,,,,,,,,,,,,,,,,,images/exp1a_trial_55_colour3_distractors43_r.png,r,2,008,001,2021-04-14_18h50.07.767,searchDisc4,2020.2.10,Win32,60,,,,space,0.15624,2,1,0.957005,,0,184,184,55,1,1a,55,3,43,
,,,,,,,,,,,,,,,,,,,,,,,,,images/exp2c_trial_106_colour3_distractors1_l.png,l,1,008,001,2021-04-14_18h50.07.767,searchDisc4,2020.2.10,Win32,60,,,,space,0.18033,1,1,0.993885,,0,185,185,562,1,2c,106,3,1,
,,,,,,,,,,,,,,,,,,,,,,,,,images/exp1a_trial_65_colour2_distractors19_l.png,l,1,008,001,2021-04-14_18h50.07.767,searchDisc4,2020.2.10,Win32,60,,,,space,0.134365,1,1,0.865655,,0,186,186,65,1,1a,65,2,19,
,,,,,,,,,,,,,,,,,,,,,,,,,images/exp1b_trial_34_colour3_distractors31_l.png,l,1,008,001,2021-04-14_18h50.07.767,searchDisc4,2020.2.10,Win32,60,,,,space,0.17035,1,1,0.838475,,0,187,187,148,1,1b,34,3,31,
,,,,,,,,,,,,,,,,,,,,,,,,,images/exp2a_trial_69_colour3_distractors4_l.png,l,1,008,001,2021-04-14_18h50.07.767,searchDisc4,2020.2.10,Win32,60,,,,space,0.167515,1,1,0.75363,,0,188,188,297,1,2a,69,3,4,
,,,,,,,,,,,,,,,,,,,,,,,,,images/exp1b_trial_110_colour3_distractors31_l.png,l,1,008,001,2021-04-14_18h50.07.767,searchDisc4,2020.2.10,Win32,60,,,,space,0.223655,1,1,2.529625,,0,189,189,224,1,1b,110,3,31,
,,,,,,,,,,,,,,,,,,,,,,,,,images/exp1b_trial_103_colour2_distractors19_l.png,l,1,008,001,2021-04-14_18h50.07.767,searchDisc4,2020.2.10,Win32,60,,,,space,0.159945,1,1,0.869465,,0,190,190,217,1,1b,103,2,19,
,,,,,,,,,,,,,,,,,,,,,,,,,images/exp2c_trial_66_colour2_distractors31_l.png,l,1,008,001,2021-04-14_18h50.07.767,searchDisc4,2020.2.10,Win32,60,,,,space,0.180765,1,1,0.820445,,0,191,191,522,1,2c,66,2,31,
,,,,,,,,,,,,,,,,,,,,,,,,,images/exp1a_trial_45_colour2_distractors4_r.png,r,2,008,001,2021-04-14_18h50.07.767,searchDisc4,2020.2.10,Win32,60,,,,space,0.183135,2,1,1.341755,,0,192,192,45,1,1a,45,2,4,
,,,,,,,,,,,,,,,,,,,,,,,,,images/exp2a_trial_111_colour3_distractors43_l.png,l,1,008,001,2021-04-14_18h50.07.767,searchDisc4,2020.2.10,Win32,60,,,,space,0.15939,1,1,0.71834,,0,193,193,339,1,2a,111,3,43,
,,,,,,,,,,,,,,,,,,,,,,,,,images/exp2b_trial_98_colour1_distractors31_l.png,l,1,008,001,2021-04-14_18h50.07.767,searchDisc4,2020.2.10,Win32,60,,,,space,0.31811,1,1,0.659175,,0,194,194,440,1,2b,98,1,31,
,,,,,,,,,,,,,,,,,,,,,,,,,images/exp2b_trial_69_colour3_distractors4_l.png,l,1,008,001,2021-04-14_18h50.07.767,searchDisc4,2020.2.10,Win32,60,,,,space,0.189325,1,1,1.293615,,0,195,195,411,1,2b,69,3,4,
,,,,,,,,,,,,,,,,,,,,,,,,,images/exp1a_trial_108_colour3_distractors9_l.png,l,1,008,001,2021-04-14_18h50.07.767,searchDisc4,2020.2.10,Win32,60,,,,space,0.14501,1,1,0.779005,,0,196,196,108,1,1a,108,3,9,
,,,,,,,,,,,,,,,,,,,,,,,,,images/exp2a_trial_75_colour0_distractors0_l.png,l,1,008,001,2021-04-14_18h50.07.767,searchDisc4,2020.2.10,Win32,60,,,,space,0.13365,1,1,1.21486,,0,197,197,303,1,2a,75,0,0,
,,,,,,,,,,,,,,,,,,,,,,,,,images/exp2b_trial_86_colour2_distractors31_r.png,r,2,008,001,2021-04-14_18h50.07.767,searchDisc4,2020.2.10,Win32,60,,,,space,0.27803,2,1,0.762315,,0,198,198,428,1,2b,86,2,31,
,,,,,,,,,,,,,,,,,,,,,,,,,images/exp2b_trial_14_colour3_distractors9_r.png,r,2,008,001,2021-04-14_18h50.07.767,searchDisc4,2020.2.10,Win32,60,,,,space,0.19538,2,1,0.698475,,0,199,199,356,1,2b,14,3,9,
,,,,,,,,,,,,,,,,,,,,,,,,,images/exp2b_trial_112_colour0_distractors0_r.png,r,2,008,001,2021-04-14_18h50.07.767,searchDisc4,2020.2.10,Win32,60,,,,space,0.158595,2,1,0.93368,,0,200,200,454,1,2b,112,0,0,
,,,,,,,,,,,,,,,,,,,,,,,,,images/exp1a_trial_93_colour3_distractors43_r.png,r,2,008,001,2021-04-14_18h50.07.767,searchDisc4,2020.2.10,Win32,60,,,,space,0.22944,2,1,0.768745,,0,201,201,93,1,1a,93,3,43,
,,,,,,,,,,,,,,,,,,,,,,,,,images/exp1b_trial_13_colour3_distractors4_r.png,r,2,008,001,2021-04-14_18h50.07.767,searchDisc4,2020.2.10,Win32,60,,,,space,0.195045,2,1,0.849135,,0,202,202,127,1,1b,13,3,4,
,,,,,,,,,,,,,,,,,,,,,,,,,images/exp1b_trial_26_colour2_distractors9_l.png,l,1,008,001,2021-04-14_18h50.07.767,searchDisc4,2020.2.10,Win32,60,,,,space,0.17841,1,1,0.807425,,0,203,203,140,1,1b,26,2,9,
,,,,,,,,,,,,,,,,,,,,,,,,,images/exp1a_trial_80_colour1_distractors31_r.png,r,2,008,001,2021-04-14_18h50.07.767,searchDisc4,2020.2.10,Win32,60,,,,space,0.15994,2,1,0.661565,,0,204,204,80,1,1a,80,1,31,
,,,,,,,,,,,,,,,,,,,,,,,,,images/exp2a_trial_42_colour1_distractors31_r.png,r,2,008,001,2021-04-14_18h50.07.767,searchDisc4,2020.2.10,Win32,60,,,,space,0.19492,2,1,0.793655,,0,205,205,270,1,2a,42,1,31,
,,,,,,,,,,,,,,,,,,,,,,,,,images/exp1a_trial_46_colour2_distractors9_r.png,r,2,008,001,2021-04-14_18h50.07.767,searchDisc4,2020.2.10,Win32,60,,,,space,0.199805,2,1,0.82793,,0,206,206,46,1,1a,46,2,9,
,,,,,,,,,,,,,,,,,,,,,,,,,images/exp2b_trial_60_colour1_distractors31_l.png,l,1,008,001,2021-04-14_18h50.07.767,searchDisc4,2020.2.10,Win32,60,,,,space,0.479415,1,1,0.816705,,0,207,207,402,1,2b,60,1,31,
,,,,,,,,,,,,,,,,,,,,,,,,,images/exp2a_trial_45_colour2_distractors4_r.png,r,2,008,001,2021-04-14_18h50.07.767,searchDisc4,2020.2.10,Win32,60,,,,space,0.22243,2,1,0.61914,,0,208,208,273,1,2a,45,2,4,
,,,,,,,,,,,,,,,,,,,,,,,,,images/exp1b_trial_10_colour2_distractors31_r.png,r,2,008,001,2021-04-14_18h50.07.767,searchDisc4,2020.2.10,Win32,60,,,,space,0.183485,2,1,0.69063,,0,209,209,124,1,1b,10,2,31,
,,,,,,,,,,,,,,,,,,,,,,,,,images/exp2c_trial_12_colour3_distractors1_r.png,r,2,008,001,2021-04-14_18h50.07.767,searchDisc4,2020.2.10,Win32,60,,,,space,0.22256,2,1,0.656505,,0,210,210,468,1,2c,12,3,1,
,,,,,,,,,,,,,,,,,,,,,,,,,images/exp2a_trial_73_colour3_distractors43_l.png,l,1,008,001,2021-04-14_18h50.07.767,searchDisc4,2020.2.10,Win32,60,,,,space,0.19966,1,1,0.83241,,0,211,211,301,1,2a,73,3,43,
,,,,,,,,,,,,,,,,,,,,,,,,,images/exp1a_trial_52_colour3_distractors9_r.png,r,2,008,001,2021-04-14_18h50.07.767,searchDisc4,2020.2.10,Win32,60,,,,space,0.190735,2,1,0.73213,,0,212,212,52,1,1a,52,3,9,
,,,,,,,,,,,,,,,,,,,,,,,,,images/exp1b_trial_79_colour1_distractors19_r.png,r,2,008,001,2021-04-14_18h50.07.767,searchDisc4,2020.2.10,Win32,60,,,,space,0.210185,2,1,1.28876,,0,213,213,193,1,1b,79,1,19,
,,,,,,,,,,,,,,,,,,,,,,,,,images/exp2c_trial_94_colour1_distractors1_l.png,l,1,008,001,2021-04-14_18h50.07.767,searchDisc4,2020.2.10,Win32,60,,,,space,0.1894,1,1,0.67727,,0,214,214,550,1,2c,94,1,1,
,,,,,,,,,,,,,,,,,,,,,,,,,images/exp2b_trial_7_colour2_distractors4_r.png,r,2,008,001,2021-04-14_18h50.07.767,searchDisc4,2020.2.10,Win32,60,,,,space,0.20978,2,1,0.668825,,0,215,215,349,1,2b,7,2,4,
,,,,,,,,,,,,,,,,,,,,,,,,,images/exp1a_trial_66_colour2_distractors31_l.png,l,1,008,001,2021-04-14_18h50.07.767,searchDisc4,2020.2.10,Win32,60,,,,space,0.346235,1,1,2.431785,,0,216,216,66,1,1a,66,2,31,
,,,,,,,,,,,,,,,,,,,,,,,,,images/exp2a_trial_60_colour1_distractors31_l.png,l,1,008,001,2021-04-14_18h50.07.767,searchDisc4,2020.2.10,Win32,60,,,,space,0.146085,1,1,1.23316,,0,217,217,288,1,2a,60,1,31,
,,,,,,,,,,,,,,,,,,,,,,,,,images/exp2a_trial_34_colour3_distractors31_l.png,l,1,008,001,2021-04-14_18h50.07.767,searchDisc4,2020.2.10,Win32,60,,,,space,0.15387,1,1,0.875215,,0,218,218,262,1,2a,34,3,31,
,,,,,,,,,,,,,,,,,,,,,,,,,images/exp2a_trial_101_colour2_distractors4_l.png,l,1,008,001,2021-04-14_18h50.07.767,searchDisc4,2020.2.10,Win32,60,,,,space,0.156325,1,1,0.75007,,0,219,219,329,1,2a,101,2,4,
,,,,,,,,,,,,,,,,,,,,,,,,,images/exp2a_trial_56_colour1_distractors1_l.png,l,1,008,001,2021-04-14_18h50.07.767,searchDisc4,2020.2.10,Win32,60,,,,space,0.173845,1,1,0.724545,,0,220,220,284,1,2a,56,1,1,
,,,,,,,,,,,,,,,,,,,,,,,,,images/exp2c_trial_107_colour3_distractors4_l.png,l,1,008,001,2021-04-14_18h50.07.767,searchDisc4,2020.2.10,Win32,60,,,,space,0.16307,1,1,0.84987,,0,221,221,563,1,2c,107,3,4,
,,,,,,,,,,,,,,,,,,,,,,,,,images/exp1a_trial_44_colour2_distractors1_r.png,r,2,008,001,2021-04-14_18h50.07.767,searchDisc4,2020.2.10,Win32,60,,,,space,0.338875,2,1,0.89148,,0,222,222,44,1,1a,44,2,1,
,,,,,,,,,,,,,,,,,,,,,,,,,images/exp2a_trial_87_colour2_distractors43_r.png,r,2,008,001,2021-04-14_18h50.07.767,searchDisc4,2020.2.10,Win32,60,,,,space,0.18475,2,1,0.803825,,0,223,223,315,1,2a,87,2,43,
,,,,,,,,,,,,,,,,,,,,,,,,,images/exp1a_trial_83_colour2_distractors4_r.png,r,2,008,001,2021-04-14_18h50.07.767,searchDisc4,2020.2.10,Win32,60,,,,space,0.13119,2,1,1.07256,,0,224,224,83,1,1a,83,2,4,
,,,,,,,,,,,,,,,,,,,,,,,,,images/exp2b_trial_55_colour3_distractors43_r.png,r,2,008,001,2021-04-14_18h50.07.767,searchDisc4,2020.2.10,Win32,60,,,,space,0.277975,2,1,0.915815,,0,225,225,397,1,2b,55,3,43,
,,,,,,,,,,,,,,,,,,,,,,,,,images/exp1b_trial_95_colour1_distractors4_l.png,l,1,008,001,2021-04-14_18h50.07.767,searchDisc4,2020.2.10,Win32,60,,,,space,0.17059,1,1,1.37592,,0,226,226,209,1,1b,95,1,4,
,,,,,,,,,,,,,,,,,,,,,,,,,images/exp1a_trial_29_colour2_distractors43_l.png,l,1,008,001,2021-04-14_18h50.07.767,searchDisc4,2020.2.10,Win32,60,,,,space,0.168535,1,1,1.489365,,0,227,227,29,1,1a,29,2,43,
,,,,,,,,,,,,,,,,,,,,,,,,,images/exp1a_trial_18_colour1_distractors1_l.png,l,1,008,001,2021-04-14_18h50.07.767,searchDisc4,2020.2.10,Win32,60,,,,space,0.15253,1,1,0.912655,,0,228,228,18,1,1a,18,1,1,
,,,,,,,,,,,,,,,,,,,,,,,,,images/exp2b_trial_81_colour1_distractors43_r.png,r,2,008,001,2021-04-14_18h50.07.767,searchDisc4,2020.2.10,Win32,60,,,,space,0.17335,2,1,0.7555,,0,229,229,423,1,2b,81,1,43,
,,,,,,,,,,,,,,,,,,,,,,,,,images/exp2a_trial_17_colour3_distractors43_r.png,r,2,008,001,2021-04-14_18h50.07.767,searchDisc4,2020.2.10,Win32,60,,,,space,0.16693,2,1,0.587875,,0,230,230,245,1,2a,17,3,43,
,,,,,,,,,,,,,,,,,,,,,,,,,images/exp2b_trial_24_colour2_distractors1_l.png,l,1,008,001,2021-04-14_18h50.07.767,searchDisc4,2020.2.10,Win32,60,,,,space,0.1934,1,1,1.484415,,0,231,231,366,1,2b,24,2,1,
,,,,,,,,,,,,,,,,,,,,,,,,,images/exp2c_trial_102_colour2_distractors9_l.png,l,1,008,001,2021-04-14_18h50.07.767,searchDisc4,2020.2.10,Win32,60,,,,space,0.160875,1,1,1.107305,,0,232,232,558,1,2c,102,2,9,
,,,,,,,,,,,,,,,,,,,,,,,,,images/exp2a_trial_5_colour1_distractors43_r.png,r,2,008,001,2021-04-14_18h50.07.767,searchDisc4,2020.2.10,Win32,60,,,,space,0.167745,2,1,0.71691,,0,233,233,233,1,2a,5,1,43,
,,,,,,,,,,,,,,,,,,,,,,,,,images/exp1b_trial_28_colour2_distractors31_l.png,l,1,008,001,2021-04-14_18h50.07.767,searchDisc4,2020.2.10,Win32,60,,,,space,0.327925,1,1,1.196335,,0,234,234,142,1,1b,28,2,31,
,,,,,,,,,,,,,,,,,,,,,,,,,images/exp2b_trial_85_colour2_distractors19_r.png,r,2,008,001,2021-04-14_18h50.07.767,searchDisc4,2020.2.10,Win32,60,,,,space,0.17008,2,1,0.5785,,0,235,235,427,1,2b,85,2,19,
,,,,,,,,,,,,,,,,,,,,,,,,,images/exp2b_trial_110_colour3_distractors31_l.png,l,1,008,001,2021-04-14_18h50.07.767,searchDisc4,2020.2.10,Win32,60,,,,space,0.16234,1,1,0.646835,,0,236,236,452,1,2b,110,3,31,
,,,,,,,,,,,,,,,,,,,,,,,,,images/exp1a_trial_54_colour3_distractors31_r.png,r,2,008,001,2021-04-14_18h50.07.767,searchDisc4,2020.2.10,Win32,60,,,,space,0.18415,2,1,0.52057,,0,237,237,54,1,1a,54,3,31,
,,,,,,,,,,,,,,,,,,,,,,,,,images/exp2a_trial_29_colour2_distractors43_l.png,l,1,008,001,2021-04-14_18h50.07.767,searchDisc4,2020.2.10,Win32,60,,,,space,0.22814,1,1,0.603055,,0,238,238,257,1,2a,29,2,43,
,,,,,,,,,,,,,,,,,,,,,,,,,images/exp2c_trial_77_colour1_distractors4_r.png,r,2,008,001,2021-04-14_18h50.07.767,searchDisc4,2020.2.10,Win32,60,,,,space,0.18127,2,1,0.551615,space,0,239,239,533,1,2c,77,1,4,0.177315
,,,,,,,,,,,,,,,,,,,,,,,,,images/exp1b_trial_111_colour3_distractors43_l.png,l,1,008,001,2021-04-14_18h50.07.767,searchDisc4,2020.2.10,Win32,60,,,,space,8.560405,1,1,1.48995,,0,240,240,225,1,1b,111,3,43,
,,,,,,,,,,,,,,,,,,,,,,,,,images/exp2a_trial_54_colour3_distractors31_r.png,r,2,008,001,2021-04-14_18h50.07.767,searchDisc4,2020.2.10,Win32,60,,,,space,0.19544,2,1,0.81664,,0,241,241,282,1,2a,54,3,31,
,,,,,,,,,,,,,,,,,,,,,,,,,images/exp2a_trial_82_colour2_distractors1_r.png,r,2,008,001,2021-04-14_18h50.07.767,searchDisc4,2020.2.10,Win32,60,,,,space,0.53262,2,1,1.002345,,0,242,242,310,1,2a,82,2,1,
,,,,,,,,,,,,,,,,,,,,,,,,,images/exp2b_trial_51_colour3_distractors4_r.png,r,2,008,001,2021-04-14_18h50.07.767,searchDisc4,2020.2.10,Win32,60,,,,space,0.51282,2,1,0.761015,,0,243,243,393,1,2b,51,3,4,
,,,,,,,,,,,,,,,,,,,,,,,,,images/exp2a_trial_92_colour3_distractors31_r.png,r,2,008,001,2021-04-14_18h50.07.767,searchDisc4,2020.2.10,Win32,60,,,,space,0.15417,2,1,0.74626,,0,244,244,320,1,2a,92,3,31,
,,,,,,,,,,,,,,,,,,,,,,,,,images/exp2c_trial_17_colour3_distractors43_r.png,r,2,008,001,2021-04-14_18h50.07.767,searchDisc4,2020.2.10,Win32,60,,,,space,0.17197,2,1,0.607155,,0,245,245,473,1,2c,17,3,43,
,,,,,,,,,,,,,,,,,,,,,,,,,images/exp1a_trial_67_colour2_distractors43_l.png,l,1,008,001,2021-04-14_18h50.07.767,searchDisc4,2020.2.10,Win32,60,,,,space,0.178825,1,1,0.910265,,0,246,246,67,1,1a,67,2,43,
,,,,,,,,,,,,,,,,,,,,,,,,,images/exp2a_trial_23_colour1_distractors43_l.png,l,1,008,001,2021-04-14_18h50.07.767,searchDisc4,2020.2.10,Win32,60,,,,space,0.168085,1,1,1.059345,,0,247,247,251,1,2a,23,1,43,
,,,,,,,,,,,,,,,,,,,,,,,,,images/exp1a_trial_39_colour1_distractors4_r.png,r,2,008,001,2021-04-14_18h50.07.767,searchDisc4,2020.2.10,Win32,60,,,,space,0.15997,2,1,0.83926,,0,248,248,39,1,1a,39,1,4,
,,,,,,,,,,,,,,,,,,,,,,,,,images/exp2b_trial_97_colour1_distractors19_l.png,l,1,008,001,2021-04-14_18h50.07.767,searchDisc4,2020.2.10,Win32,60,,,,space,0.126835,1,1,0.967075,,0,249,249,439,1,2b,97,1,19,
,,,,,,,,,,,,,,,,,,,,,,,,,images/exp2b_trial_49_colour2_distractors43_r.png,r,2,008,001,2021-04-14_18h50.07.767,searchDisc4,2020.2.10,Win32,60,,,,space,0.13924,2,1,0.73451,,0,250,250,391,1,2b,49,2,43,
,,,,,,,,,,,,,,,,,,,,,,,,,images/exp2b_trial_35_colour3_distractors43_l.png,l,1,008,001,2021-04-14_18h50.07.767,searchDisc4,2020.2.10,Win32,60,,,,space,0.13163,1,1,0.74488,,0,251,251,377,1,2b,35,3,43,
,,,,,,,,,,,,,,,,,,,,,,,,,images/exp2b_trial_26_colour2_distractors9_l.png,l,1,008,001,2021-04-14_18h50.07.767,searchDisc4,2020.2.10,Win32,60,,,,space,0.144785,1,1,0.759995,,0,252,252,368,1,2b,26,2,9,
,,,,,,,,,,,,,,,,,,,,,,,,,images/exp2b_trial_72_colour3_distractors31_l.png,l,1,008,001,2021-04-14_18h50.07.767,searchDisc4,2020.2.10,Win32,60,,,,space,0.16237,1,1,1.084875,,0,253,253,414,1,2b,72,3,31,
,,,,,,,,,,,,,,,,,,,,,,,,,images/exp2b_trial_12_colour3_distractors1_r.png,r,2,008,001,2021-04-14_18h50.07.767,searchDisc4,2020.2.10,Win32,60,,,,space,0.1196,2,1,0.858335,,0,254,254,354,1,2b,12,3,1,
,,,,,,,,,,,,,,,,,,,,,,,,,images/exp2a_trial_64_colour2_distractors9_l.png,l,1,008,001,2021-04-14_18h50.07.767,searchDisc4,2020.2.10,Win32,60,,,,space,0.093665,1,1,0.66596,,0,255,255,292,1,2a,64,2,9,
,,,,,,,,,,,,,,,,,,,,,,,,,images/exp2a_trial_21_colour1_distractors19_l.png,l,1,008,001,2021-04-14_18h50.07.767,searchDisc4,2020.2.10,Win32,60,,,,space,0.104435,1,1,1.19638,,0,256,256,249,1,2a,21,1,19,
,,,,,,,,,,,,,,,,,,,,,,,,,images/exp1b_trial_14_colour3_distractors9_r.png,r,2,008,001,2021-04-14_18h50.07.767,searchDisc4,2020.2.10,Win32,60,,,,space,0.10302,2,1,0.94113,,0,257,257,128,1,1b,14,3,9,
,,,,,,,,,,,,,,,,,,,,,,,,,images/exp2b_trial_87_colour2_distractors43_r.png,r,2,008,001,2021-04-14_18h50.07.767,searchDisc4,2020.2.10,Win32,60,,,,space,0.09487,2,1,0.80138,,0,258,258,429,1,2b,87,2,43,
,,,,,,,,,,,,,,,,,,,,,,,,,images/exp2a_trial_104_colour2_distractors31_l.png,l,1,008,001,2021-04-14_18h50.07.767,searchDisc4,2020.2.10,Win32,60,,,,space,0.04069,1,1,1.10354,,0,259,259,332,1,2a,104,2,31,
,,,,,,,,,,,,,,,,,,,,,,,,,images/exp1a_trial_64_colour2_distractors9_l.png,l,1,008,001,2021-04-14_18h50.07.767,searchDisc4,2020.2.10,Win32,60,,,,space,0.132055,1,1,1.03798,,0,260,260,64,1,1a,64,2,9,
,,,,,,,,,,,,,,,,,,,,,,,,,images/exp1b_trial_93_colour3_distractors43_r.png,r,2,008,001,2021-04-14_18h50.07.767,searchDisc4,2020.2.10,Win32,60,,,,space,0.136675,2,1,3.191745,,0,261,261,207,1,1b,93,3,43,
,,,,,,,,,,,,,,,,,,,,,,,,,images/exp2a_trial_99_colour1_distractors43_l.png,l,1,008,001,2021-04-14_18h50.07.767,searchDisc4,2020.2.10,Win32,60,,,,space,0.14449,1,1,0.81169,,0,262,262,327,1,2a,99,1,43,
,,,,,,,,,,,,,,,,,,,,,,,,,images/exp2b_trial_63_colour2_distractors4_l.png,l,1,008,001,2021-04-14_18h50.07.767,searchDisc4,2020.2.10,Win32,60,,,,space,0.12935,1,1,0.769795,,0,263,263,405,1,2b,63,2,4,
,,,,,,,,,,,,,,,,,,,,,,,,,images/exp1b_trial_6_colour2_distractors1_r.png,r,2,008,001,2021-04-14_18h50.07.767,searchDisc4,2020.2.10,Win32,60,,,,space,0.137715,2,1,0.64901,,0,264,264,120,1,1b,6,2,1,
,,,,,,,,,,,,,,,,,,,,,,,,,images/exp2c_trial_42_colour1_distractors31_r.png,r,2,008,001,2021-04-14_18h50.07.767,searchDisc4,2020.2.10,Win32,60,,,,space,0.172585,2,1,0.70299,,0,265,265,498,1,2c,42,1,31,
,,,,,,,,,,,,,,,,,,,,,,,,,images/exp2a_trial_24_colour2_distractors1_l.png,l,1,008,001,2021-04-14_18h50.07.767,searchDisc4,2020.2.10,Win32,60,,,,space,0.11262,1,1,0.97865,,0,266,266,252,1,2a,24,2,1,
,,,,,,,,,,,,,,,,,,,,,,,,,images/exp2b_trial_105_colour2_distractors43_l.png,l,1,008,001,2021-04-14_18h50.07.767,searchDisc4,2020.2.10,Win32,60,,,,space,0.125295,1,1,0.716665,,0,267,267,447,1,2b,105,2,43,
,,,,,,,,,,,,,,,,,,,,,,,,,images/exp2a_trial_53_colour3_distractors19_r.png,r,2,008,001,2021-04-14_18h50.07.767,searchDisc4,2020.2.10,Win32,60,,,,space,0.06462,2,1,0.62757,,0,268,268,281,1,2a,53,3,19,
,,,,,,,,,,,,,,,,,,,,,,,,,images/exp2c_trial_76_colour1_distractors1_r.png,r,2,008,001,2021-04-14_18h50.07.767,searchDisc4,2020.2.10,Win32,60,,,,space,0.093265,2,1,0.723265,,0,269,269,532,1,2c,76,1,1,
,,,,,,,,,,,,,,,,,,,,,,,,,images/exp2a_trial_31_colour3_distractors4_l.png,l,1,008,001,2021-04-14_18h50.07.767,searchDisc4,2020.2.10,Win32,60,,,,space,0.107205,1,1,0.641775,,0,270,270,259,1,2a,31,3,4,
,,,,,,,,,,,,,,,,,,,,,,,,,images/exp2c_trial_79_colour1_distractors19_r.png,r,2,008,001,2021-04-14_18h50.07.767,searchDisc4,2020.2.10,Win32,60,,,,space,0.14846,2,1,0.71674,,0,271,271,535,1,2c,79,1,19,
,,,,,,,,,,,,,,,,,,,,,,,,,images/exp1a_trial_10_colour2_distractors31_r.png,r,2,008,001,2021-04-14_18h50.07.767,searchDisc4,2020.2.10,Win32,60,,,,space,0.080655,2,1,0.955185,,0,272,272,10,1,1a,10,2,31,
,,,,,,,,,,,,,,,,,,,,,,,,,images/exp1b_trial_77_colour1_distractors4_r.png,r,2,008,001,2021-04-14_18h50.07.767,searchDisc4,2020.2.10,Win32,60,,,,space,0.1099,2,1,2.486925,,0,273,273,191,1,1b,77,1,4,
,,,,,,,,,,,,,,,,,,,,,,,,,images/exp1b_trial_74_colour0_distractors0_r.png,r,2,008,001,2021-04-14_18h50.07.767,searchDisc4,2020.2.10,Win32,60,,,,space,0.07718,2,1,0.653215,,0,274,274,188,1,1b,74,0,0,
,,,,,,,,,,,,,,,,,,,,,,,,,images/exp2c_trial_68_colour3_distractors1_l.png,l,1,008,001,2021-04-14_18h50.07.767,searchDisc4,2020.2.10,Win32,60,,,,space,0.11628,1,1,1.13459,,0,275,275,524,1,2c,68,3,1,
,,,,,,,,,,,,,,,,,,,,,,,,,images/exp2a_trial_90_colour3_distractors9_r.png,r,2,008,001,2021-04-14_18h50.07.767,searchDisc4,2020.2.10,Win32,60,,,,space,0.099615,2,1,0.862225,,0,276,276,318,1,2a,90,3,9,
,,,,,,,,,,,,,,,,,,,,,,,,,images/exp1a_trial_32_colour3_distractors9_l.png,l,1,008,001,2021-04-14_18h50.07.767,searchDisc4,2020.2.10,Win32,60,,,,space,0.09746,1,1,0.82933,,0,277,277,32,1,1a,32,3,9,
,,,,,,,,,,,,,,,,,,,,,,,,,images/exp1b_trial_41_colour1_distractors19_r.png,r,2,008,001,2021-04-14_18h50.07.767,searchDisc4,2020.2.10,Win32,60,,,,space,0.14678,2,1,2.19605,,0,278,278,155,1,1b,41,1,19,
,,,,,,,,,,,,,,,,,,,,,,,,,images/exp2c_trial_22_colour1_distractors31_l.png,l,1,008,001,2021-04-14_18h50.07.767,searchDisc4,2020.2.10,Win32,60,,,,space,0.11709,1,1,0.9093,,0,279,279,478,1,2c,22,1,31,
,,,,,,,,,,,,,,,,,,,,,,,,,images/exp1b_trial_3_colour1_distractors19_r.png,r,2,008,001,2021-04-14_18h50.07.767,searchDisc4,2020.2.10,Win32,60,,,,space,0.16107,,0,,,0,280,280,117,1,1b,3,1,19,
,,,,,,,,,,,,,,,,,,,,,,,,,images/exp1a_trial_41_colour1_distractors19_r.png,r,2,008,001,2021-04-14_18h50.07.767,searchDisc4,2020.2.10,Win32,60,,,,space,0.847455,2,1,0.60044,,0,281,281,41,1,1a,41,1,19,
,,,,,,,,,,,,,,,,,,,,,,,,,images/exp1b_trial_7_colour2_distractors4_r.png,r,2,008,001,2021-04-14_18h50.07.767,searchDisc4,2020.2.10,Win32,60,,,,space,0.112525,2,1,1.029215,,0,282,282,121,1,1b,7,2,4,
,,,,,,,,,,,,,,,,,,,,,,,,,images/exp1a_trial_21_colour1_distractors19_l.png,l,1,008,001,2021-04-14_18h50.07.767,searchDisc4,2020.2.10,Win32,60,,,,space,0.11675,1,1,1.056435,,0,283,283,21,1,1a,21,1,19,
,,,,,,,,,,,,,,,,,,,,,,,,,images/exp1a_trial_8_colour2_distractors9_r.png,r,2,008,001,2021-04-14_18h50.07.767,searchDisc4,2020.2.10,Win32,60,,,,space,0.133715,2,1,0.70455,,0,284,284,8,1,1a,8,2,9,
,,,,,,,,,,,,,,,,,,,,,,,,,images/exp2c_trial_34_colour3_distractors31_l.png,l,1,008,001,2021-04-14_18h50.07.767,searchDisc4,2020.2.10,Win32,60,,,,space,0.104445,1,1,0.722255,,0,285,285,490,1,2c,34,3,31,
,,,,,,,,,,,,,,,,,,,,,,,,,images/exp2b_trial_78_colour1_distractors9_r.png,r,2,008,001,2021-04-14_18h50.07.767,searchDisc4,2020.2.10,Win32,60,,,,space,0.13048,2,1,0.672465,,0,286,286,420,1,2b,78,1,9,
,,,,,,,,,,,,,,,,,,,,,,,,,images/exp1a_trial_3_colour1_distractors19_r.png,r,2,008,001,2021-04-14_18h50.07.767,searchDisc4,2020.2.10,Win32,60,,,,space,0.09221,2,1,1.048215,,0,287,287,3,1,1a,3,1,19,
,,,,,,,,,,,,,,,,,,,,,,,,,images/exp1a_trial_78_colour1_distractors9_r.png,r,2,008,001,2021-04-14_18h50.07.767,searchDisc4,2020.2.10,Win32,60,,,,space,0.496655,2,1,0.784085,,0,288,288,78,1,1a,78,1,9,
,,,,,,,,,,,,,,,,,,,,,,,,,images/exp2a_trial_85_colour2_distractors19_r.png,r,2,008,001,2021-04-14_18h50.07.767,searchDisc4,2020.2.10,Win32,60,,,,space,0.125575,2,1,0.655385,,0,289,289,313,1,2a,85,2,19,
,,,,,,,,,,,,,,,,,,,,,,,,,images/exp1a_trial_77_colour1_distractors4_r.png,r,2,008,001,2021-04-14_18h50.07.767,searchDisc4,2020.2.10,Win32,60,,,,space,0.104505,2,1,0.61189,,0,290,290,77,1,1a,77,1,4,
,,,,,,,,,,,,,,,,,,,,,,,,,images/exp1b_trial_57_colour1_distractors4_l.png,l,1,008,001,2021-04-14_18h50.07.767,searchDisc4,2020.2.10,Win32,60,,,,space,0.15256,1,1,1.01824,,0,291,291,171,1,1b,57,1,4,
,,,,,,,,,,,,,,,,,,,,,,,,,images/exp2c_trial_105_colour2_distractors43_l.png,l,1,008,001,2021-04-14_18h50.07.767,searchDisc4,2020.2.10,Win32,60,,,,space,0.136315,1,1,1.068935,,0,292,292,561,1,2c,105,2,43,
,,,,,,,,,,,,,,,,,,,,,,,,,images/exp2c_trial_89_colour3_distractors4_r.png,r,2,008,001,2021-04-14_18h50.07.767,searchDisc4,2020.2.10,Win32,60,,,,space,0.11608,2,1,0.66481,,0,293,293,545,1,2c,89,3,4,
,,,,,,,,,,,,,,,,,,,,,,,,,images/exp2c_trial_72_colour3_distractors31_l.png,l,1,008,001,2021-04-14_18h50.07.767,searchDisc4,2020.2.10,Win32,60,,,,space,0.08264,1,1,0.906745,,0,294,294,528,1,2c,72,3,31,
,,,,,,,,,,,,,,,,,,,,,,,,,images/exp1b_trial_46_colour2_distractors9_r.png,r,2,008,001,2021-04-14_18h50.07.767,searchDisc4,2020.2.10,Win32,60,,,,space,0.12529,2,1,0.779305,,0,295,295,160,1,1b,46,2,9,
,,,,,,,,,,,,,,,,,,,,,,,,,images/exp1a_trial_70_colour3_distractors9_l.png,l,1,008,001,2021-04-14_18h50.07.767,searchDisc4,2020.2.10,Win32,60,,,,space,0.10852,1,1,0.69587,,0,296,296,70,1,1a,70,3,9,
,,,,,,,,,,,,,,,,,,,,,,,,,images/exp2c_trial_1_colour1_distractors4_r.png,r,2,008,001,2021-04-14_18h50.07.767,searchDisc4,2020.2.10,Win32,60,,,,space,0.12922,2,1,0.68061,,0,297,297,457,1,2c,1,1,4,
,,,,,,,,,,,,,,,,,,,,,,,,,images/exp2a_trial_4_colour1_distractors31_r.png,r,2,008,001,2021-04-14_18h50.07.767,searchDisc4,2020.2.10,Win32,60,,,,space,0.09755,2,1,1.674285,,0,298,298,232,1,2a,4,1,31,
,,,,,,,,,,,,,,,,,,,,,,,,,images/exp2c_trial_24_colour2_distractors1_l.png,l,1,008,001,2021-04-14_18h50.07.767,searchDisc4,2020.2.10,Win32,60,,,,space,0.11187,1,1,0.9641,space,0,299,299,480,1,2c,24,2,1,0.10289
,,,,,,,,,,,,,,,,,,,,,,,,,images/exp1b_trial_0_colour1_distractors1_r.png,r,2,008,001,2021-04-14_18h50.07.767,searchDisc4,2020.2.10,Win32,60,,,,space,14.8501,2,1,1.04829,,0,300,300,114,1,1b,0,1,1,
,,,,,,,,,,,,,,,,,,,,,,,,,images/exp1b_trial_29_colour2_distractors43_l.png,l,1,008,001,2021-04-14_18h50.07.767,searchDisc4,2020.2.10,Win32,60,,,,space,0.30887,1,1,1.119745,,0,301,301,143,1,1b,29,2,43,
,,,,,,,,,,,,,,,,,,,,,,,,,images/exp2b_trial_64_colour2_distractors9_l.png,l,1,008,001,2021-04-14_18h50.07.767,searchDisc4,2020.2.10,Win32,60,,,,space,0.1535,1,1,0.730235,,0,302,302,406,1,2b,64,2,9,
,,,,,,,,,,,,,,,,,,,,,,,,,images/exp1b_trial_90_colour3_distractors9_r.png,r,2,008,001,2021-04-14_18h50.07.767,searchDisc4,2020.2.10,Win32,60,,,,space,0.15449,2,1,0.712465,,0,303,303,204,1,1b,90,3,9,
,,,,,,,,,,,,,,,,,,,,,,,,,images/exp2a_trial_112_colour0_distractors0_r.png,r,2,008,001,2021-04-14_18h50.07.767,searchDisc4,2020.2.10,Win32,60,,,,space,0.135455,2,1,0.66484,,0,304,304,340,1,2a,112,0,0,
,,,,,,,,,,,,,,,,,,,,,,,,,images/exp1a_trial_14_colour3_distractors9_r.png,r,2,008,001,2021-04-14_18h50.07.767,searchDisc4,2020.2.10,Win32,60,,,,space,0.128755,2,1,0.737625,,0,305,305,14,1,1a,14,3,9,
,,,,,,,,,,,,,,,,,,,,,,,,,images/exp1a_trial_58_colour1_distractors9_l.png,l,1,008,001,2021-04-14_18h50.07.767,searchDisc4,2020.2.10,Win32,60,,,,space,0.27819,1,1,0.50444,,0,306,306,58,1,1a,58,1,9,
,,,,,,,,,,,,,,,,,,,,,,,,,images/exp1a_trial_25_colour2_distractors4_l.png,l,1,008,001,2021-04-14_18h50.07.767,searchDisc4,2020.2.10,Win32,60,,,,space,0.14715,1,1,0.970225,,0,307,307,25,1,1a,25,2,4,
,,,,,,,,,,,,,,,,,,,,,,,,,images/exp2b_trial_89_colour3_distractors4_r.png,r,2,008,001,2021-04-14_18h50.07.767,searchDisc4,2020.2.10,Win32,60,,,,space,0.130785,2,1,0.608405,,0,308,308,431,1,2b,89,3,4,
,,,,,,,,,,,,,,,,,,,,,,,,,images/exp2a_trial_77_colour1_distractors4_r.png,r,2,008,001,2021-04-14_18h50.07.767,searchDisc4,2020.2.10,Win32,60,,,,space,0.141185,2,1,0.582215,,0,309,309,305,1,2a,77,1,4,
,,,,,,,,,,,,,,,,,,,,,,,,,images/exp2b_trial_71_colour3_distractors19_l.png,l,1,008,001,2021-04-14_18h50.07.767,searchDisc4,2020.2.10,Win32,60,,,,space,0.09666,1,1,0.669005,,0,310,310,413,1,2b,71,3,19,
,,,,,,,,,,,,,,,,,,,,,,,,,images/exp1b_trial_98_colour1_distractors31_l.png,l,1,008,001,2021-04-14_18h50.07.767,searchDisc4,2020.2.10,Win32,60,,,,space,0.085505,1,1,0.99445,,0,311,311,212,1,1b,98,1,31,
,,,,,,,,,,,,,,,,,,,,,,,,,images/exp1b_trial_75_colour0_distractors0_l.png,l,1,008,001,2021-04-14_18h50.07.767,searchDisc4,2020.2.10,Win32,60,,,,space,0.09752,1,1,0.791475,,0,312,312,189,1,1b,75,0,0,
,,,,,,,,,,,,,,,,,,,,,,,,,images/exp2c_trial_75_colour0_distractors0_l.png,l,1,008,001,2021-04-14_18h50.07.767,searchDisc4,2020.2.10,Win32,60,,,,space,0.115375,1,1,0.72895,,0,313,313,531,1,2c,75,0,0,
,,,,,,,,,,,,,,,,,,,,,,,,,images/exp2a_trial_84_colour2_distractors9_r.png,r,2,008,001,2021-04-14_18h50.07.767,searchDisc4,2020.2.10,Win32,60,,,,space,0.10628,2,1,0.65304,,0,314,314,312,1,2a,84,2,9,
,,,,,,,,,,,,,,,,,,,,,,,,,images/exp2c_trial_99_colour1_distractors43_l.png,l,1,008,001,2021-04-14_18h50.07.767,searchDisc4,2020.2.10,Win32,60,,,,space,0.090435,1,1,0.760405,,0,315,315,555,1,2c,99,1,43,
,,,,,,,,,,,,,,,,,,,,,,,,,images/exp2b_trial_57_colour1_distractors4_l.png,l,1,008,001,2021-04-14_18h50.07.767,searchDisc4,2020.2.10,Win32,60,,,,space,0.08636,1,1,0.675675,,0,316,316,399,1,2b,57,1,4,
,,,,,,,,,,,,,,,,,,,,,,,,,images/exp2c_trial_100_colour2_distractors1_l.png,l,1,008,001,2021-04-14_18h50.07.767,searchDisc4,2020.2.10,Win32,60,,,,space,0.108375,1,1,0.77151,,0,317,317,556,1,2c,100,2,1,
,,,,,,,,,,,,,,,,,,,,,,,,,images/exp1b_trial_99_colour1_distractors43_l.png,l,1,008,001,2021-04-14_18h50.07.767,searchDisc4,2020.2.10,Win32,60,,,,space,0.086625,1,1,0.761395,,0,318,318,213,1,1b,99,1,43,
,,,,,,,,,,,,,,,,,,,,,,,,,images/exp1a_trial_112_colour0_distractors0_r.png,r,2,008,001,2021-04-14_18h50.07.767,searchDisc4,2020.2.10,Win32,60,,,,space,0.128615,2,1,1.198275,,0,319,319,112,1,1a,112,0,0,
,,,,,,,,,,,,,,,,,,,,,,,,,images/exp1b_trial_106_colour3_distractors1_l.png,l,1,008,001,2021-04-14_18h50.07.767,searchDisc4,2020.2.10,Win32,60,,,,space,0.195465,1,1,1.10065,,0,320,320,220,1,1b,106,3,1,
,,,,,,,,,,,,,,,,,,,,,,,,,images/exp2c_trial_28_colour2_distractors31_l.png,l,1,008,001,2021-04-14_18h50.07.767,searchDisc4,2020.2.10,Win32,60,,,,space,0.14317,1,1,0.9319,,0,321,321,484,1,2c,28,2,31,
,,,,,,,,,,,,,,,,,,,,,,,,,images/exp1a_trial_17_colour3_distractors43_r.png,r,2,008,001,2021-04-14_18h50.07.767,searchDisc4,2020.2.10,Win32,60,,,,space,0.12308,2,1,0.670025,,0,322,322,17,1,1a,17,3,43,
,,,,,,,,,,,,,,,,,,,,,,,,,images/exp2b_trial_46_colour2_distractors9_r.png,r,2,008,001,2021-04-14_18h50.07.767,searchDisc4,2020.2.10,Win32,60,,,,space,0.103185,2,1,0.74104,,0,323,323,388,1,2b,46,2,9,
,,,,,,,,,,,,,,,,,,,,,,,,,images/exp2a_trial_113_colour0_distractors0_l.png,l,1,008,001,2021-04-14_18h50.07.767,searchDisc4,2020.2.10,Win32,60,,,,space,0.10443,1,1,0.70268,,0,324,324,341,1,2a,113,0,0,
,,,,,,,,,,,,,,,,,,,,,,,,,images/exp1b_trial_63_colour2_distractors4_l.png,l,1,008,001,2021-04-14_18h50.07.767,searchDisc4,2020.2.10,Win32,60,,,,space,0.109265,1,1,0.999545,,0,325,325,177,1,1b,63,2,4,
,,,,,,,,,,,,,,,,,,,,,,,,,images/exp2b_trial_34_colour3_distractors31_l.png,l,1,008,001,2021-04-14_18h50.07.767,searchDisc4,2020.2.10,Win32,60,,,,space,0.118325,1,1,1.110325,,0,326,326,376,1,2b,34,3,31,
,,,,,,,,,,,,,,,,,,,,,,,,,images/exp1a_trial_34_colour3_distractors31_l.png,l,1,008,001,2021-04-14_18h50.07.767,searchDisc4,2020.2.10,Win32,60,,,,space,0.11239,1,1,0.717685,,0,327,327,34,1,1a,34,3,31,
,,,,,,,,,,,,,,,,,,,,,,,,,images/exp1b_trial_12_colour3_distractors1_r.png,r,2,008,001,2021-04-14_18h50.07.767,searchDisc4,2020.2.10,Win32,60,,,,space,0.087215,2,1,1.001035,,0,328,328,126,1,1b,12,3,1,
,,,,,,,,,,,,,,,,,,,,,,,,,images/exp2a_trial_15_colour3_distractors19_r.png,r,2,008,001,2021-04-14_18h50.07.767,searchDisc4,2020.2.10,Win32,60,,,,space,0.09078,2,1,0.74444,,0,329,329,243,1,2a,15,3,19,
,,,,,,,,,,,,,,,,,,,,,,,,,images/exp2b_trial_62_colour2_distractors1_l.png,l,1,008,001,2021-04-14_18h50.07.767,searchDisc4,2020.2.10,Win32,60,,,,space,0.07662,1,1,0.790265,,0,330,330,404,1,2b,62,2,1,
,,,,,,,,,,,,,,,,,,,,,,,,,images/exp2a_trial_72_colour3_distractors31_l.png,l,1,008,001,2021-04-14_18h50.07.767,searchDisc4,2020.2.10,Win32,60,,,,space,0.086315,1,1,0.92499,,0,331,331,300,1,2a,72,3,31,
,,,,,,,,,,,,,,,,,,,,,,,,,images/exp2a_trial_37_colour0_distractors0_l.png,l,1,008,001,2021-04-14_18h50.07.767,searchDisc4,2020.2.10,Win32,60,,,,space,0.10302,1,1,0.874505,,0,332,332,265,1,2a,37,0,0,
,,,,,,,,,,,,,,,,,,,,,,,,,images/exp1b_trial_65_colour2_distractors19_l.png,l,1,008,001,2021-04-14_18h50.07.767,searchDisc4,2020.2.10,Win32,60,,,,space,0.130705,1,1,2.79589,,0,333,333,179,1,1b,65,2,19,
,,,,,,,,,,,,,,,,,,,,,,,,,images/exp1b_trial_105_colour2_distractors43_l.png,l,1,008,001,2021-04-14_18h50.07.767,searchDisc4,2020.2.10,Win32,60,,,,space,0.080315,1,1,1.17424,,0,334,334,219,1,1b,105,2,43,
,,,,,,,,,,,,,,,,,,,,,,,,,images/exp1a_trial_13_colour3_distractors4_r.png,r,2,008,001,2021-04-14_18h50.07.767,searchDisc4,2020.2.10,Win32,60,,,,space,0.082905,2,1,0.981625,,0,335,335,13,1,1a,13,3,4,
,,,,,,,,,,,,,,,,,,,,,,,,,images/exp2b_trial_90_colour3_distractors9_r.png,r,2,008,001,2021-04-14_18h50.07.767,searchDisc4,2020.2.10,Win32,60,,,,space,0.07057,2,1,0.77297,,0,336,336,432,1,2b,90,3,9,
,,,,,,,,,,,,,,,,,,,,,,,,,images/exp2b_trial_59_colour1_distractors19_l.png,l,1,008,001,2021-04-14_18h50.07.767,searchDisc4,2020.2.10,Win32,60,,,,space,0.06848,1,1,0.752325,,0,337,337,401,1,2b,59,1,19,
,,,,,,,,,,,,,,,,,,,,,,,,,images/exp2c_trial_70_colour3_distractors9_l.png,l,1,008,001,2021-04-14_18h50.07.767,searchDisc4,2020.2.10,Win32,60,,,,space,0.125265,1,1,0.69952,,0,338,338,526,1,2c,70,3,9,
,,,,,,,,,,,,,,,,,,,,,,,,,images/exp1a_trial_104_colour2_distractors31_l.png,l,1,008,001,2021-04-14_18h50.07.767,searchDisc4,2020.2.10,Win32,60,,,,space,0.12089,1,1,0.796965,,0,339,339,104,1,1a,104,2,31,
,,,,,,,,,,,,,,,,,,,,,,,,,images/exp1b_trial_67_colour2_distractors43_l.png,l,1,008,001,2021-04-14_18h50.07.767,searchDisc4,2020.2.10,Win32,60,,,,space,1.77613,1,1,1.755925,,0,340,340,181,1,1b,67,2,43,
,,,,,,,,,,,,,,,,,,,,,,,,,images/exp2b_trial_96_colour1_distractors9_l.png,l,1,008,001,2021-04-14_18h50.07.767,searchDisc4,2020.2.10,Win32,60,,,,space,0.427305,1,1,0.8972,,0,341,341,438,1,2b,96,1,9,
,,,,,,,,,,,,,,,,,,,,,,,,,images/exp2b_trial_93_colour3_distractors43_r.png,r,2,008,001,2021-04-14_18h50.07.767,searchDisc4,2020.2.10,Win32,60,,,,space,0.19113,2,1,1.26318,,0,342,342,435,1,2b,93,3,43,
,,,,,,,,,,,,,,,,,,,,,,,,,images/exp2a_trial_40_colour1_distractors9_r.png,r,2,008,001,2021-04-14_18h50.07.767,searchDisc4,2020.2.10,Win32,60,,,,space,0.169965,2,1,0.904915,,0,343,343,268,1,2a,40,1,9,
,,,,,,,,,,,,,,,,,,,,,,,,,images/exp2c_trial_18_colour1_distractors1_l.png,l,1,008,001,2021-04-14_18h50.07.767,searchDisc4,2020.2.10,Win32,60,,,,space,0.13307,1,1,0.668055,,0,344,344,474,1,2c,18,1,1,
,,,,,,,,,,,,,,,,,,,,,,,,,images/exp2a_trial_89_colour3_distractors4_r.png,r,2,008,001,2021-04-14_18h50.07.767,searchDisc4,2020.2.10,Win32,60,,,,space,0.15605,2,1,0.68115,,0,345,345,317,1,2a,89,3,4,
,,,,,,,,,,,,,,,,,,,,,,,,,images/exp1a_trial_24_colour2_distractors1_l.png,l,1,008,001,2021-04-14_18h50.07.767,searchDisc4,2020.2.10,Win32,60,,,,space,0.195365,1,1,1.098295,,0,346,346,24,1,1a,24,2,1,
,,,,,,,,,,,,,,,,,,,,,,,,,images/exp1b_trial_25_colour2_distractors4_l.png,l,1,008,001,2021-04-14_18h50.07.767,searchDisc4,2020.2.10,Win32,60,,,,space,0.167945,1,1,1.043815,,0,347,347,139,1,1b,25,2,4,
,,,,,,,,,,,,,,,,,,,,,,,,,images/exp2a_trial_25_colour2_distractors4_l.png,l,1,008,001,2021-04-14_18h50.07.767,searchDisc4,2020.2.10,Win32,60,,,,space,0.15404,1,1,0.982945,,0,348,348,253,1,2a,25,2,4,
,,,,,,,,,,,,,,,,,,,,,,,,,images/exp2c_trial_2_colour1_distractors9_r.png,r,2,008,001,2021-04-14_18h50.07.767,searchDisc4,2020.2.10,Win32,60,,,,space,0.15632,2,1,0.884015,,0,349,349,458,1,2c,2,1,9,
,,,,,,,,,,,,,,,,,,,,,,,,,images/exp1b_trial_56_colour1_distractors1_l.png,l,1,008,001,2021-04-14_18h50.07.767,searchDisc4,2020.2.10,Win32,60,,,,space,0.18066,1,1,0.871765,,0,350,350,170,1,1b,56,1,1,
,,,,,,,,,,,,,,,,,,,,,,,,,images/exp1a_trial_81_colour1_distractors43_r.png,r,2,008,001,2021-04-14_18h50.07.767,searchDisc4,2020.2.10,Win32,60,,,,space,0.331435,2,1,0.589105,,0,351,351,81,1,1a,81,1,43,
,,,,,,,,,,,,,,,,,,,,,,,,,images/exp1b_trial_102_colour2_distractors9_l.png,l,1,008,001,2021-04-14_18h50.07.767,searchDisc4,2020.2.10,Win32,60,,,,space,0.20067,1,1,0.826935,,0,352,352,216,1,1b,102,2,9,
,,,,,,,,,,,,,,,,,,,,,,,,,images/exp2b_trial_50_colour3_distractors1_r.png,r,2,008,001,2021-04-14_18h50.07.767,searchDisc4,2020.2.10,Win32,60,,,,space,0.16689,2,1,0.860095,,0,353,353,392,1,2b,50,3,1,
,,,,,,,,,,,,,,,,,,,,,,,,,images/exp2a_trial_98_colour1_distractors31_l.png,l,1,008,001,2021-04-14_18h50.07.767,searchDisc4,2020.2.10,Win32,60,,,,space,0.173815,1,1,0.781875,,0,354,354,326,1,2a,98,1,31,
,,,,,,,,,,,,,,,,,,,,,,,,,images/exp2a_trial_78_colour1_distractors9_r.png,r,2,008,001,2021-04-14_18h50.07.767,searchDisc4,2020.2.10,Win32,60,,,,space,0.21426,2,1,0.987915,,0,355,355,306,1,2a,78,1,9,
,,,,,,,,,,,,,,,,,,,,,,,,,images/exp2a_trial_2_colour1_distractors9_r.png,r,2,008,001,2021-04-14_18h50.07.767,searchDisc4,2020.2.10,Win32,60,,,,space,0.33664,2,1,1.144315,,0,356,356,230,1,2a,2,1,9,
,,,,,,,,,,,,,,,,,,,,,,,,,images/exp2c_trial_0_colour1_distractors1_r.png,r,2,008,001,2021-04-14_18h50.07.767,searchDisc4,2020.2.10,Win32,60,,,,space,0.101235,2,1,0.7027,,0,357,357,456,1,2c,0,1,1,
,,,,,,,,,,,,,,,,,,,,,,,,,images/exp1a_trial_62_colour2_distractors1_l.png,l,1,008,001,2021-04-14_18h50.07.767,searchDisc4,2020.2.10,Win32,60,,,,space,0.189425,1,1,1.007685,,0,358,358,62,1,1a,62,2,1,
,,,,,,,,,,,,,,,,,,,,,,,,,images/exp2b_trial_47_colour2_distractors19_r.png,r,2,008,001,2021-04-14_18h50.07.767,searchDisc4,2020.2.10,Win32,60,,,,space,0.140095,2,1,0.64245,space,0,359,359,389,1,2b,47,2,19,0.149045
,,,,,,,,,,,,,,,,,,,,,,,,,images/exp1a_trial_105_colour2_distractors43_l.png,l,1,008,001,2021-04-14_18h50.07.767,searchDisc4,2020.2.10,Win32,60,,,,space,2.3573,1,1,0.91453,,0,360,360,105,1,1a,105,2,43,
,,,,,,,,,,,,,,,,,,,,,,,,,images/exp2c_trial_44_colour2_distractors1_r.png,r,2,008,001,2021-04-14_18h50.07.767,searchDisc4,2020.2.10,Win32,60,,,,space,0.142815,2,1,0.984585,,0,361,361,500,1,2c,44,2,1,
,,,,,,,,,,,,,,,,,,,,,,,,,images/exp2c_trial_93_colour3_distractors43_r.png,r,2,008,001,2021-04-14_18h50.07.767,searchDisc4,2020.2.10,Win32,60,,,,space,0.49179,2,1,0.710435,,0,362,362,549,1,2c,93,3,43,
,,,,,,,,,,,,,,,,,,,,,,,,,images/exp1b_trial_39_colour1_distractors4_r.png,r,2,008,001,2021-04-14_18h50.07.767,searchDisc4,2020.2.10,Win32,60,,,,space,0.56048,2,1,0.74517,,0,363,363,153,1,1b,39,1,4,
,,,,,,,,,,,,,,,,,,,,,,,,,images/exp2a_trial_36_colour0_distractors0_r.png,r,2,008,001,2021-04-14_18h50.07.767,searchDisc4,2020.2.10,Win32,60,,,,space,0.43077,2,1,0.728955,,0,364,364,264,1,2a,36,0,0,
,,,,,,,,,,,,,,,,,,,,,,,,,images/exp2a_trial_47_colour2_distractors19_r.png,r,2,008,001,2021-04-14_18h50.07.767,searchDisc4,2020.2.10,Win32,60,,,,space,0.44467,2,1,0.69613,,0,365,365,275,1,2a,47,2,19,
,,,,,,,,,,,,,,,,,,,,,,,,,images/exp2b_trial_16_colour3_distractors31_r.png,r,2,008,001,2021-04-14_18h50.07.767,searchDisc4,2020.2.10,Win32,60,,,,space,0.401415,2,1,0.94686,,0,366,366,358,1,2b,16,3,31,
,,,,,,,,,,,,,,,,,,,,,,,,,images/exp1b_trial_11_colour2_distractors43_r.png,r,2,008,001,2021-04-14_18h50.07.767,searchDisc4,2020.2.10,Win32,60,,,,space,0.451645,2,1,1.22387,,0,367,367,125,1,1b,11,2,43,
,,,,,,,,,,,,,,,,,,,,,,,,,images/exp2b_trial_8_colour2_distractors9_r.png,r,2,008,001,2021-04-14_18h50.07.767,searchDisc4,2020.2.10,Win32,60,,,,space,0.347415,2,1,0.703285,,0,368,368,350,1,2b,8,2,9,
,,,,,,,,,,,,,,,,,,,,,,,,,images/exp2c_trial_55_colour3_distractors43_r.png,r,2,008,001,2021-04-14_18h50.07.767,searchDisc4,2020.2.10,Win32,60,,,,space,0.28635,2,1,0.829945,,0,369,369,511,1,2c,55,3,43,
,,,,,,,,,,,,,,,,,,,,,,,,,images/exp2b_trial_45_colour2_distractors4_r.png,r,2,008,001,2021-04-14_18h50.07.767,searchDisc4,2020.2.10,Win32,60,,,,space,0.332755,2,1,0.64609,,0,370,370,387,1,2b,45,2,4,
,,,,,,,,,,,,,,,,,,,,,,,,,images/exp1b_trial_87_colour2_distractors43_r.png,r,2,008,001,2021-04-14_18h50.07.767,searchDisc4,2020.2.10,Win32,60,,,,space,0.21546,2,1,1.17464,,0,371,371,201,1,1b,87,2,43,
,,,,,,,,,,,,,,,,,,,,,,,,,images/exp1b_trial_27_colour2_distractors19_l.png,l,1,008,001,2021-04-14_18h50.07.767,searchDisc4,2020.2.10,Win32,60,,,,space,0.23205,1,1,0.695115,,0,372,372,141,1,1b,27,2,19,
,,,,,,,,,,,,,,,,,,,,,,,,,images/exp2b_trial_48_colour2_distractors31_r.png,r,2,008,001,2021-04-14_18h50.07.767,searchDisc4,2020.2.10,Win32,60,,,,space,0.14185,2,1,0.94035,,0,373,373,390,1,2b,48,2,31,
,,,,,,,,,,,,,,,,,,,,,,,,,images/exp1a_trial_72_colour3_distractors31_l.png,l,1,008,001,2021-04-14_18h50.07.767,searchDisc4,2020.2.10,Win32,60,,,,space,0.343585,1,1,0.67936,,0,374,374,72,1,1a,72,3,31,
,,,,,,,,,,,,,,,,,,,,,,,,,images/exp2a_trial_0_colour1_distractors1_r.png,r,2,008,001,2021-04-14_18h50.07.767,searchDisc4,2020.2.10,Win32,60,,,,space,0.298875,2,1,0.633375,,0,375,375,228,1,2a,0,1,1,
,,,,,,,,,,,,,,,,,,,,,,,,,images/exp2c_trial_15_colour3_distractors19_r.png,r,2,008,001,2021-04-14_18h50.07.767,searchDisc4,2020.2.10,Win32,60,,,,space,0.22859,2,1,0.598395,,0,376,376,471,1,2c,15,3,19,
,,,,,,,,,,,,,,,,,,,,,,,,,images/exp2a_trial_61_colour1_distractors43_l.png,l,1,008,001,2021-04-14_18h50.07.767,searchDisc4,2020.2.10,Win32,60,,,,space,0.30841,1,1,0.950695,,0,377,377,289,1,2a,61,1,43,
,,,,,,,,,,,,,,,,,,,,,,,,,images/exp1a_trial_20_colour1_distractors9_l.png,l,1,008,001,2021-04-14_18h50.07.767,searchDisc4,2020.2.10,Win32,60,,,,space,0.269955,1,1,0.64441,,0,378,378,20,1,1a,20,1,9,
,,,,,,,,,,,,,,,,,,,,,,,,,images/exp2c_trial_103_colour2_distractors19_l.png,l,1,008,001,2021-04-14_18h50.07.767,searchDisc4,2020.2.10,Win32,60,,,,space,0.229435,1,1,0.60229,,0,379,379,559,1,2c,103,2,19,
,,,,,,,,,,,,,,,,,,,,,,,,,images/exp1a_trial_98_colour1_distractors31_l.png,l,1,008,001,2021-04-14_18h50.07.767,searchDisc4,2020.2.10,Win32,60,,,,space,0.353865,1,1,1.070165,,0,380,380,98,1,1a,98,1,31,
,,,,,,,,,,,,,,,,,,,,,,,,,images/exp2a_trial_1_colour1_distractors4_r.png,r,2,008,001,2021-04-14_18h50.07.767,searchDisc4,2020.2.10,Win32,60,,,,space,0.26783,2,1,1.175575,,0,381,381,229,1,2a,1,1,4,
,,,,,,,,,,,,,,,,,,,,,,,,,images/exp2a_trial_67_colour2_distractors43_l.png,l,1,008,001,2021-04-14_18h50.07.767,searchDisc4,2020.2.10,Win32,60,,,,space,0.242075,1,1,0.770015,,0,382,382,295,1,2a,67,2,43,
,,,,,,,,,,,,,,,,,,,,,,,,,images/exp1a_trial_43_colour1_distractors43_r.png,r,2,008,001,2021-04-14_18h50.07.767,searchDisc4,2020.2.10,Win32,60,,,,space,0.242045,2,1,0.831465,,0,383,383,43,1,1a,43,1,43,
,,,,,,,,,,,,,,,,,,,,,,,,,images/exp2b_trial_22_colour1_distractors31_l.png,l,1,008,001,2021-04-14_18h50.07.767,searchDisc4,2020.2.10,Win32,60,,,,space,0.251,1,1,0.641105,,0,384,384,364,1,2b,22,1,31,
,,,,,,,,,,,,,,,,,,,,,,,,,images/exp1b_trial_37_colour0_distractors0_l.png,l,1,008,001,2021-04-14_18h50.07.767,searchDisc4,2020.2.10,Win32,60,,,,space,0.264165,1,1,0.730705,,0,385,385,151,1,1b,37,0,0,
,,,,,,,,,,,,,,,,,,,,,,,,,images/exp1a_trial_0_colour1_distractors1_r.png,r,2,008,001,2021-04-14_18h50.07.767,searchDisc4,2020.2.10,Win32,60,,,,space,0.21243,1,0,0.63616,,0,386,386,0,1,1a,0,1,1,
,,,,,,,,,,,,,,,,,,,,,,,,,images/exp2b_trial_76_colour1_distractors1_r.png,r,2,008,001,2021-04-14_18h50.07.767,searchDisc4,2020.2.10,Win32,60,,,,space,0.20766,2,1,1.685385,,0,387,387,418,1,2b,76,1,1,
,,,,,,,,,,,,,,,,,,,,,,,,,images/exp1b_trial_62_colour2_distractors1_l.png,l,1,008,001,2021-04-14_18h50.07.767,searchDisc4,2020.2.10,Win32,60,,,,space,0.56789,1,1,0.75973,,0,388,388,176,1,1b,62,2,1,
,,,,,,,,,,,,,,,,,,,,,,,,,images/exp2c_trial_30_colour3_distractors1_l.png,l,1,008,001,2021-04-14_18h50.07.767,searchDisc4,2020.2.10,Win32,60,,,,space,0.271095,1,1,0.74422,,0,389,389,486,1,2c,30,3,1,
,,,,,,,,,,,,,,,,,,,,,,,,,images/exp1a_trial_69_colour3_distractors4_l.png,l,1,008,001,2021-04-14_18h50.07.767,searchDisc4,2020.2.10,Win32,60,,,,space,0.23202,1,1,0.88383,,0,390,390,69,1,1a,69,3,4,
,,,,,,,,,,,,,,,,,,,,,,,,,images/exp1a_trial_82_colour2_distractors1_r.png,r,2,008,001,2021-04-14_18h50.07.767,searchDisc4,2020.2.10,Win32,60,,,,space,0.305775,2,1,0.722305,,0,391,391,82,1,1a,82,2,1,
,,,,,,,,,,,,,,,,,,,,,,,,,images/exp1b_trial_20_colour1_distractors9_l.png,l,1,008,001,2021-04-14_18h50.07.767,searchDisc4,2020.2.10,Win32,60,,,,space,0.25713,1,1,0.799825,,0,392,392,134,1,1b,20,1,9,
,,,,,,,,,,,,,,,,,,,,,,,,,images/exp2b_trial_91_colour3_distractors19_r.png,r,2,008,001,2021-04-14_18h50.07.767,searchDisc4,2020.2.10,Win32,60,,,,space,0.22241,2,1,0.625575,,0,393,393,433,1,2b,91,3,19,
,,,,,,,,,,,,,,,,,,,,,,,,,images/exp2c_trial_81_colour1_distractors43_r.png,r,2,008,001,2021-04-14_18h50.07.767,searchDisc4,2020.2.10,Win32,60,,,,space,0.235305,2,1,0.77785,,0,394,394,537,1,2c,81,1,43,
,,,,,,,,,,,,,,,,,,,,,,,,,images/exp2c_trial_74_colour0_distractors0_r.png,r,2,008,001,2021-04-14_18h50.07.767,searchDisc4,2020.2.10,Win32,60,,,,space,0.222515,2,1,0.65436,,0,395,395,530,1,2c,74,0,0,
,,,,,,,,,,,,,,,,,,,,,,,,,images/exp2b_trial_70_colour3_distractors9_l.png,l,1,008,001,2021-04-14_18h50.07.767,searchDisc4,2020.2.10,Win32,60,,,,space,0.25013,1,1,1.001625,,0,396,396,412,1,2b,70,3,9,
,,,,,,,,,,,,,,,,,,,,,,,,,images/exp2b_trial_73_colour3_distractors43_l.png,l,1,008,001,2021-04-14_18h50.07.767,searchDisc4,2020.2.10,Win32,60,,,,space,0.206105,1,1,0.909595,,0,397,397,415,1,2b,73,3,43,
,,,,,,,,,,,,,,,,,,,,,,,,,images/exp2b_trial_67_colour2_distractors43_l.png,l,1,008,001,2021-04-14_18h50.07.767,searchDisc4,2020.2.10,Win32,60,,,,space,0.180765,1,1,0.845065,,0,398,398,409,1,2b,67,2,43,
,,,,,,,,,,,,,,,,,,,,,,,,,images/exp2b_trial_82_colour2_distractors1_r.png,r,2,008,001,2021-04-14_18h50.07.767,searchDisc4,2020.2.10,Win32,60,,,,space,0.180765,2,1,0.709885,,0,399,399,424,1,2b,82,2,1,
,,,,,,,,,,,,,,,,,,,,,,,,,images/exp1a_trial_90_colour3_distractors9_r.png,r,2,008,001,2021-04-14_18h50.07.767,searchDisc4,2020.2.10,Win32,60,,,,space,0.41,2,1,0.62454,,0,400,400,90,1,1a,90,3,9,
,,,,,,,,,,,,,,,,,,,,,,,,,images/exp1b_trial_81_colour1_distractors43_r.png,r,2,008,001,2021-04-14_18h50.07.767,searchDisc4,2020.2.10,Win32,60,,,,space,0.500175,2,1,1.11874,,0,401,401,195,1,1b,81,1,43,
,,,,,,,,,,,,,,,,,,,,,,,,,images/exp2c_trial_39_colour1_distractors4_r.png,r,2,008,001,2021-04-14_18h50.07.767,searchDisc4,2020.2.10,Win32,60,,,,space,0.467215,2,1,0.58658,,0,402,402,495,1,2c,39,1,4,
,,,,,,,,,,,,,,,,,,,,,,,,,images/exp2b_trial_79_colour1_distractors19_r.png,r,2,008,001,2021-04-14_18h50.07.767,searchDisc4,2020.2.10,Win32,60,,,,space,0.55257,2,1,0.606015,,0,403,403,421,1,2b,79,1,19,
,,,,,,,,,,,,,,,,,,,,,,,,,images/exp2a_trial_100_colour2_distractors1_l.png,l,1,008,001,2021-04-14_18h50.07.767,searchDisc4,2020.2.10,Win32,60,,,,space,0.54388,1,1,0.642255,,0,404,404,328,1,2a,100,2,1,
,,,,,,,,,,,,,,,,,,,,,,,,,images/exp2c_trial_62_colour2_distractors1_l.png,l,1,008,001,2021-04-14_18h50.07.767,searchDisc4,2020.2.10,Win32,60,,,,space,0.42381,1,1,0.7087,,0,405,405,518,1,2c,62,2,1,
,,,,,,,,,,,,,,,,,,,,,,,,,images/exp1b_trial_92_colour3_distractors31_r.png,r,2,008,001,2021-04-14_18h50.07.767,searchDisc4,2020.2.10,Win32,60,,,,space,0.18396,,0,,,0,406,406,206,1,1b,92,3,31,
,,,,,,,,,,,,,,,,,,,,,,,,,images/exp1a_trial_7_colour2_distractors4_r.png,r,2,008,001,2021-04-14_18h50.07.767,searchDisc4,2020.2.10,Win32,60,,,,space,1.451645,2,1,0.620695,,0,407,407,7,1,1a,7,2,4,
,,,,,,,,,,,,,,,,,,,,,,,,,images/exp1a_trial_33_colour3_distractors19_l.png,l,1,008,001,2021-04-14_18h50.07.767,searchDisc4,2020.2.10,Win32,60,,,,space,0.18013,1,1,0.67587,,0,408,408,33,1,1a,33,3,19,
,,,,,,,,,,,,,,,,,,,,,,,,,images/exp2a_trial_11_colour2_distractors43_r.png,r,2,008,001,2021-04-14_18h50.07.767,searchDisc4,2020.2.10,Win32,60,,,,space,0.195935,2,1,0.705355,,0,409,409,239,1,2a,11,2,43,
,,,,,,,,,,,,,,,,,,,,,,,,,images/exp2c_trial_41_colour1_distractors19_r.png,r,2,008,001,2021-04-14_18h50.07.767,searchDisc4,2020.2.10,Win32,60,,,,space,0.211735,2,1,0.68987,,0,410,410,497,1,2c,41,1,19,
,,,,,,,,,,,,,,,,,,,,,,,,,images/exp2c_trial_37_colour0_distractors0_l.png,l,1,008,001,2021-04-14_18h50.07.767,searchDisc4,2020.2.10,Win32,60,,,,space,0.212205,1,1,0.743525,,0,411,411,493,1,2c,37,0,0,
,,,,,,,,,,,,,,,,,,,,,,,,,images/exp1b_trial_17_colour3_distractors43_r.png,r,2,008,001,2021-04-14_18h50.07.767,searchDisc4,2020.2.10,Win32,60,,,,space,0.4447,,0,,,0,412,412,131,1,1b,17,3,43,
,,,,,,,,,,,,,,,,,,,,,,,,,images/exp2b_trial_4_colour1_distractors31_r.png,r,2,008,001,2021-04-14_18h50.07.767,searchDisc4,2020.2.10,Win32,60,,,,space,1.61032,2,1,0.88001,,0,413,413,346,1,2b,4,1,31,
,,,,,,,,,,,,,,,,,,,,,,,,,images/exp2b_trial_41_colour1_distractors19_r.png,r,2,008,001,2021-04-14_18h50.07.767,searchDisc4,2020.2.10,Win32,60,,,,space,0.374645,2,1,0.93161,,0,414,414,383,1,2b,41,1,19,
,,,,,,,,,,,,,,,,,,,,,,,,,images/exp2c_trial_13_colour3_distractors4_r.png,r,2,008,001,2021-04-14_18h50.07.767,searchDisc4,2020.2.10,Win32,60,,,,space,0.329825,2,1,0.7403,,0,415,415,469,1,2c,13,3,4,
,,,,,,,,,,,,,,,,,,,,,,,,,images/exp1a_trial_11_colour2_distractors43_r.png,r,2,008,001,2021-04-14_18h50.07.767,searchDisc4,2020.2.10,Win32,60,,,,space,0.31147,2,1,0.779305,,0,416,416,11,1,1a,11,2,43,
,,,,,,,,,,,,,,,,,,,,,,,,,images/exp2a_trial_3_colour1_distractors19_r.png,r,2,008,001,2021-04-14_18h50.07.767,searchDisc4,2020.2.10,Win32,60,,,,space,0.378345,2,1,1.0251,,0,417,417,231,1,2a,3,1,19,
,,,,,,,,,,,,,,,,,,,,,,,,,images/exp2a_trial_80_colour1_distractors31_r.png,r,2,008,001,2021-04-14_18h50.07.767,searchDisc4,2020.2.10,Win32,60,,,,space,0.405835,2,1,0.872585,,0,418,418,308,1,2a,80,1,31,
,,,,,,,,,,,,,,,,,,,,,,,,,images/exp1a_trial_48_colour2_distractors31_r.png,r,2,008,001,2021-04-14_18h50.07.767,searchDisc4,2020.2.10,Win32,60,,,,space,0.726235,2,1,0.69586,space,0,419,419,48,1,1a,48,2,31,20.43715
,,,,,,,,,,,,,,,,,,,,,,,,,images/exp1b_trial_108_colour3_distractors9_l.png,l,1,008,001,2021-04-14_18h50.07.767,searchDisc4,2020.2.10,Win32,60,,,,space,0.433605,1,1,0.74165,,0,420,420,222,1,1b,108,3,9,
,,,,,,,,,,,,,,,,,,,,,,,,,images/exp2b_trial_5_colour1_distractors43_r.png,r,2,008,001,2021-04-14_18h50.07.767,searchDisc4,2020.2.10,Win32,60,,,,space,0.20864,2,1,0.70615,,0,421,421,347,1,2b,5,1,43,
,,,,,,,,,,,,,,,,,,,,,,,,,images/exp1a_trial_102_colour2_distractors9_l.png,l,1,008,001,2021-04-14_18h50.07.767,searchDisc4,2020.2.10,Win32,60,,,,space,0.278465,1,1,0.814295,,0,422,422,102,1,1a,102,2,9,
,,,,,,,,,,,,,,,,,,,,,,,,,images/exp1a_trial_107_colour3_distractors4_l.png,l,1,008,001,2021-04-14_18h50.07.767,searchDisc4,2020.2.10,Win32,60,,,,space,0.213625,1,1,0.75948,,0,423,423,107,1,1a,107,3,4,
,,,,,,,,,,,,,,,,,,,,,,,,,images/exp2a_trial_6_colour2_distractors1_r.png,r,2,008,001,2021-04-14_18h50.07.767,searchDisc4,2020.2.10,Win32,60,,,,space,0.22469,2,1,0.65968,,0,424,424,234,1,2a,6,2,1,
,,,,,,,,,,,,,,,,,,,,,,,,,images/exp1b_trial_2_colour1_distractors9_r.png,r,2,008,001,2021-04-14_18h50.07.767,searchDisc4,2020.2.10,Win32,60,,,,space,0.196555,2,1,0.918865,,0,425,425,116,1,1b,2,1,9,
,,,,,,,,,,,,,,,,,,,,,,,,,images/exp2c_trial_29_colour2_distractors43_l.png,l,1,008,001,2021-04-14_18h50.07.767,searchDisc4,2020.2.10,Win32,60,,,,space,0.208295,1,1,0.65193,,0,426,426,485,1,2c,29,2,43,
,,,,,,,,,,,,,,,,,,,,,,,,,images/exp1b_trial_59_colour1_distractors19_l.png,l,1,008,001,2021-04-14_18h50.07.767,searchDisc4,2020.2.10,Win32,60,,,,space,0.20704,1,1,0.676895,,0,427,427,173,1,1b,59,1,19,
,,,,,,,,,,,,,,,,,,,,,,,,,images/exp2a_trial_7_colour2_distractors4_r.png,r,2,008,001,2021-04-14_18h50.07.767,searchDisc4,2020.2.10,Win32,60,,,,space,0.221245,2,1,0.756565,,0,428,428,235,1,2a,7,2,4,
,,,,,,,,,,,,,,,,,,,,,,,,,images/exp2c_trial_49_colour2_distractors43_r.png,r,2,008,001,2021-04-14_18h50.07.767,searchDisc4,2020.2.10,Win32,60,,,,space,0.18769,2,1,0.730625,,0,429,429,505,1,2c,49,2,43,
,,,,,,,,,,,,,,,,,,,,,,,,,images/exp2c_trial_3_colour1_distractors19_r.png,r,2,008,001,2021-04-14_18h50.07.767,searchDisc4,2020.2.10,Win32,60,,,,space,0.183235,2,1,0.61379,,0,430,430,459,1,2c,3,1,19,
,,,,,,,,,,,,,,,,,,,,,,,,,images/exp2b_trial_58_colour1_distractors9_l.png,l,1,008,001,2021-04-14_18h50.07.767,searchDisc4,2020.2.10,Win32,60,,,,space,0.235185,1,1,0.63968,,0,431,431,400,1,2b,58,1,9,
,,,,,,,,,,,,,,,,,,,,,,,,,images/exp2b_trial_53_colour3_distractors19_r.png,r,2,008,001,2021-04-14_18h50.07.767,searchDisc4,2020.2.10,Win32,60,,,,space,0.21361,2,1,0.75795,,0,432,432,395,1,2b,53,3,19,
,,,,,,,,,,,,,,,,,,,,,,,,,images/exp2a_trial_58_colour1_distractors9_l.png,l,1,008,001,2021-04-14_18h50.07.767,searchDisc4,2020.2.10,Win32,60,,,,space,0.22816,1,1,0.722965,,0,433,433,286,1,2a,58,1,9,
,,,,,,,,,,,,,,,,,,,,,,,,,images/exp1b_trial_83_colour2_distractors4_r.png,r,2,008,001,2021-04-14_18h50.07.767,searchDisc4,2020.2.10,Win32,60,,,,space,0.263115,2,1,0.687915,,0,434,434,197,1,1b,83,2,4,
,,,,,,,,,,,,,,,,,,,,,,,,,images/exp2b_trial_10_colour2_distractors31_r.png,r,2,008,001,2021-04-14_18h50.07.767,searchDisc4,2020.2.10,Win32,60,,,,space,0.311515,2,1,0.85434,,0,435,435,352,1,2b,10,2,31,
,,,,,,,,,,,,,,,,,,,,,,,,,images/exp2b_trial_99_colour1_distractors43_l.png,l,1,008,001,2021-04-14_18h50.07.767,searchDisc4,2020.2.10,Win32,60,,,,space,0.369245,1,1,0.61385,,0,436,436,441,1,2b,99,1,43,
,,,,,,,,,,,,,,,,,,,,,,,,,images/exp1b_trial_71_colour3_distractors19_l.png,l,1,008,001,2021-04-14_18h50.07.767,searchDisc4,2020.2.10,Win32,60,,,,space,0.40114,1,1,3.470465,,0,437,437,185,1,1b,71,3,19,
,,,,,,,,,,,,,,,,,,,,,,,,,images/exp1b_trial_66_colour2_distractors31_l.png,l,1,008,001,2021-04-14_18h50.07.767,searchDisc4,2020.2.10,Win32,60,,,,space,0.107085,1,1,1.15677,,0,438,438,180,1,1b,66,2,31,
,,,,,,,,,,,,,,,,,,,,,,,,,images/exp1a_trial_101_colour2_distractors4_l.png,l,1,008,001,2021-04-14_18h50.07.767,searchDisc4,2020.2.10,Win32,60,,,,space,0.174285,1,1,0.988065,,0,439,439,101,1,1a,101,2,4,
,,,,,,,,,,,,,,,,,,,,,,,,,images/exp2a_trial_18_colour1_distractors1_l.png,l,1,008,001,2021-04-14_18h50.07.767,searchDisc4,2020.2.10,Win32,60,,,,space,0.344465,1,1,0.564515,,0,440,440,246,1,2a,18,1,1,
,,,,,,,,,,,,,,,,,,,,,,,,,images/exp2c_trial_31_colour3_distractors4_l.png,l,1,008,001,2021-04-14_18h50.07.767,searchDisc4,2020.2.10,Win32,60,,,,space,0.250225,1,1,0.654525,,0,441,441,487,1,2c,31,3,4,
,,,,,,,,,,,,,,,,,,,,,,,,,images/exp1b_trial_19_colour1_distractors4_l.png,l,1,008,001,2021-04-14_18h50.07.767,searchDisc4,2020.2.10,Win32,60,,,,space,0.22247,1,1,0.97743,,0,442,442,133,1,1b,19,1,4,
,,,,,,,,,,,,,,,,,,,,,,,,,images/exp1a_trial_27_colour2_distractors19_l.png,l,1,008,001,2021-04-14_18h50.07.767,searchDisc4,2020.2.10,Win32,60,,,,space,0.18767,1,1,0.878955,,0,443,443,27,1,1a,27,2,19,
,,,,,,,,,,,,,,,,,,,,,,,,,images/exp2b_trial_1_colour1_distractors4_r.png,r,2,008,001,2021-04-14_18h50.07.767,searchDisc4,2020.2.10,Win32,60,,,,space,0.201385,2,1,0.73353,,0,444,444,343,1,2b,1,1,4,
,,,,,,,,,,,,,,,,,,,,,,,,,images/exp1a_trial_63_colour2_distractors4_l.png,l,1,008,001,2021-04-14_18h50.07.767,searchDisc4,2020.2.10,Win32,60,,,,space,0.225815,1,1,1.0259,,0,445,445,63,1,1a,63,2,4,
,,,,,,,,,,,,,,,,,,,,,,,,,images/exp2a_trial_95_colour1_distractors4_l.png,l,1,008,001,2021-04-14_18h50.07.767,searchDisc4,2020.2.10,Win32,60,,,,space,0.19697,1,1,0.724265,,0,446,446,323,1,2a,95,1,4,
,,,,,,,,,,,,,,,,,,,,,,,,,images/exp2c_trial_108_colour3_distractors9_l.png,l,1,008,001,2021-04-14_18h50.07.767,searchDisc4,2020.2.10,Win32,60,,,,space,0.20798,1,1,0.744475,,0,447,447,564,1,2c,108,3,9,
,,,,,,,,,,,,,,,,,,,,,,,,,images/exp1b_trial_80_colour1_distractors31_r.png,r,2,008,001,2021-04-14_18h50.07.767,searchDisc4,2020.2.10,Win32,60,,,,space,0.22936,2,1,1.146525,,0,448,448,194,1,1b,80,1,31,
,,,,,,,,,,,,,,,,,,,,,,,,,images/exp2c_trial_63_colour2_distractors4_l.png,l,1,008,001,2021-04-14_18h50.07.767,searchDisc4,2020.2.10,Win32,60,,,,space,0.187535,1,1,0.662135,,0,449,449,519,1,2c,63,2,4,
,,,,,,,,,,,,,,,,,,,,,,,,,images/exp2c_trial_78_colour1_distractors9_r.png,r,2,008,001,2021-04-14_18h50.07.767,searchDisc4,2020.2.10,Win32,60,,,,space,0.206965,2,1,0.59698,,0,450,450,534,1,2c,78,1,9,
,,,,,,,,,,,,,,,,,,,,,,,,,images/exp1b_trial_45_colour2_distractors4_r.png,r,2,008,001,2021-04-14_18h50.07.767,searchDisc4,2020.2.10,Win32,60,,,,space,0.208755,2,1,0.647165,,0,451,451,159,1,1b,45,2,4,
,,,,,,,,,,,,,,,,,,,,,,,,,images/exp1a_trial_40_colour1_distractors9_r.png,r,2,008,001,2021-04-14_18h50.07.767,searchDisc4,2020.2.10,Win32,60,,,,space,0.187545,2,1,0.589625,,0,452,452,40,1,1a,40,1,9,
,,,,,,,,,,,,,,,,,,,,,,,,,images/exp2a_trial_107_colour3_distractors4_l.png,l,1,008,001,2021-04-14_18h50.07.767,searchDisc4,2020.2.10,Win32,60,,,,space,0.220105,1,1,0.53707,,0,453,453,335,1,2a,107,3,4,
,,,,,,,,,,,,,,,,,,,,,,,,,images/exp1b_trial_1_colour1_distractors4_r.png,r,2,008,001,2021-04-14_18h50.07.767,searchDisc4,2020.2.10,Win32,60,,,,space,0.20877,2,1,0.547635,,0,454,454,115,1,1b,1,1,4,
,,,,,,,,,,,,,,,,,,,,,,,,,images/exp2b_trial_0_colour1_distractors1_r.png,r,2,008,001,2021-04-14_18h50.07.767,searchDisc4,2020.2.10,Win32,60,,,,space,0.215495,2,1,0.500025,,0,455,455,342,1,2b,0,1,1,
,,,,,,,,,,,,,,,,,,,,,,,,,images/exp1a_trial_74_colour0_distractors0_r.png,r,2,008,001,2021-04-14_18h50.07.767,searchDisc4,2020.2.10,Win32,60,,,,space,0.203695,2,1,0.515885,,0,456,456,74,1,1a,74,0,0,
,,,,,,,,,,,,,,,,,,,,,,,,,images/exp1b_trial_60_colour1_distractors31_l.png,l,1,008,001,2021-04-14_18h50.07.767,searchDisc4,2020.2.10,Win32,60,,,,space,0.210745,1,1,1.040965,,0,457,457,174,1,1b,60,1,31,
,,,,,,,,,,,,,,,,,,,,,,,,,images/exp2c_trial_27_colour2_distractors19_l.png,l,1,008,001,2021-04-14_18h50.07.767,searchDisc4,2020.2.10,Win32,60,,,,space,0.168205,1,1,0.864045,,0,458,458,483,1,2c,27,2,19,
,,,,,,,,,,,,,,,,,,,,,,,,,images/exp1b_trial_18_colour1_distractors1_l.png,l,1,008,001,2021-04-14_18h50.07.767,searchDisc4,2020.2.10,Win32,60,,,,space,0.193355,1,1,1.045345,,0,459,459,132,1,1b,18,1,1,
,,,,,,,,,,,,,,,,,,,,,,,,,images/exp1a_trial_16_colour3_distractors31_r.png,r,2,008,001,2021-04-14_18h50.07.767,searchDisc4,2020.2.10,Win32,60,,,,space,0.184945,2,1,0.908075,,0,460,460,16,1,1a,16,3,31,
,,,,,,,,,,,,,,,,,,,,,,,,,images/exp2a_trial_48_colour2_distractors31_r.png,r,2,008,001,2021-04-14_18h50.07.767,searchDisc4,2020.2.10,Win32,60,,,,space,0.207055,2,1,1.04309,,0,461,461,276,1,2a,48,2,31,
,,,,,,,,,,,,,,,,,,,,,,,,,images/exp1b_trial_23_colour1_distractors43_l.png,l,1,008,001,2021-04-14_18h50.07.767,searchDisc4,2020.2.10,Win32,60,,,,space,0.16888,1,1,1.001005,,0,462,462,137,1,1b,23,1,43,
,,,,,,,,,,,,,,,,,,,,,,,,,images/exp1a_trial_30_colour3_distractors1_l.png,l,1,008,001,2021-04-14_18h50.07.767,searchDisc4,2020.2.10,Win32,60,,,,space,0.165795,1,1,0.6884,,0,463,463,30,1,1a,30,3,1,
,,,,,,,,,,,,,,,,,,,,,,,,,images/exp1a_trial_37_colour0_distractors0_l.png,l,1,008,001,2021-04-14_18h50.07.767,searchDisc4,2020.2.10,Win32,60,,,,space,0.172645,1,1,0.931275,,0,464,464,37,1,1a,37,0,0,
,,,,,,,,,,,,,,,,,,,,,,,,,images/exp1b_trial_88_colour3_distractors1_r.png,r,2,008,001,2021-04-14_18h50.07.767,searchDisc4,2020.2.10,Win32,60,,,,space,0.16559,2,1,1.079095,,0,465,465,202,1,1b,88,3,1,
,,,,,,,,,,,,,,,,,,,,,,,,,images/exp1b_trial_101_colour2_distractors4_l.png,l,1,008,001,2021-04-14_18h50.07.767,searchDisc4,2020.2.10,Win32,60,,,,space,0.181785,1,1,0.696315,,0,466,466,215,1,1b,101,2,4,
,,,,,,,,,,,,,,,,,,,,,,,,,images/exp1b_trial_8_colour2_distractors9_r.png,r,2,008,001,2021-04-14_18h50.07.767,searchDisc4,2020.2.10,Win32,60,,,,space,0.17534,2,1,0.63062,,0,467,467,122,1,1b,8,2,9,
,,,,,,,,,,,,,,,,,,,,,,,,,images/exp1b_trial_84_colour2_distractors9_r.png,r,2,008,001,2021-04-14_18h50.07.767,searchDisc4,2020.2.10,Win32,60,,,,space,0.192835,2,1,0.81793,,0,468,468,198,1,1b,84,2,9,
,,,,,,,,,,,,,,,,,,,,,,,,,images/exp2a_trial_106_colour3_distractors1_l.png,l,1,008,001,2021-04-14_18h50.07.767,searchDisc4,2020.2.10,Win32,60,,,,space,0.180755,1,1,0.6858,,0,469,469,334,1,2a,106,3,1,
,,,,,,,,,,,,,,,,,,,,,,,,,images/exp2b_trial_102_colour2_distractors9_l.png,l,1,008,001,2021-04-14_18h50.07.767,searchDisc4,2020.2.10,Win32,60,,,,space,0.15993,1,1,0.779675,,0,470,470,444,1,2b,102,2,9,
,,,,,,,,,,,,,,,,,,,,,,,,,images/exp2c_trial_111_colour3_distractors43_l.png,l,1,008,001,2021-04-14_18h50.07.767,searchDisc4,2020.2.10,Win32,60,,,,space,0.166995,1,1,0.69167,,0,471,471,567,1,2c,111,3,43,
,,,,,,,,,,,,,,,,,,,,,,,,,images/exp2c_trial_50_colour3_distractors1_r.png,r,2,008,001,2021-04-14_18h50.07.767,searchDisc4,2020.2.10,Win32,60,,,,space,0.208575,2,1,0.607105,,0,472,472,506,1,2c,50,3,1,
,,,,,,,,,,,,,,,,,,,,,,,,,images/exp2c_trial_56_colour1_distractors1_l.png,l,1,008,001,2021-04-14_18h50.07.767,searchDisc4,2020.2.10,Win32,60,,,,space,0.17722,1,1,0.605575,,0,473,473,512,1,2c,56,1,1,
,,,,,,,,,,,,,,,,,,,,,,,,,images/exp1b_trial_30_colour3_distractors1_l.png,l,1,008,001,2021-04-14_18h50.07.767,searchDisc4,2020.2.10,Win32,60,,,,space,0.174485,1,1,0.775945,,0,474,474,144,1,1b,30,3,1,
,,,,,,,,,,,,,,,,,,,,,,,,,images/exp2a_trial_110_colour3_distractors31_l.png,l,1,008,001,2021-04-14_18h50.07.767,searchDisc4,2020.2.10,Win32,60,,,,space,0.153905,1,1,0.654515,,0,475,475,338,1,2a,110,3,31,
,,,,,,,,,,,,,,,,,,,,,,,,,images/exp1b_trial_72_colour3_distractors31_l.png,l,1,008,001,2021-04-14_18h50.07.767,searchDisc4,2020.2.10,Win32,60,,,,space,0.181905,1,1,1.022395,,0,476,476,186,1,1b,72,3,31,
