X Scale,Y Scale,key_resp_10.keys,key_resp_10.rt,key_resp_11.keys,key_resp_11.rt,key_resp_12.keys,key_resp_12.rt,key_resp_13.keys,key_resp_13.rt,key_resp_5.keys,key_resp_5.rt,key_resp_8.keys,key_resp_8.rt,key_resp_6.keys,key_resp_6.rt,key_resp_7.keys,key_resp_7.rt,key_resp_4.keys,key_resp_4.corr,key_resp_4.rt,trials_2.thisRepN,trials_2.thisTrialN,trials_2.thisN,trials_2.thisIndex,trials_2.ran,ImageFile,targ_side,correctAnswer,participant,session,date,expName,psychopyVersion,OS,frameRate,key_resp_3.keys,key_resp_3.rt,key_resp_9.keys,key_resp_9.rt,key_resp_2.keys,key_resp_2.corr,key_resp_2.rt,key_resp.keys,trials.thisRepN,trials.thisTrialN,trials.thisN,trials.thisIndex,trials.ran,exp,trial,colour,distNo,key_resp.rt
27.2,27,space,7.23869,space,46.510945,space,18.76986,space,7.34778,space,5.988065,space,19.55795,space,8.21772,space,3.827795,2,0,2.55862,0,0,0,10,1,Practice arrays/exp1a_trial_20_colour1_distractors9_l.png,l,1,009,001,2021-04-15_17h11.56.371,searchDisc4,2020.2.10,Win32,60,,,,,,,,,,,,,,,,,,
,,,,,,,,,,,,,,,,space,2.137815,2,1,1.22129,0,1,1,2,1,Practice arrays/exp1a_trial_5_colour1_distractors43_r.png,r,2,009,001,2021-04-15_17h11.56.371,searchDisc4,2020.2.10,Win32,60,,,,,,,,,,,,,,,,,,
,,,,,,,,,,,,,,,,space,1.068235,2,1,1.372675,0,2,2,18,1,Practice arrays/exp1a_trial_36_colour0_distractors0_r.png,r,2,009,001,2021-04-15_17h11.56.371,searchDisc4,2020.2.10,Win32,60,,,,,,,,,,,,,,,,,,
,,,,,,,,,,,,,,,,space,0.86742,1,0,0.70673,0,3,3,0,1,Practice arrays/exp1a_trial_0_colour1_distractors1_r.png,r,2,009,001,2021-04-15_17h11.56.371,searchDisc4,2020.2.10,Win32,60,,,,,,,,,,,,,,,,,,
,,,,,,,,,,,,,,,,space,2.550885,1,0,1.609955,0,4,4,6,1,Practice arrays/exp1a_trial_12_colour3_distractors1_r.png,r,2,009,001,2021-04-15_17h11.56.371,searchDisc4,2020.2.10,Win32,60,,,,,,,,,,,,,,,,,,
,,,,,,,,,,,,,,,,space,0.877265,1,1,0.94026,0,5,5,9,1,Practice arrays/exp1a_trial_19_colour1_distractors4_l.png,l,1,009,001,2021-04-15_17h11.56.371,searchDisc4,2020.2.10,Win32,60,,,,,,,,,,,,,,,,,,
,,,,,,,,,,,,,,,,space,0.98752,2,1,1.227325,0,6,6,4,1,Practice arrays/exp1a_trial_8_colour2_distractors9_r.png,r,2,009,001,2021-04-15_17h11.56.371,searchDisc4,2020.2.10,Win32,60,,,,,,,,,,,,,,,,,,
,,,,,,,,,,,,,,,,space,0.617705,2,1,3.492385,0,7,7,3,1,Practice arrays/exp1a_trial_7_colour2_distractors4_r.png,r,2,009,001,2021-04-15_17h11.56.371,searchDisc4,2020.2.10,Win32,60,,,,,,,,,,,,,,,,,,
,,,,,,,,,,,,,,,,space,1.087075,1,1,1.221415,0,8,8,11,1,Practice arrays/exp1a_trial_21_colour1_distractors19_l.png,l,1,009,001,2021-04-15_17h11.56.371,searchDisc4,2020.2.10,Win32,60,,,,,,,,,,,,,,,,,,
,,,,,,,,,,,,,,,,space,0.688995,1,1,0.876815,0,9,9,19,1,Practice arrays/exp1a_trial_37_colour0_distractors0_l.png,l,1,009,001,2021-04-15_17h11.56.371,searchDisc4,2020.2.10,Win32,60,,,,,,,,,,,,,,,,,,
,,,,,,,,,,,,,,,,space,0.68458,1,1,0.90084,0,10,10,16,1,Practice arrays/exp1a_trial_33_colour3_distractors19_l.png,l,1,009,001,2021-04-15_17h11.56.371,searchDisc4,2020.2.10,Win32,60,,,,,,,,,,,,,,,,,,
,,,,,,,,,,,,,,,,space,0.94188,1,1,0.97123,0,11,11,14,1,Practice arrays/exp1a_trial_29_colour2_distractors43_l.png,l,1,009,001,2021-04-15_17h11.56.371,searchDisc4,2020.2.10,Win32,60,,,,,,,,,,,,,,,,,,
,,,,,,,,,,,,,,,,space,0.72783,2,1,0.971625,0,12,12,7,1,Practice arrays/exp1a_trial_13_colour3_distractors4_r.png,r,2,009,001,2021-04-15_17h11.56.371,searchDisc4,2020.2.10,Win32,60,,,,,,,,,,,,,,,,,,
,,,,,,,,,,,,,,,,space,0.833815,1,1,0.7974,0,13,13,12,1,Practice arrays/exp1a_trial_25_colour2_distractors4_l.png,l,1,009,001,2021-04-15_17h11.56.371,searchDisc4,2020.2.10,Win32,60,,,,,,,,,,,,,,,,,,
,,,,,,,,,,,,,,,,space,0.49366,2,1,1.01154,0,14,14,5,1,Practice arrays/exp1a_trial_10_colour2_distractors31_r.png,r,2,009,001,2021-04-15_17h11.56.371,searchDisc4,2020.2.10,Win32,60,,,,,,,,,,,,,,,,,,
,,,,,,,,,,,,,,,,space,0.64853,1,1,1.0055,0,15,15,17,1,Practice arrays/exp1a_trial_35_colour3_distractors43_l.png,l,1,009,001,2021-04-15_17h11.56.371,searchDisc4,2020.2.10,Win32,60,,,,,,,,,,,,,,,,,,
,,,,,,,,,,,,,,,,space,0.60053,2,1,0.68208,0,16,16,8,1,Practice arrays/exp1a_trial_16_colour3_distractors31_r.png,r,2,009,001,2021-04-15_17h11.56.371,searchDisc4,2020.2.10,Win32,60,,,,,,,,,,,,,,,,,,
,,,,,,,,,,,,,,,,space,0.71485,1,1,0.79067,0,17,17,13,1,Practice arrays/exp1a_trial_28_colour2_distractors31_l.png,l,1,009,001,2021-04-15_17h11.56.371,searchDisc4,2020.2.10,Win32,60,,,,,,,,,,,,,,,,,,
,,,,,,,,,,,,,,,,space,0.50094,1,1,0.745875,0,18,18,15,1,Practice arrays/exp1a_trial_32_colour3_distractors9_l.png,l,1,009,001,2021-04-15_17h11.56.371,searchDisc4,2020.2.10,Win32,60,,,,,,,,,,,,,,,,,,
,,,,,,,,,,,,,,,,space,0.55127,2,1,0.67287,0,19,19,1,1,Practice arrays/exp1a_trial_3_colour1_distractors19_r.png,r,2,009,001,2021-04-15_17h11.56.371,searchDisc4,2020.2.10,Win32,60,,,,,,,,,,,,,,,,,,
,,,,,,,,,,,,,,,,,,,,,,,,,,images/exp1a_trial_70_colour3_distractors9_l.png,l,1,009,001,2021-04-15_17h11.56.371,searchDisc4,2020.2.10,Win32,60,space,9.812295,space,1.8289,1,1,1.0753,,0,0,0,70,1,1a,70,3,9,
,,,,,,,,,,,,,,,,,,,,,,,,,,images/exp2a_trial_28_colour2_distractors31_l.png,l,1,009,001,2021-04-15_17h11.56.371,searchDisc4,2020.2.10,Win32,60,,,space,1.66451,1,1,1.012645,,0,1,1,256,1,2a,28,2,31,
,,,,,,,,,,,,,,,,,,,,,,,,,,images/exp2b_trial_25_colour2_distractors4_l.png,l,1,009,001,2021-04-15_17h11.56.371,searchDisc4,2020.2.10,Win32,60,,,space,0.998885,1,1,1.121225,,0,2,2,367,1,2b,25,2,4,
,,,,,,,,,,,,,,,,,,,,,,,,,,images/exp2a_trial_50_colour3_distractors1_r.png,r,2,009,001,2021-04-15_17h11.56.371,searchDisc4,2020.2.10,Win32,60,,,space,1.084435,2,1,0.83973,,0,3,3,278,1,2a,50,3,1,
,,,,,,,,,,,,,,,,,,,,,,,,,,images/exp1b_trial_92_colour3_distractors31_r.png,r,2,009,001,2021-04-15_17h11.56.371,searchDisc4,2020.2.10,Win32,60,,,space,1.150115,2,1,1.15325,,0,4,4,206,1,1b,92,3,31,
,,,,,,,,,,,,,,,,,,,,,,,,,,images/exp1b_trial_32_colour3_distractors9_l.png,l,1,009,001,2021-04-15_17h11.56.371,searchDisc4,2020.2.10,Win32,60,,,space,1.12139,1,1,1.248795,,0,5,5,146,1,1b,32,3,9,
,,,,,,,,,,,,,,,,,,,,,,,,,,images/exp2b_trial_45_colour2_distractors4_r.png,r,2,009,001,2021-04-15_17h11.56.371,searchDisc4,2020.2.10,Win32,60,,,space,1.13199,2,1,0.855125,,0,6,6,387,1,2b,45,2,4,
,,,,,,,,,,,,,,,,,,,,,,,,,,images/exp2b_trial_68_colour3_distractors1_l.png,l,1,009,001,2021-04-15_17h11.56.371,searchDisc4,2020.2.10,Win32,60,,,space,1.190345,1,1,0.78288,,0,7,7,410,1,2b,68,3,1,
,,,,,,,,,,,,,,,,,,,,,,,,,,images/exp2b_trial_73_colour3_distractors43_l.png,l,1,009,001,2021-04-15_17h11.56.371,searchDisc4,2020.2.10,Win32,60,,,space,1.284575,1,1,1.245565,,0,8,8,415,1,2b,73,3,43,
,,,,,,,,,,,,,,,,,,,,,,,,,,images/exp2c_trial_105_colour2_distractors43_l.png,l,1,009,001,2021-04-15_17h11.56.371,searchDisc4,2020.2.10,Win32,60,,,space,1.081515,1,1,0.944675,,0,9,9,561,1,2c,105,2,43,
,,,,,,,,,,,,,,,,,,,,,,,,,,images/exp2a_trial_4_colour1_distractors31_r.png,r,2,009,001,2021-04-15_17h11.56.371,searchDisc4,2020.2.10,Win32,60,,,space,1.06716,2,1,1.080605,,0,10,10,232,1,2a,4,1,31,
,,,,,,,,,,,,,,,,,,,,,,,,,,images/exp1a_trial_45_colour2_distractors4_r.png,r,2,009,001,2021-04-15_17h11.56.371,searchDisc4,2020.2.10,Win32,60,,,space,1.22036,2,1,1.21938,,0,11,11,45,1,1a,45,2,4,
,,,,,,,,,,,,,,,,,,,,,,,,,,images/exp2a_trial_70_colour3_distractors9_l.png,l,1,009,001,2021-04-15_17h11.56.371,searchDisc4,2020.2.10,Win32,60,,,space,1.340855,1,1,0.67731,,0,12,12,298,1,2a,70,3,9,
,,,,,,,,,,,,,,,,,,,,,,,,,,images/exp1b_trial_109_colour3_distractors19_l.png,l,1,009,001,2021-04-15_17h11.56.371,searchDisc4,2020.2.10,Win32,60,,,space,0.96651,1,1,2.276695,,0,13,13,223,1,1b,109,3,19,
,,,,,,,,,,,,,,,,,,,,,,,,,,images/exp2a_trial_104_colour2_distractors31_l.png,l,1,009,001,2021-04-15_17h11.56.371,searchDisc4,2020.2.10,Win32,60,,,space,1.017115,1,1,1.15106,,0,14,14,332,1,2a,104,2,31,
,,,,,,,,,,,,,,,,,,,,,,,,,,images/exp2b_trial_101_colour2_distractors4_l.png,l,1,009,001,2021-04-15_17h11.56.371,searchDisc4,2020.2.10,Win32,60,,,space,1.106995,1,1,1.265125,,0,15,15,443,1,2b,101,2,4,
,,,,,,,,,,,,,,,,,,,,,,,,,,images/exp2a_trial_17_colour3_distractors43_r.png,r,2,009,001,2021-04-15_17h11.56.371,searchDisc4,2020.2.10,Win32,60,,,space,1.233675,2,1,1.295125,,0,16,16,245,1,2a,17,3,43,
,,,,,,,,,,,,,,,,,,,,,,,,,,images/exp2a_trial_22_colour1_distractors31_l.png,l,1,009,001,2021-04-15_17h11.56.371,searchDisc4,2020.2.10,Win32,60,,,space,1.138015,1,1,1.23999,,0,17,17,250,1,2a,22,1,31,
,,,,,,,,,,,,,,,,,,,,,,,,,,images/exp1b_trial_100_colour2_distractors1_l.png,l,1,009,001,2021-04-15_17h11.56.371,searchDisc4,2020.2.10,Win32,60,,,space,1.018855,1,1,1.24446,,0,18,18,214,1,1b,100,2,1,
,,,,,,,,,,,,,,,,,,,,,,,,,,images/exp2a_trial_76_colour1_distractors1_r.png,r,2,009,001,2021-04-15_17h11.56.371,searchDisc4,2020.2.10,Win32,60,,,space,1.49855,2,1,1.276825,,0,19,19,304,1,2a,76,1,1,
,,,,,,,,,,,,,,,,,,,,,,,,,,images/exp2c_trial_72_colour3_distractors31_l.png,l,1,009,001,2021-04-15_17h11.56.371,searchDisc4,2020.2.10,Win32,60,,,space,1.3367,1,1,0.957685,,0,20,20,528,1,2c,72,3,31,
,,,,,,,,,,,,,,,,,,,,,,,,,,images/exp2b_trial_8_colour2_distractors9_r.png,r,2,009,001,2021-04-15_17h11.56.371,searchDisc4,2020.2.10,Win32,60,,,space,1.23385,2,1,1.09972,,0,21,21,350,1,2b,8,2,9,
,,,,,,,,,,,,,,,,,,,,,,,,,,images/exp1b_trial_95_colour1_distractors4_l.png,l,1,009,001,2021-04-15_17h11.56.371,searchDisc4,2020.2.10,Win32,60,,,space,1.46591,1,1,1.106265,,0,22,22,209,1,1b,95,1,4,
,,,,,,,,,,,,,,,,,,,,,,,,,,images/exp1a_trial_52_colour3_distractors9_r.png,r,2,009,001,2021-04-15_17h11.56.371,searchDisc4,2020.2.10,Win32,60,,,space,1.098525,2,1,0.95455,,0,23,23,52,1,1a,52,3,9,
,,,,,,,,,,,,,,,,,,,,,,,,,,images/exp1b_trial_55_colour3_distractors43_r.png,r,2,009,001,2021-04-15_17h11.56.371,searchDisc4,2020.2.10,Win32,60,,,space,1.933345,2,1,2.391065,,0,24,24,169,1,1b,55,3,43,
,,,,,,,,,,,,,,,,,,,,,,,,,,images/exp2a_trial_23_colour1_distractors43_l.png,l,1,009,001,2021-04-15_17h11.56.371,searchDisc4,2020.2.10,Win32,60,,,space,1.93404,1,1,0.96922,,0,25,25,251,1,2a,23,1,43,
,,,,,,,,,,,,,,,,,,,,,,,,,,images/exp2b_trial_105_colour2_distractors43_l.png,l,1,009,001,2021-04-15_17h11.56.371,searchDisc4,2020.2.10,Win32,60,,,space,1.25285,1,1,0.775565,,0,26,26,447,1,2b,105,2,43,
,,,,,,,,,,,,,,,,,,,,,,,,,,images/exp2c_trial_21_colour1_distractors19_l.png,l,1,009,001,2021-04-15_17h11.56.371,searchDisc4,2020.2.10,Win32,60,,,space,0.833335,1,1,0.900435,,0,27,27,477,1,2c,21,1,19,
,,,,,,,,,,,,,,,,,,,,,,,,,,images/exp2c_trial_33_colour3_distractors19_l.png,l,1,009,001,2021-04-15_17h11.56.371,searchDisc4,2020.2.10,Win32,60,,,space,0.905205,1,1,1.184415,,0,28,28,489,1,2c,33,3,19,
,,,,,,,,,,,,,,,,,,,,,,,,,,images/exp1b_trial_64_colour2_distractors9_l.png,l,1,009,001,2021-04-15_17h11.56.371,searchDisc4,2020.2.10,Win32,60,,,space,0.8851,1,1,1.513625,,0,29,29,178,1,1b,64,2,9,
,,,,,,,,,,,,,,,,,,,,,,,,,,images/exp2b_trial_107_colour3_distractors4_l.png,l,1,009,001,2021-04-15_17h11.56.371,searchDisc4,2020.2.10,Win32,60,,,space,1.30427,1,1,0.672255,,0,30,30,449,1,2b,107,3,4,
,,,,,,,,,,,,,,,,,,,,,,,,,,images/exp2a_trial_58_colour1_distractors9_l.png,l,1,009,001,2021-04-15_17h11.56.371,searchDisc4,2020.2.10,Win32,60,,,space,0.997785,1,1,0.70864,,0,31,31,286,1,2a,58,1,9,
,,,,,,,,,,,,,,,,,,,,,,,,,,images/exp2a_trial_9_colour2_distractors19_r.png,r,2,009,001,2021-04-15_17h11.56.371,searchDisc4,2020.2.10,Win32,60,,,space,0.871075,2,1,1.135925,,0,32,32,237,1,2a,9,2,19,
,,,,,,,,,,,,,,,,,,,,,,,,,,images/exp1b_trial_10_colour2_distractors31_r.png,r,2,009,001,2021-04-15_17h11.56.371,searchDisc4,2020.2.10,Win32,60,,,space,1.30921,2,1,1.146845,,0,33,33,124,1,1b,10,2,31,
,,,,,,,,,,,,,,,,,,,,,,,,,,images/exp2a_trial_112_colour0_distractors0_r.png,r,2,009,001,2021-04-15_17h11.56.371,searchDisc4,2020.2.10,Win32,60,,,space,0.94856,2,1,1.0379,,0,34,34,340,1,2a,112,0,0,
,,,,,,,,,,,,,,,,,,,,,,,,,,images/exp1a_trial_25_colour2_distractors4_l.png,l,1,009,001,2021-04-15_17h11.56.371,searchDisc4,2020.2.10,Win32,60,,,space,1.05084,1,1,0.86157,,0,35,35,25,1,1a,25,2,4,
,,,,,,,,,,,,,,,,,,,,,,,,,,images/exp2a_trial_0_colour1_distractors1_r.png,r,2,009,001,2021-04-15_17h11.56.371,searchDisc4,2020.2.10,Win32,60,,,space,1.21019,2,1,1.002755,,0,36,36,228,1,2a,0,1,1,
,,,,,,,,,,,,,,,,,,,,,,,,,,images/exp1b_trial_0_colour1_distractors1_r.png,r,2,009,001,2021-04-15_17h11.56.371,searchDisc4,2020.2.10,Win32,60,,,space,1.53175,2,1,0.812045,,0,37,37,114,1,1b,0,1,1,
,,,,,,,,,,,,,,,,,,,,,,,,,,images/exp2b_trial_91_colour3_distractors19_r.png,r,2,009,001,2021-04-15_17h11.56.371,searchDisc4,2020.2.10,Win32,60,,,space,1.0029,2,1,0.85914,,0,38,38,433,1,2b,91,3,19,
,,,,,,,,,,,,,,,,,,,,,,,,,,images/exp2a_trial_103_colour2_distractors19_l.png,l,1,009,001,2021-04-15_17h11.56.371,searchDisc4,2020.2.10,Win32,60,,,space,1.11709,1,1,0.90767,,0,39,39,331,1,2a,103,2,19,
,,,,,,,,,,,,,,,,,,,,,,,,,,images/exp1a_trial_35_colour3_distractors43_l.png,l,1,009,001,2021-04-15_17h11.56.371,searchDisc4,2020.2.10,Win32,60,,,space,1.348135,1,1,0.77895,,0,40,40,35,1,1a,35,3,43,
,,,,,,,,,,,,,,,,,,,,,,,,,,images/exp1b_trial_37_colour0_distractors0_l.png,l,1,009,001,2021-04-15_17h11.56.371,searchDisc4,2020.2.10,Win32,60,,,space,0.91678,1,1,0.780125,,0,41,41,151,1,1b,37,0,0,
,,,,,,,,,,,,,,,,,,,,,,,,,,images/exp2b_trial_81_colour1_distractors43_r.png,r,2,009,001,2021-04-15_17h11.56.371,searchDisc4,2020.2.10,Win32,60,,,space,0.85217,2,1,1.025745,,0,42,42,423,1,2b,81,1,43,
,,,,,,,,,,,,,,,,,,,,,,,,,,images/exp2c_trial_46_colour2_distractors9_r.png,r,2,009,001,2021-04-15_17h11.56.371,searchDisc4,2020.2.10,Win32,60,,,space,0.73744,2,1,0.876085,,0,43,43,502,1,2c,46,2,9,
,,,,,,,,,,,,,,,,,,,,,,,,,,images/exp2c_trial_62_colour2_distractors1_l.png,l,1,009,001,2021-04-15_17h11.56.371,searchDisc4,2020.2.10,Win32,60,,,space,0.79023,1,1,0.797675,,0,44,44,518,1,2c,62,2,1,
,,,,,,,,,,,,,,,,,,,,,,,,,,images/exp2c_trial_35_colour3_distractors43_l.png,l,1,009,001,2021-04-15_17h11.56.371,searchDisc4,2020.2.10,Win32,60,,,space,0.800865,1,1,0.805315,,0,45,45,491,1,2c,35,3,43,
,,,,,,,,,,,,,,,,,,,,,,,,,,images/exp2c_trial_107_colour3_distractors4_l.png,l,1,009,001,2021-04-15_17h11.56.371,searchDisc4,2020.2.10,Win32,60,,,space,0.77391,1,1,0.728035,,0,46,46,563,1,2c,107,3,4,
,,,,,,,,,,,,,,,,,,,,,,,,,,images/exp2a_trial_52_colour3_distractors9_r.png,r,2,009,001,2021-04-15_17h11.56.371,searchDisc4,2020.2.10,Win32,60,,,space,0.762475,2,1,0.89656,,0,47,47,280,1,2a,52,3,9,
,,,,,,,,,,,,,,,,,,,,,,,,,,images/exp1a_trial_77_colour1_distractors4_r.png,r,2,009,001,2021-04-15_17h11.56.371,searchDisc4,2020.2.10,Win32,60,,,space,0.85078,2,1,0.869275,,0,48,48,77,1,1a,77,1,4,
,,,,,,,,,,,,,,,,,,,,,,,,,,images/exp2a_trial_64_colour2_distractors9_l.png,l,1,009,001,2021-04-15_17h11.56.371,searchDisc4,2020.2.10,Win32,60,,,space,0.78495,1,1,0.679735,,0,49,49,292,1,2a,64,2,9,
,,,,,,,,,,,,,,,,,,,,,,,,,,images/exp2a_trial_13_colour3_distractors4_r.png,r,2,009,001,2021-04-15_17h11.56.371,searchDisc4,2020.2.10,Win32,60,,,space,0.97282,2,1,0.926375,,0,50,50,241,1,2a,13,3,4,
,,,,,,,,,,,,,,,,,,,,,,,,,,images/exp2b_trial_0_colour1_distractors1_r.png,r,2,009,001,2021-04-15_17h11.56.371,searchDisc4,2020.2.10,Win32,60,,,space,0.88372,2,1,1.073695,,0,51,51,342,1,2b,0,1,1,
,,,,,,,,,,,,,,,,,,,,,,,,,,images/exp2c_trial_53_colour3_distractors19_r.png,r,2,009,001,2021-04-15_17h11.56.371,searchDisc4,2020.2.10,Win32,60,,,space,0.726235,2,1,0.82655,,0,52,52,509,1,2c,53,3,19,
,,,,,,,,,,,,,,,,,,,,,,,,,,images/exp2a_trial_32_colour3_distractors9_l.png,l,1,009,001,2021-04-15_17h11.56.371,searchDisc4,2020.2.10,Win32,60,,,space,0.700445,1,1,0.757185,,0,53,53,260,1,2a,32,3,9,
,,,,,,,,,,,,,,,,,,,,,,,,,,images/exp2c_trial_45_colour2_distractors4_r.png,r,2,009,001,2021-04-15_17h11.56.371,searchDisc4,2020.2.10,Win32,60,,,space,0.87128,2,1,1.064315,,0,54,54,501,1,2c,45,2,4,
,,,,,,,,,,,,,,,,,,,,,,,,,,images/exp1a_trial_107_colour3_distractors4_l.png,l,1,009,001,2021-04-15_17h11.56.371,searchDisc4,2020.2.10,Win32,60,,,space,0.746235,1,1,0.80481,,0,55,55,107,1,1a,107,3,4,
,,,,,,,,,,,,,,,,,,,,,,,,,,images/exp1a_trial_46_colour2_distractors9_r.png,r,2,009,001,2021-04-15_17h11.56.371,searchDisc4,2020.2.10,Win32,60,,,space,0.73557,2,1,1.00644,,0,56,56,46,1,1a,46,2,9,
,,,,,,,,,,,,,,,,,,,,,,,,,,images/exp2c_trial_76_colour1_distractors1_r.png,r,2,009,001,2021-04-15_17h11.56.371,searchDisc4,2020.2.10,Win32,60,,,space,0.767335,2,1,1.34202,,0,57,57,532,1,2c,76,1,1,
,,,,,,,,,,,,,,,,,,,,,,,,,,images/exp1b_trial_49_colour2_distractors43_r.png,r,2,009,001,2021-04-15_17h11.56.371,searchDisc4,2020.2.10,Win32,60,,,space,0.75343,2,1,1.399885,,0,58,58,163,1,1b,49,2,43,
,,,,,,,,,,,,,,,,,,,,,,,,,,images/exp2b_trial_22_colour1_distractors31_l.png,l,1,009,001,2021-04-15_17h11.56.371,searchDisc4,2020.2.10,Win32,60,,,space,0.9146,1,1,0.815135,space,0,59,59,364,1,2b,22,1,31,9.824475
,,,,,,,,,,,,,,,,,,,,,,,,,,images/exp1a_trial_106_colour3_distractors1_l.png,l,1,009,001,2021-04-15_17h11.56.371,searchDisc4,2020.2.10,Win32,60,,,space,1.01628,1,1,1.01593,,0,60,60,106,1,1a,106,3,1,
,,,,,,,,,,,,,,,,,,,,,,,,,,images/exp2b_trial_21_colour1_distractors19_l.png,l,1,009,001,2021-04-15_17h11.56.371,searchDisc4,2020.2.10,Win32,60,,,space,0.742495,1,1,0.74209,,0,61,61,363,1,2b,21,1,19,
,,,,,,,,,,,,,,,,,,,,,,,,,,images/exp2a_trial_65_colour2_distractors19_l.png,l,1,009,001,2021-04-15_17h11.56.371,searchDisc4,2020.2.10,Win32,60,,,space,0.7093,1,1,0.68412,,0,62,62,293,1,2a,65,2,19,
,,,,,,,,,,,,,,,,,,,,,,,,,,images/exp2c_trial_80_colour1_distractors31_r.png,r,2,009,001,2021-04-15_17h11.56.371,searchDisc4,2020.2.10,Win32,60,,,space,0.77416,2,1,1.074925,,0,63,63,536,1,2c,80,1,31,
,,,,,,,,,,,,,,,,,,,,,,,,,,images/exp1b_trial_76_colour1_distractors1_r.png,r,2,009,001,2021-04-15_17h11.56.371,searchDisc4,2020.2.10,Win32,60,,,space,0.732425,2,1,0.85316,,0,64,64,190,1,1b,76,1,1,
,,,,,,,,,,,,,,,,,,,,,,,,,,images/exp1a_trial_81_colour1_distractors43_r.png,r,2,009,001,2021-04-15_17h11.56.371,searchDisc4,2020.2.10,Win32,60,,,space,0.75648,2,1,0.88641,,0,65,65,81,1,1a,81,1,43,
,,,,,,,,,,,,,,,,,,,,,,,,,,images/exp1b_trial_77_colour1_distractors4_r.png,r,2,009,001,2021-04-15_17h11.56.371,searchDisc4,2020.2.10,Win32,60,,,space,0.67176,2,1,1.00488,,0,66,66,191,1,1b,77,1,4,
,,,,,,,,,,,,,,,,,,,,,,,,,,images/exp1b_trial_9_colour2_distractors19_r.png,r,2,009,001,2021-04-15_17h11.56.371,searchDisc4,2020.2.10,Win32,60,,,space,0.682345,2,1,1.47966,,0,67,67,123,1,1b,9,2,19,
,,,,,,,,,,,,,,,,,,,,,,,,,,images/exp2a_trial_90_colour3_distractors9_r.png,r,2,009,001,2021-04-15_17h11.56.371,searchDisc4,2020.2.10,Win32,60,,,space,0.644555,2,1,0.807265,,0,68,68,318,1,2a,90,3,9,
,,,,,,,,,,,,,,,,,,,,,,,,,,images/exp1b_trial_111_colour3_distractors43_l.png,l,1,009,001,2021-04-15_17h11.56.371,searchDisc4,2020.2.10,Win32,60,,,space,0.66573,1,1,1.72319,,0,69,69,225,1,1b,111,3,43,
,,,,,,,,,,,,,,,,,,,,,,,,,,images/exp1a_trial_7_colour2_distractors4_r.png,r,2,009,001,2021-04-15_17h11.56.371,searchDisc4,2020.2.10,Win32,60,,,space,0.70148,2,1,0.82633,,0,70,70,7,1,1a,7,2,4,
,,,,,,,,,,,,,,,,,,,,,,,,,,images/exp1b_trial_28_colour2_distractors31_l.png,l,1,009,001,2021-04-15_17h11.56.371,searchDisc4,2020.2.10,Win32,60,,,space,0.722715,1,1,0.769515,,0,71,71,142,1,1b,28,2,31,
,,,,,,,,,,,,,,,,,,,,,,,,,,images/exp1a_trial_109_colour3_distractors19_l.png,l,1,009,001,2021-04-15_17h11.56.371,searchDisc4,2020.2.10,Win32,60,,,space,0.740025,1,1,1.090305,,0,72,72,109,1,1a,109,3,19,
,,,,,,,,,,,,,,,,,,,,,,,,,,images/exp1a_trial_101_colour2_distractors4_l.png,l,1,009,001,2021-04-15_17h11.56.371,searchDisc4,2020.2.10,Win32,60,,,space,0.59574,1,1,0.745145,,0,73,73,101,1,1a,101,2,4,
,,,,,,,,,,,,,,,,,,,,,,,,,,images/exp2c_trial_56_colour1_distractors1_l.png,l,1,009,001,2021-04-15_17h11.56.371,searchDisc4,2020.2.10,Win32,60,,,space,0.77757,1,1,0.780055,,0,74,74,512,1,2c,56,1,1,
,,,,,,,,,,,,,,,,,,,,,,,,,,images/exp2b_trial_67_colour2_distractors43_l.png,l,1,009,001,2021-04-15_17h11.56.371,searchDisc4,2020.2.10,Win32,60,,,space,0.91702,1,1,0.6792,,0,75,75,409,1,2b,67,2,43,
,,,,,,,,,,,,,,,,,,,,,,,,,,images/exp2c_trial_98_colour1_distractors31_l.png,l,1,009,001,2021-04-15_17h11.56.371,searchDisc4,2020.2.10,Win32,60,,,space,0.77204,1,1,0.72417,,0,76,76,554,1,2c,98,1,31,
,,,,,,,,,,,,,,,,,,,,,,,,,,images/exp2a_trial_97_colour1_distractors19_l.png,l,1,009,001,2021-04-15_17h11.56.371,searchDisc4,2020.2.10,Win32,60,,,space,0.76808,1,1,0.66956,,0,77,77,325,1,2a,97,1,19,
,,,,,,,,,,,,,,,,,,,,,,,,,,images/exp2c_trial_43_colour1_distractors43_r.png,r,2,009,001,2021-04-15_17h11.56.371,searchDisc4,2020.2.10,Win32,60,,,space,0.847585,2,1,0.979045,,0,78,78,499,1,2c,43,1,43,
,,,,,,,,,,,,,,,,,,,,,,,,,,images/exp2b_trial_41_colour1_distractors19_r.png,r,2,009,001,2021-04-15_17h11.56.371,searchDisc4,2020.2.10,Win32,60,,,space,0.716565,2,1,0.909175,,0,79,79,383,1,2b,41,1,19,
,,,,,,,,,,,,,,,,,,,,,,,,,,images/exp2b_trial_36_colour0_distractors0_r.png,r,2,009,001,2021-04-15_17h11.56.371,searchDisc4,2020.2.10,Win32,60,,,space,0.750505,2,1,0.75637,,0,80,80,378,1,2b,36,0,0,
,,,,,,,,,,,,,,,,,,,,,,,,,,images/exp1b_trial_73_colour3_distractors43_l.png,l,1,009,001,2021-04-15_17h11.56.371,searchDisc4,2020.2.10,Win32,60,,,space,1.01745,1,1,1.579725,,0,81,81,187,1,1b,73,3,43,
,,,,,,,,,,,,,,,,,,,,,,,,,,images/exp2b_trial_63_colour2_distractors4_l.png,l,1,009,001,2021-04-15_17h11.56.371,searchDisc4,2020.2.10,Win32,60,,,space,0.81578,1,1,0.7111,,0,82,82,405,1,2b,63,2,4,
,,,,,,,,,,,,,,,,,,,,,,,,,,images/exp1b_trial_8_colour2_distractors9_r.png,r,2,009,001,2021-04-15_17h11.56.371,searchDisc4,2020.2.10,Win32,60,,,space,0.740015,2,1,0.963685,,0,83,83,122,1,1b,8,2,9,
,,,,,,,,,,,,,,,,,,,,,,,,,,images/exp1a_trial_39_colour1_distractors4_r.png,r,2,009,001,2021-04-15_17h11.56.371,searchDisc4,2020.2.10,Win32,60,,,space,0.7841,2,1,1.439765,,0,84,84,39,1,1a,39,1,4,
,,,,,,,,,,,,,,,,,,,,,,,,,,images/exp1b_trial_33_colour3_distractors19_l.png,l,1,009,001,2021-04-15_17h11.56.371,searchDisc4,2020.2.10,Win32,60,,,space,1.117875,1,1,1.0747,,0,85,85,147,1,1b,33,3,19,
,,,,,,,,,,,,,,,,,,,,,,,,,,images/exp2b_trial_20_colour1_distractors9_l.png,l,1,009,001,2021-04-15_17h11.56.371,searchDisc4,2020.2.10,Win32,60,,,space,0.59815,1,1,0.72785,,0,86,86,362,1,2b,20,1,9,
,,,,,,,,,,,,,,,,,,,,,,,,,,images/exp1b_trial_107_colour3_distractors4_l.png,l,1,009,001,2021-04-15_17h11.56.371,searchDisc4,2020.2.10,Win32,60,,,space,0.658765,1,1,1.09582,,0,87,87,221,1,1b,107,3,4,
,,,,,,,,,,,,,,,,,,,,,,,,,,images/exp1b_trial_7_colour2_distractors4_r.png,r,2,009,001,2021-04-15_17h11.56.371,searchDisc4,2020.2.10,Win32,60,,,space,0.70939,2,1,0.92177,,0,88,88,121,1,1b,7,2,4,
,,,,,,,,,,,,,,,,,,,,,,,,,,images/exp2a_trial_111_colour3_distractors43_l.png,l,1,009,001,2021-04-15_17h11.56.371,searchDisc4,2020.2.10,Win32,60,,,space,0.6812,1,1,0.806455,,0,89,89,339,1,2a,111,3,43,
,,,,,,,,,,,,,,,,,,,,,,,,,,images/exp2b_trial_65_colour2_distractors19_l.png,l,1,009,001,2021-04-15_17h11.56.371,searchDisc4,2020.2.10,Win32,60,,,space,0.6812,1,1,0.82707,,0,90,90,407,1,2b,65,2,19,
,,,,,,,,,,,,,,,,,,,,,,,,,,images/exp2b_trial_34_colour3_distractors31_l.png,l,1,009,001,2021-04-15_17h11.56.371,searchDisc4,2020.2.10,Win32,60,,,space,0.667355,1,1,0.783005,,0,91,91,376,1,2b,34,3,31,
,,,,,,,,,,,,,,,,,,,,,,,,,,images/exp1b_trial_36_colour0_distractors0_r.png,r,2,009,001,2021-04-15_17h11.56.371,searchDisc4,2020.2.10,Win32,60,,,space,0.74821,2,1,0.82145,,0,92,92,150,1,1b,36,0,0,
,,,,,,,,,,,,,,,,,,,,,,,,,,images/exp2c_trial_103_colour2_distractors19_l.png,l,1,009,001,2021-04-15_17h11.56.371,searchDisc4,2020.2.10,Win32,60,,,space,0.73892,1,1,0.70854,,0,93,93,559,1,2c,103,2,19,
,,,,,,,,,,,,,,,,,,,,,,,,,,images/exp2c_trial_23_colour1_distractors43_l.png,l,1,009,001,2021-04-15_17h11.56.371,searchDisc4,2020.2.10,Win32,60,,,space,0.81779,1,1,0.791575,,0,94,94,479,1,2c,23,1,43,
,,,,,,,,,,,,,,,,,,,,,,,,,,images/exp1a_trial_32_colour3_distractors9_l.png,l,1,009,001,2021-04-15_17h11.56.371,searchDisc4,2020.2.10,Win32,60,,,space,1.0322,1,1,0.742205,,0,95,95,32,1,1a,32,3,9,
,,,,,,,,,,,,,,,,,,,,,,,,,,images/exp1b_trial_18_colour1_distractors1_l.png,l,1,009,001,2021-04-15_17h11.56.371,searchDisc4,2020.2.10,Win32,60,,,space,0.604915,1,1,0.838275,,0,96,96,132,1,1b,18,1,1,
,,,,,,,,,,,,,,,,,,,,,,,,,,images/exp2b_trial_26_colour2_distractors9_l.png,l,1,009,001,2021-04-15_17h11.56.371,searchDisc4,2020.2.10,Win32,60,,,space,0.766115,1,1,0.757715,,0,97,97,368,1,2b,26,2,9,
,,,,,,,,,,,,,,,,,,,,,,,,,,images/exp1a_trial_29_colour2_distractors43_l.png,l,1,009,001,2021-04-15_17h11.56.371,searchDisc4,2020.2.10,Win32,60,,,space,0.74156,1,1,0.771855,,0,98,98,29,1,1a,29,2,43,
,,,,,,,,,,,,,,,,,,,,,,,,,,images/exp2b_trial_90_colour3_distractors9_r.png,r,2,009,001,2021-04-15_17h11.56.371,searchDisc4,2020.2.10,Win32,60,,,space,0.748175,2,1,1.18887,,0,99,99,432,1,2b,90,3,9,
,,,,,,,,,,,,,,,,,,,,,,,,,,images/exp1a_trial_58_colour1_distractors9_l.png,l,1,009,001,2021-04-15_17h11.56.371,searchDisc4,2020.2.10,Win32,60,,,space,0.839735,1,1,0.71593,,0,100,100,58,1,1a,58,1,9,
,,,,,,,,,,,,,,,,,,,,,,,,,,images/exp1a_trial_40_colour1_distractors9_r.png,r,2,009,001,2021-04-15_17h11.56.371,searchDisc4,2020.2.10,Win32,60,,,space,0.76048,2,1,0.80078,,0,101,101,40,1,1a,40,1,9,
,,,,,,,,,,,,,,,,,,,,,,,,,,images/exp2a_trial_110_colour3_distractors31_l.png,l,1,009,001,2021-04-15_17h11.56.371,searchDisc4,2020.2.10,Win32,60,,,space,0.81708,1,1,0.777565,,0,102,102,338,1,2a,110,3,31,
,,,,,,,,,,,,,,,,,,,,,,,,,,images/exp2b_trial_109_colour3_distractors19_l.png,l,1,009,001,2021-04-15_17h11.56.371,searchDisc4,2020.2.10,Win32,60,,,space,0.663715,1,1,0.77971,,0,103,103,451,1,2b,109,3,19,
,,,,,,,,,,,,,,,,,,,,,,,,,,images/exp1b_trial_51_colour3_distractors4_r.png,r,2,009,001,2021-04-15_17h11.56.371,searchDisc4,2020.2.10,Win32,60,,,space,0.56999,2,1,0.985855,,0,104,104,165,1,1b,51,3,4,
,,,,,,,,,,,,,,,,,,,,,,,,,,images/exp1a_trial_34_colour3_distractors31_l.png,l,1,009,001,2021-04-15_17h11.56.371,searchDisc4,2020.2.10,Win32,60,,,space,0.697095,1,1,0.95951,,0,105,105,34,1,1a,34,3,31,
,,,,,,,,,,,,,,,,,,,,,,,,,,images/exp1a_trial_50_colour3_distractors1_r.png,r,2,009,001,2021-04-15_17h11.56.371,searchDisc4,2020.2.10,Win32,60,,,space,0.58831,2,1,0.84264,,0,106,106,50,1,1a,50,3,1,
,,,,,,,,,,,,,,,,,,,,,,,,,,images/exp2b_trial_52_colour3_distractors9_r.png,r,2,009,001,2021-04-15_17h11.56.371,searchDisc4,2020.2.10,Win32,60,,,space,0.576225,2,1,1.15733,,0,107,107,394,1,2b,52,3,9,
,,,,,,,,,,,,,,,,,,,,,,,,,,images/exp2c_trial_37_colour0_distractors0_l.png,l,1,009,001,2021-04-15_17h11.56.371,searchDisc4,2020.2.10,Win32,60,,,space,0.560365,1,1,0.613225,,0,108,108,493,1,2c,37,0,0,
,,,,,,,,,,,,,,,,,,,,,,,,,,images/exp2c_trial_73_colour3_distractors43_l.png,l,1,009,001,2021-04-15_17h11.56.371,searchDisc4,2020.2.10,Win32,60,,,space,0.648365,1,1,0.69458,,0,109,109,529,1,2c,73,3,43,
,,,,,,,,,,,,,,,,,,,,,,,,,,images/exp2c_trial_39_colour1_distractors4_r.png,r,2,009,001,2021-04-15_17h11.56.371,searchDisc4,2020.2.10,Win32,60,,,space,0.643235,2,1,0.763945,,0,110,110,495,1,2c,39,1,4,
,,,,,,,,,,,,,,,,,,,,,,,,,,images/exp2c_trial_77_colour1_distractors4_r.png,r,2,009,001,2021-04-15_17h11.56.371,searchDisc4,2020.2.10,Win32,60,,,space,0.617305,2,1,0.74284,,0,111,111,533,1,2c,77,1,4,
,,,,,,,,,,,,,,,,,,,,,,,,,,images/exp2b_trial_29_colour2_distractors43_l.png,l,1,009,001,2021-04-15_17h11.56.371,searchDisc4,2020.2.10,Win32,60,,,space,0.715695,1,1,0.717565,,0,112,112,371,1,2b,29,2,43,
,,,,,,,,,,,,,,,,,,,,,,,,,,images/exp1b_trial_84_colour2_distractors9_r.png,r,2,009,001,2021-04-15_17h11.56.371,searchDisc4,2020.2.10,Win32,60,,,space,0.66883,2,1,0.999785,,0,113,113,198,1,1b,84,2,9,
,,,,,,,,,,,,,,,,,,,,,,,,,,images/exp2a_trial_16_colour3_distractors31_r.png,r,2,009,001,2021-04-15_17h11.56.371,searchDisc4,2020.2.10,Win32,60,,,space,0.792305,2,1,1.373745,,0,114,114,244,1,2a,16,3,31,
,,,,,,,,,,,,,,,,,,,,,,,,,,images/exp1b_trial_99_colour1_distractors43_l.png,l,1,009,001,2021-04-15_17h11.56.371,searchDisc4,2020.2.10,Win32,60,,,space,0.832275,1,1,1.09146,,0,115,115,213,1,1b,99,1,43,
,,,,,,,,,,,,,,,,,,,,,,,,,,images/exp2a_trial_21_colour1_distractors19_l.png,l,1,009,001,2021-04-15_17h11.56.371,searchDisc4,2020.2.10,Win32,60,,,space,0.686635,1,1,0.83322,,0,116,116,249,1,2a,21,1,19,
,,,,,,,,,,,,,,,,,,,,,,,,,,images/exp2c_trial_94_colour1_distractors1_l.png,l,1,009,001,2021-04-15_17h11.56.371,searchDisc4,2020.2.10,Win32,60,,,space,0.654125,1,1,0.70696,,0,117,117,550,1,2c,94,1,1,
,,,,,,,,,,,,,,,,,,,,,,,,,,images/exp2b_trial_108_colour3_distractors9_l.png,l,1,009,001,2021-04-15_17h11.56.371,searchDisc4,2020.2.10,Win32,60,,,space,0.765715,1,1,0.74991,,0,118,118,450,1,2b,108,3,9,
,,,,,,,,,,,,,,,,,,,,,,,,,,images/exp2a_trial_93_colour3_distractors43_r.png,r,2,009,001,2021-04-15_17h11.56.371,searchDisc4,2020.2.10,Win32,60,,,space,0.84341,2,1,0.86751,space,0,119,119,321,1,2a,93,3,43,6.79918
,,,,,,,,,,,,,,,,,,,,,,,,,,images/exp2a_trial_39_colour1_distractors4_r.png,r,2,009,001,2021-04-15_17h11.56.371,searchDisc4,2020.2.10,Win32,60,,,space,0.7672,2,1,0.713315,,0,120,120,267,1,2a,39,1,4,
,,,,,,,,,,,,,,,,,,,,,,,,,,images/exp2b_trial_70_colour3_distractors9_l.png,l,1,009,001,2021-04-15_17h11.56.371,searchDisc4,2020.2.10,Win32,60,,,space,0.563985,1,1,0.81862,,0,121,121,412,1,2b,70,3,9,
,,,,,,,,,,,,,,,,,,,,,,,,,,images/exp2c_trial_61_colour1_distractors43_l.png,l,1,009,001,2021-04-15_17h11.56.371,searchDisc4,2020.2.10,Win32,60,,,space,0.49893,1,1,0.61973,,0,122,122,517,1,2c,61,1,43,
,,,,,,,,,,,,,,,,,,,,,,,,,,images/exp1b_trial_4_colour1_distractors31_r.png,r,2,009,001,2021-04-15_17h11.56.371,searchDisc4,2020.2.10,Win32,60,,,space,0.45963,2,1,2.23524,,0,123,123,118,1,1b,4,1,31,
,,,,,,,,,,,,,,,,,,,,,,,,,,images/exp2c_trial_41_colour1_distractors19_r.png,r,2,009,001,2021-04-15_17h11.56.371,searchDisc4,2020.2.10,Win32,60,,,space,0.69701,2,1,0.699535,,0,124,124,497,1,2c,41,1,19,
,,,,,,,,,,,,,,,,,,,,,,,,,,images/exp2b_trial_74_colour0_distractors0_r.png,r,2,009,001,2021-04-15_17h11.56.371,searchDisc4,2020.2.10,Win32,60,,,space,0.491385,2,1,0.65308,,0,125,125,416,1,2b,74,0,0,
,,,,,,,,,,,,,,,,,,,,,,,,,,images/exp2c_trial_38_colour1_distractors1_r.png,r,2,009,001,2021-04-15_17h11.56.371,searchDisc4,2020.2.10,Win32,60,,,space,0.586985,2,1,0.709415,,0,126,126,494,1,2c,38,1,1,
,,,,,,,,,,,,,,,,,,,,,,,,,,images/exp2a_trial_102_colour2_distractors9_l.png,l,1,009,001,2021-04-15_17h11.56.371,searchDisc4,2020.2.10,Win32,60,,,space,0.48745,1,1,0.696415,,0,127,127,330,1,2a,102,2,9,
,,,,,,,,,,,,,,,,,,,,,,,,,,images/exp1b_trial_3_colour1_distractors19_r.png,r,2,009,001,2021-04-15_17h11.56.371,searchDisc4,2020.2.10,Win32,60,,,space,0.53841,2,1,0.889365,,0,128,128,117,1,1b,3,1,19,
,,,,,,,,,,,,,,,,,,,,,,,,,,images/exp2b_trial_102_colour2_distractors9_l.png,l,1,009,001,2021-04-15_17h11.56.371,searchDisc4,2020.2.10,Win32,60,,,space,0.55071,1,1,0.807485,,0,129,129,444,1,2b,102,2,9,
,,,,,,,,,,,,,,,,,,,,,,,,,,images/exp1a_trial_112_colour0_distractors0_r.png,r,2,009,001,2021-04-15_17h11.56.371,searchDisc4,2020.2.10,Win32,60,,,space,0.542245,2,1,0.80614,,0,130,130,112,1,1a,112,0,0,
,,,,,,,,,,,,,,,,,,,,,,,,,,images/exp2b_trial_18_colour1_distractors1_l.png,l,1,009,001,2021-04-15_17h11.56.371,searchDisc4,2020.2.10,Win32,60,,,space,0.5182,1,1,0.639625,,0,131,131,360,1,2b,18,1,1,
,,,,,,,,,,,,,,,,,,,,,,,,,,images/exp2b_trial_77_colour1_distractors4_r.png,r,2,009,001,2021-04-15_17h11.56.371,searchDisc4,2020.2.10,Win32,60,,,space,0.51737,2,1,0.9669,,0,132,132,419,1,2b,77,1,4,
,,,,,,,,,,,,,,,,,,,,,,,,,,images/exp2c_trial_83_colour2_distractors4_r.png,r,2,009,001,2021-04-15_17h11.56.371,searchDisc4,2020.2.10,Win32,60,,,space,0.49836,2,1,0.762555,,0,133,133,539,1,2c,83,2,4,
,,,,,,,,,,,,,,,,,,,,,,,,,,images/exp1b_trial_89_colour3_distractors4_r.png,r,2,009,001,2021-04-15_17h11.56.371,searchDisc4,2020.2.10,Win32,60,,,space,0.605255,2,1,0.83639,,0,134,134,203,1,1b,89,3,4,
,,,,,,,,,,,,,,,,,,,,,,,,,,images/exp2b_trial_1_colour1_distractors4_r.png,r,2,009,001,2021-04-15_17h11.56.371,searchDisc4,2020.2.10,Win32,60,,,space,0.566225,2,1,0.74923,,0,135,135,343,1,2b,1,1,4,
,,,,,,,,,,,,,,,,,,,,,,,,,,images/exp2b_trial_16_colour3_distractors31_r.png,r,2,009,001,2021-04-15_17h11.56.371,searchDisc4,2020.2.10,Win32,60,,,space,0.591195,2,1,1.014255,,0,136,136,358,1,2b,16,3,31,
,,,,,,,,,,,,,,,,,,,,,,,,,,images/exp1a_trial_59_colour1_distractors19_l.png,l,1,009,001,2021-04-15_17h11.56.371,searchDisc4,2020.2.10,Win32,60,,,space,0.63402,1,1,0.69297,,0,137,137,59,1,1a,59,1,19,
,,,,,,,,,,,,,,,,,,,,,,,,,,images/exp2c_trial_66_colour2_distractors31_l.png,l,1,009,001,2021-04-15_17h11.56.371,searchDisc4,2020.2.10,Win32,60,,,space,0.524765,1,1,0.76436,,0,138,138,522,1,2c,66,2,31,
,,,,,,,,,,,,,,,,,,,,,,,,,,images/exp2a_trial_47_colour2_distractors19_r.png,r,2,009,001,2021-04-15_17h11.56.371,searchDisc4,2020.2.10,Win32,60,,,space,0.55974,2,1,0.883555,,0,139,139,275,1,2a,47,2,19,
,,,,,,,,,,,,,,,,,,,,,,,,,,images/exp2a_trial_71_colour3_distractors19_l.png,l,1,009,001,2021-04-15_17h11.56.371,searchDisc4,2020.2.10,Win32,60,,,space,0.50111,1,1,0.625775,,0,140,140,299,1,2a,71,3,19,
,,,,,,,,,,,,,,,,,,,,,,,,,,images/exp2c_trial_2_colour1_distractors9_r.png,r,2,009,001,2021-04-15_17h11.56.371,searchDisc4,2020.2.10,Win32,60,,,space,0.540625,2,1,0.79678,,0,141,141,458,1,2c,2,1,9,
,,,,,,,,,,,,,,,,,,,,,,,,,,images/exp2c_trial_7_colour2_distractors4_r.png,r,2,009,001,2021-04-15_17h11.56.371,searchDisc4,2020.2.10,Win32,60,,,space,0.515495,2,1,1.53816,,0,142,142,463,1,2c,7,2,4,
,,,,,,,,,,,,,,,,,,,,,,,,,,images/exp2c_trial_55_colour3_distractors43_r.png,r,2,009,001,2021-04-15_17h11.56.371,searchDisc4,2020.2.10,Win32,60,,,space,0.5743,2,1,0.643375,,0,143,143,511,1,2c,55,3,43,
,,,,,,,,,,,,,,,,,,,,,,,,,,images/exp2c_trial_96_colour1_distractors9_l.png,l,1,009,001,2021-04-15_17h11.56.371,searchDisc4,2020.2.10,Win32,60,,,space,0.50707,1,1,0.764265,,0,144,144,552,1,2c,96,1,9,
,,,,,,,,,,,,,,,,,,,,,,,,,,images/exp2a_trial_31_colour3_distractors4_l.png,l,1,009,001,2021-04-15_17h11.56.371,searchDisc4,2020.2.10,Win32,60,,,space,0.46426,1,1,0.618065,,0,145,145,259,1,2a,31,3,4,
,,,,,,,,,,,,,,,,,,,,,,,,,,images/exp1b_trial_2_colour1_distractors9_r.png,r,2,009,001,2021-04-15_17h11.56.371,searchDisc4,2020.2.10,Win32,60,,,space,0.42534,2,1,0.692575,,0,146,146,116,1,1b,2,1,9,
,,,,,,,,,,,,,,,,,,,,,,,,,,images/exp2c_trial_104_colour2_distractors31_l.png,l,1,009,001,2021-04-15_17h11.56.371,searchDisc4,2020.2.10,Win32,60,,,space,0.418945,1,1,0.59324,,0,147,147,560,1,2c,104,2,31,
,,,,,,,,,,,,,,,,,,,,,,,,,,images/exp2c_trial_113_colour0_distractors0_l.png,l,1,009,001,2021-04-15_17h11.56.371,searchDisc4,2020.2.10,Win32,60,,,space,0.37915,1,1,0.768855,,0,148,148,569,1,2c,113,0,0,
,,,,,,,,,,,,,,,,,,,,,,,,,,images/exp1b_trial_82_colour2_distractors1_r.png,r,2,009,001,2021-04-15_17h11.56.371,searchDisc4,2020.2.10,Win32,60,,,space,0.44213,2,1,0.79145,,0,149,149,196,1,1b,82,2,1,
,,,,,,,,,,,,,,,,,,,,,,,,,,images/exp2a_trial_95_colour1_distractors4_l.png,l,1,009,001,2021-04-15_17h11.56.371,searchDisc4,2020.2.10,Win32,60,,,space,0.451185,1,1,0.661165,,0,150,150,323,1,2a,95,1,4,
,,,,,,,,,,,,,,,,,,,,,,,,,,images/exp1a_trial_27_colour2_distractors19_l.png,l,1,009,001,2021-04-15_17h11.56.371,searchDisc4,2020.2.10,Win32,60,,,space,0.477295,1,1,0.694265,,0,151,151,27,1,1a,27,2,19,
,,,,,,,,,,,,,,,,,,,,,,,,,,images/exp2c_trial_9_colour2_distractors19_r.png,r,2,009,001,2021-04-15_17h11.56.371,searchDisc4,2020.2.10,Win32,60,,,space,0.400425,2,1,0.757115,,0,152,152,465,1,2c,9,2,19,
,,,,,,,,,,,,,,,,,,,,,,,,,,images/exp1b_trial_27_colour2_distractors19_l.png,l,1,009,001,2021-04-15_17h11.56.371,searchDisc4,2020.2.10,Win32,60,,,space,0.50783,1,1,0.78852,,0,153,153,141,1,1b,27,2,19,
,,,,,,,,,,,,,,,,,,,,,,,,,,images/exp2a_trial_59_colour1_distractors19_l.png,l,1,009,001,2021-04-15_17h11.56.371,searchDisc4,2020.2.10,Win32,60,,,space,0.379835,1,1,0.592725,,0,154,154,287,1,2a,59,1,19,
,,,,,,,,,,,,,,,,,,,,,,,,,,images/exp2c_trial_75_colour0_distractors0_l.png,l,1,009,001,2021-04-15_17h11.56.371,searchDisc4,2020.2.10,Win32,60,,,space,0.395525,1,1,0.6335,,0,155,155,531,1,2c,75,0,0,
,,,,,,,,,,,,,,,,,,,,,,,,,,images/exp1a_trial_56_colour1_distractors1_l.png,l,1,009,001,2021-04-15_17h11.56.371,searchDisc4,2020.2.10,Win32,60,,,space,0.43358,1,1,0.57765,,0,156,156,56,1,1a,56,1,1,
,,,,,,,,,,,,,,,,,,,,,,,,,,images/exp1a_trial_62_colour2_distractors1_l.png,l,1,009,001,2021-04-15_17h11.56.371,searchDisc4,2020.2.10,Win32,60,,,space,0.431025,1,1,0.6402,,0,157,157,62,1,1a,62,2,1,
,,,,,,,,,,,,,,,,,,,,,,,,,,images/exp2a_trial_41_colour1_distractors19_r.png,r,2,009,001,2021-04-15_17h11.56.371,searchDisc4,2020.2.10,Win32,60,,,space,0.37533,2,1,2.004415,,0,158,158,269,1,2a,41,1,19,
,,,,,,,,,,,,,,,,,,,,,,,,,,images/exp1a_trial_71_colour3_distractors19_l.png,l,1,009,001,2021-04-15_17h11.56.371,searchDisc4,2020.2.10,Win32,60,,,space,0.617005,1,1,0.703315,,0,159,159,71,1,1a,71,3,19,
,,,,,,,,,,,,,,,,,,,,,,,,,,images/exp2c_trial_5_colour1_distractors43_r.png,r,2,009,001,2021-04-15_17h11.56.371,searchDisc4,2020.2.10,Win32,60,,,space,0.45271,2,1,1.152835,,0,160,160,461,1,2c,5,1,43,
,,,,,,,,,,,,,,,,,,,,,,,,,,images/exp1b_trial_34_colour3_distractors31_l.png,l,1,009,001,2021-04-15_17h11.56.371,searchDisc4,2020.2.10,Win32,60,,,space,0.46727,1,1,2.12584,,0,161,161,148,1,1b,34,3,31,
,,,,,,,,,,,,,,,,,,,,,,,,,,images/exp2a_trial_82_colour2_distractors1_r.png,r,2,009,001,2021-04-15_17h11.56.371,searchDisc4,2020.2.10,Win32,60,,,space,0.459365,2,1,1.16004,,0,162,162,310,1,2a,82,2,1,
,,,,,,,,,,,,,,,,,,,,,,,,,,images/exp2a_trial_24_colour2_distractors1_l.png,l,1,009,001,2021-04-15_17h11.56.371,searchDisc4,2020.2.10,Win32,60,,,space,0.61706,1,1,0.65838,,0,163,163,252,1,2a,24,2,1,
,,,,,,,,,,,,,,,,,,,,,,,,,,images/exp2b_trial_6_colour2_distractors1_r.png,r,2,009,001,2021-04-15_17h11.56.371,searchDisc4,2020.2.10,Win32,60,,,space,0.60854,2,1,0.80676,,0,164,164,348,1,2b,6,2,1,
,,,,,,,,,,,,,,,,,,,,,,,,,,images/exp1a_trial_12_colour3_distractors1_r.png,r,2,009,001,2021-04-15_17h11.56.371,searchDisc4,2020.2.10,Win32,60,,,space,0.52809,2,1,0.81826,,0,165,165,12,1,1a,12,3,1,
,,,,,,,,,,,,,,,,,,,,,,,,,,images/exp1b_trial_19_colour1_distractors4_l.png,l,1,009,001,2021-04-15_17h11.56.371,searchDisc4,2020.2.10,Win32,60,,,space,0.43319,1,1,1.047705,,0,166,166,133,1,1b,19,1,4,
,,,,,,,,,,,,,,,,,,,,,,,,,,images/exp1a_trial_94_colour1_distractors1_l.png,l,1,009,001,2021-04-15_17h11.56.371,searchDisc4,2020.2.10,Win32,60,,,space,0.470975,1,1,0.672445,,0,167,167,94,1,1a,94,1,1,
,,,,,,,,,,,,,,,,,,,,,,,,,,images/exp2a_trial_98_colour1_distractors31_l.png,l,1,009,001,2021-04-15_17h11.56.371,searchDisc4,2020.2.10,Win32,60,,,space,0.51672,1,1,0.73113,,0,168,168,326,1,2a,98,1,31,
,,,,,,,,,,,,,,,,,,,,,,,,,,images/exp2b_trial_55_colour3_distractors43_r.png,r,2,009,001,2021-04-15_17h11.56.371,searchDisc4,2020.2.10,Win32,60,,,space,0.43403,2,1,0.821025,,0,169,169,397,1,2b,55,3,43,
,,,,,,,,,,,,,,,,,,,,,,,,,,images/exp2a_trial_91_colour3_distractors19_r.png,r,2,009,001,2021-04-15_17h11.56.371,searchDisc4,2020.2.10,Win32,60,,,space,0.44888,2,1,1.061645,,0,170,170,319,1,2a,91,3,19,
,,,,,,,,,,,,,,,,,,,,,,,,,,images/exp2c_trial_32_colour3_distractors9_l.png,l,1,009,001,2021-04-15_17h11.56.371,searchDisc4,2020.2.10,Win32,60,,,space,3.05064,1,1,0.74416,,0,171,171,488,1,2c,32,3,9,
,,,,,,,,,,,,,,,,,,,,,,,,,,images/exp1b_trial_42_colour1_distractors31_r.png,r,2,009,001,2021-04-15_17h11.56.371,searchDisc4,2020.2.10,Win32,60,,,space,0.467415,2,1,0.9393,,0,172,172,156,1,1b,42,1,31,
,,,,,,,,,,,,,,,,,,,,,,,,,,images/exp2a_trial_44_colour2_distractors1_r.png,r,2,009,001,2021-04-15_17h11.56.371,searchDisc4,2020.2.10,Win32,60,,,space,0.436505,2,1,0.874065,,0,173,173,272,1,2a,44,2,1,
,,,,,,,,,,,,,,,,,,,,,,,,,,images/exp1b_trial_72_colour3_distractors31_l.png,l,1,009,001,2021-04-15_17h11.56.371,searchDisc4,2020.2.10,Win32,60,,,space,0.388845,1,1,0.975345,,0,174,174,186,1,1b,72,3,31,
,,,,,,,,,,,,,,,,,,,,,,,,,,images/exp2b_trial_104_colour2_distractors31_l.png,l,1,009,001,2021-04-15_17h11.56.371,searchDisc4,2020.2.10,Win32,60,,,space,0.455915,1,1,0.657915,,0,175,175,446,1,2b,104,2,31,
,,,,,,,,,,,,,,,,,,,,,,,,,,images/exp2b_trial_99_colour1_distractors43_l.png,l,1,009,001,2021-04-15_17h11.56.371,searchDisc4,2020.2.10,Win32,60,,,space,0.47261,1,1,0.822995,,0,176,176,441,1,2b,99,1,43,
,,,,,,,,,,,,,,,,,,,,,,,,,,images/exp2c_trial_19_colour1_distractors4_l.png,l,1,009,001,2021-04-15_17h11.56.371,searchDisc4,2020.2.10,Win32,60,,,space,0.40517,1,1,0.532715,,0,177,177,475,1,2c,19,1,4,
,,,,,,,,,,,,,,,,,,,,,,,,,,images/exp1b_trial_20_colour1_distractors9_l.png,l,1,009,001,2021-04-15_17h11.56.371,searchDisc4,2020.2.10,Win32,60,,,space,0.433685,1,1,0.612905,,0,178,178,134,1,1b,20,1,9,
,,,,,,,,,,,,,,,,,,,,,,,,,,images/exp2b_trial_76_colour1_distractors1_r.png,r,2,009,001,2021-04-15_17h11.56.371,searchDisc4,2020.2.10,Win32,60,,,space,0.574175,2,1,1.005355,space,0,179,179,418,1,2b,76,1,1,7.66418
,,,,,,,,,,,,,,,,,,,,,,,,,,images/exp2b_trial_38_colour1_distractors1_r.png,r,2,009,001,2021-04-15_17h11.56.371,searchDisc4,2020.2.10,Win32,60,,,space,1.49138,2,1,1.45113,,0,180,180,380,1,2b,38,1,1,
,,,,,,,,,,,,,,,,,,,,,,,,,,images/exp2a_trial_8_colour2_distractors9_r.png,r,2,009,001,2021-04-15_17h11.56.371,searchDisc4,2020.2.10,Win32,60,,,space,0.658395,2,1,0.7102,,0,181,181,236,1,2a,8,2,9,
,,,,,,,,,,,,,,,,,,,,,,,,,,images/exp1b_trial_52_colour3_distractors9_r.png,r,2,009,001,2021-04-15_17h11.56.371,searchDisc4,2020.2.10,Win32,60,,,space,1.01708,2,1,0.83686,,0,182,182,166,1,1b,52,3,9,
,,,,,,,,,,,,,,,,,,,,,,,,,,images/exp2a_trial_73_colour3_distractors43_l.png,l,1,009,001,2021-04-15_17h11.56.371,searchDisc4,2020.2.10,Win32,60,,,space,3.3014,1,1,1.284735,,0,183,183,301,1,2a,73,3,43,
,,,,,,,,,,,,,,,,,,,,,,,,,,images/exp2c_trial_71_colour3_distractors19_l.png,l,1,009,001,2021-04-15_17h11.56.371,searchDisc4,2020.2.10,Win32,60,,,space,0.506265,1,1,0.53086,,0,184,184,527,1,2c,71,3,19,
,,,,,,,,,,,,,,,,,,,,,,,,,,images/exp2a_trial_113_colour0_distractors0_l.png,l,1,009,001,2021-04-15_17h11.56.371,searchDisc4,2020.2.10,Win32,60,,,space,0.40802,1,1,0.48176,,0,185,185,341,1,2a,113,0,0,
,,,,,,,,,,,,,,,,,,,,,,,,,,images/exp2b_trial_75_colour0_distractors0_l.png,l,1,009,001,2021-04-15_17h11.56.371,searchDisc4,2020.2.10,Win32,60,,,space,0.538885,1,1,0.505545,,0,186,186,417,1,2b,75,0,0,
,,,,,,,,,,,,,,,,,,,,,,,,,,images/exp2b_trial_88_colour3_distractors1_r.png,r,2,009,001,2021-04-15_17h11.56.371,searchDisc4,2020.2.10,Win32,60,,,space,0.4642,2,1,1.17287,,0,187,187,430,1,2b,88,3,1,
,,,,,,,,,,,,,,,,,,,,,,,,,,images/exp2a_trial_108_colour3_distractors9_l.png,l,1,009,001,2021-04-15_17h11.56.371,searchDisc4,2020.2.10,Win32,60,,,space,0.434125,1,1,0.53919,,0,188,188,336,1,2a,108,3,9,
,,,,,,,,,,,,,,,,,,,,,,,,,,images/exp2a_trial_61_colour1_distractors43_l.png,l,1,009,001,2021-04-15_17h11.56.371,searchDisc4,2020.2.10,Win32,60,,,space,0.543355,1,1,0.69078,,0,189,189,289,1,2a,61,1,43,
,,,,,,,,,,,,,,,,,,,,,,,,,,images/exp1a_trial_44_colour2_distractors1_r.png,r,2,009,001,2021-04-15_17h11.56.371,searchDisc4,2020.2.10,Win32,60,,,space,0.65489,2,1,0.893575,,0,190,190,44,1,1a,44,2,1,
,,,,,,,,,,,,,,,,,,,,,,,,,,images/exp2c_trial_14_colour3_distractors9_r.png,r,2,009,001,2021-04-15_17h11.56.371,searchDisc4,2020.2.10,Win32,60,,,space,0.541325,2,1,0.791755,,0,191,191,470,1,2c,14,3,9,
,,,,,,,,,,,,,,,,,,,,,,,,,,images/exp1a_trial_16_colour3_distractors31_r.png,r,2,009,001,2021-04-15_17h11.56.371,searchDisc4,2020.2.10,Win32,60,,,space,0.453235,2,1,0.8938,,0,192,192,16,1,1a,16,3,31,
,,,,,,,,,,,,,,,,,,,,,,,,,,images/exp1b_trial_15_colour3_distractors19_r.png,r,2,009,001,2021-04-15_17h11.56.371,searchDisc4,2020.2.10,Win32,60,,,space,0.460535,2,1,3.16925,,0,193,193,129,1,1b,15,3,19,
,,,,,,,,,,,,,,,,,,,,,,,,,,images/exp2c_trial_84_colour2_distractors9_r.png,r,2,009,001,2021-04-15_17h11.56.371,searchDisc4,2020.2.10,Win32,60,,,space,0.479285,2,1,0.85488,,0,194,194,540,1,2c,84,2,9,
,,,,,,,,,,,,,,,,,,,,,,,,,,images/exp1a_trial_3_colour1_distractors19_r.png,r,2,009,001,2021-04-15_17h11.56.371,searchDisc4,2020.2.10,Win32,60,,,space,0.485505,2,1,0.863635,,0,195,195,3,1,1a,3,1,19,
,,,,,,,,,,,,,,,,,,,,,,,,,,images/exp2a_trial_18_colour1_distractors1_l.png,l,1,009,001,2021-04-15_17h11.56.371,searchDisc4,2020.2.10,Win32,60,,,space,0.406445,1,1,0.76117,,0,196,196,246,1,2a,18,1,1,
,,,,,,,,,,,,,,,,,,,,,,,,,,images/exp1b_trial_85_colour2_distractors19_r.png,r,2,009,001,2021-04-15_17h11.56.371,searchDisc4,2020.2.10,Win32,60,,,space,0.52005,2,1,1.23668,,0,197,197,199,1,1b,85,2,19,
,,,,,,,,,,,,,,,,,,,,,,,,,,images/exp2a_trial_62_colour2_distractors1_l.png,l,1,009,001,2021-04-15_17h11.56.371,searchDisc4,2020.2.10,Win32,60,,,space,0.467945,1,1,0.604935,,0,198,198,290,1,2a,62,2,1,
,,,,,,,,,,,,,,,,,,,,,,,,,,images/exp1a_trial_42_colour1_distractors31_r.png,r,2,009,001,2021-04-15_17h11.56.371,searchDisc4,2020.2.10,Win32,60,,,space,0.40098,2,1,0.672445,,0,199,199,42,1,1a,42,1,31,
,,,,,,,,,,,,,,,,,,,,,,,,,,images/exp1a_trial_90_colour3_distractors9_r.png,r,2,009,001,2021-04-15_17h11.56.371,searchDisc4,2020.2.10,Win32,60,,,space,0.36716,2,1,0.728455,,0,200,200,90,1,1a,90,3,9,
,,,,,,,,,,,,,,,,,,,,,,,,,,images/exp1a_trial_5_colour1_distractors43_r.png,r,2,009,001,2021-04-15_17h11.56.371,searchDisc4,2020.2.10,Win32,60,,,space,0.32214,2,1,0.66627,,0,201,201,5,1,1a,5,1,43,
,,,,,,,,,,,,,,,,,,,,,,,,,,images/exp2c_trial_54_colour3_distractors31_r.png,r,2,009,001,2021-04-15_17h11.56.371,searchDisc4,2020.2.10,Win32,60,,,space,0.33599,2,1,0.861715,,0,202,202,510,1,2c,54,3,31,
,,,,,,,,,,,,,,,,,,,,,,,,,,images/exp2b_trial_96_colour1_distractors9_l.png,l,1,009,001,2021-04-15_17h11.56.371,searchDisc4,2020.2.10,Win32,60,,,space,0.43225,1,1,0.664065,,0,203,203,438,1,2b,96,1,9,
,,,,,,,,,,,,,,,,,,,,,,,,,,images/exp2a_trial_29_colour2_distractors43_l.png,l,1,009,001,2021-04-15_17h11.56.371,searchDisc4,2020.2.10,Win32,60,,,space,0.379565,1,1,0.771095,,0,204,204,257,1,2a,29,2,43,
,,,,,,,,,,,,,,,,,,,,,,,,,,images/exp2b_trial_87_colour2_distractors43_r.png,r,2,009,001,2021-04-15_17h11.56.371,searchDisc4,2020.2.10,Win32,60,,,space,0.32132,2,1,0.932415,,0,205,205,429,1,2b,87,2,43,
,,,,,,,,,,,,,,,,,,,,,,,,,,images/exp2b_trial_10_colour2_distractors31_r.png,r,2,009,001,2021-04-15_17h11.56.371,searchDisc4,2020.2.10,Win32,60,,,space,0.29245,2,1,0.925035,,0,206,206,352,1,2b,10,2,31,
,,,,,,,,,,,,,,,,,,,,,,,,,,images/exp2b_trial_94_colour1_distractors1_l.png,l,1,009,001,2021-04-15_17h11.56.371,searchDisc4,2020.2.10,Win32,60,,,space,0.35078,1,1,0.937505,,0,207,207,436,1,2b,94,1,1,
,,,,,,,,,,,,,,,,,,,,,,,,,,images/exp1a_trial_19_colour1_distractors4_l.png,l,1,009,001,2021-04-15_17h11.56.371,searchDisc4,2020.2.10,Win32,60,,,space,0.735045,1,1,1.005435,,0,208,208,19,1,1a,19,1,4,
,,,,,,,,,,,,,,,,,,,,,,,,,,images/exp2a_trial_72_colour3_distractors31_l.png,l,1,009,001,2021-04-15_17h11.56.371,searchDisc4,2020.2.10,Win32,60,,,space,0.634415,1,1,0.740355,,0,209,209,300,1,2a,72,3,31,
,,,,,,,,,,,,,,,,,,,,,,,,,,images/exp2b_trial_72_colour3_distractors31_l.png,l,1,009,001,2021-04-15_17h11.56.371,searchDisc4,2020.2.10,Win32,60,,,space,0.44597,1,1,0.761245,,0,210,210,414,1,2b,72,3,31,
,,,,,,,,,,,,,,,,,,,,,,,,,,images/exp2c_trial_82_colour2_distractors1_r.png,r,2,009,001,2021-04-15_17h11.56.371,searchDisc4,2020.2.10,Win32,60,,,space,0.426145,2,1,0.7401,,0,211,211,538,1,2c,82,2,1,
,,,,,,,,,,,,,,,,,,,,,,,,,,images/exp2a_trial_68_colour3_distractors1_l.png,l,1,009,001,2021-04-15_17h11.56.371,searchDisc4,2020.2.10,Win32,60,,,space,0.401855,1,1,0.700665,,0,212,212,296,1,2a,68,3,1,
,,,,,,,,,,,,,,,,,,,,,,,,,,images/exp2a_trial_51_colour3_distractors4_r.png,r,2,009,001,2021-04-15_17h11.56.371,searchDisc4,2020.2.10,Win32,60,,,space,0.653655,2,1,1.122375,,0,213,213,279,1,2a,51,3,4,
,,,,,,,,,,,,,,,,,,,,,,,,,,images/exp1b_trial_31_colour3_distractors4_l.png,l,1,009,001,2021-04-15_17h11.56.371,searchDisc4,2020.2.10,Win32,60,,,space,0.56906,1,1,0.747245,,0,214,214,145,1,1b,31,3,4,
,,,,,,,,,,,,,,,,,,,,,,,,,,images/exp2b_trial_39_colour1_distractors4_r.png,r,2,009,001,2021-04-15_17h11.56.371,searchDisc4,2020.2.10,Win32,60,,,space,0.33767,2,1,2.18905,,0,215,215,381,1,2b,39,1,4,
,,,,,,,,,,,,,,,,,,,,,,,,,,images/exp2a_trial_96_colour1_distractors9_l.png,l,1,009,001,2021-04-15_17h11.56.371,searchDisc4,2020.2.10,Win32,60,,,space,0.417115,1,1,0.76107,,0,216,216,324,1,2a,96,1,9,
,,,,,,,,,,,,,,,,,,,,,,,,,,images/exp1b_trial_94_colour1_distractors1_l.png,l,1,009,001,2021-04-15_17h11.56.371,searchDisc4,2020.2.10,Win32,60,,,space,0.384945,1,1,1.30906,,0,217,217,208,1,1b,94,1,1,
,,,,,,,,,,,,,,,,,,,,,,,,,,images/exp2b_trial_19_colour1_distractors4_l.png,l,1,009,001,2021-04-15_17h11.56.371,searchDisc4,2020.2.10,Win32,60,,,space,0.367295,1,1,0.727305,,0,218,218,361,1,2b,19,1,4,
,,,,,,,,,,,,,,,,,,,,,,,,,,images/exp2a_trial_87_colour2_distractors43_r.png,r,2,009,001,2021-04-15_17h11.56.371,searchDisc4,2020.2.10,Win32,60,,,space,0.439635,2,1,0.87317,,0,219,219,315,1,2a,87,2,43,
,,,,,,,,,,,,,,,,,,,,,,,,,,images/exp2b_trial_93_colour3_distractors43_r.png,r,2,009,001,2021-04-15_17h11.56.371,searchDisc4,2020.2.10,Win32,60,,,space,0.300005,2,1,0.87215,,0,220,220,435,1,2b,93,3,43,
,,,,,,,,,,,,,,,,,,,,,,,,,,images/exp1b_trial_93_colour3_distractors43_r.png,r,2,009,001,2021-04-15_17h11.56.371,searchDisc4,2020.2.10,Win32,60,,,space,0.8824,,0,,,0,221,221,207,1,1b,93,3,43,
,,,,,,,,,,,,,,,,,,,,,,,,,,images/exp2c_trial_48_colour2_distractors31_r.png,r,2,009,001,2021-04-15_17h11.56.371,searchDisc4,2020.2.10,Win32,60,,,space,0.93333,2,1,0.66213,,0,222,222,504,1,2c,48,2,31,
,,,,,,,,,,,,,,,,,,,,,,,,,,images/exp2b_trial_61_colour1_distractors43_l.png,l,1,009,001,2021-04-15_17h11.56.371,searchDisc4,2020.2.10,Win32,60,,,space,0.398725,1,1,0.700195,,0,223,223,403,1,2b,61,1,43,
,,,,,,,,,,,,,,,,,,,,,,,,,,images/exp2b_trial_7_colour2_distractors4_r.png,r,2,009,001,2021-04-15_17h11.56.371,searchDisc4,2020.2.10,Win32,60,,,space,0.683935,2,1,0.72886,,0,224,224,349,1,2b,7,2,4,
,,,,,,,,,,,,,,,,,,,,,,,,,,images/exp2a_trial_101_colour2_distractors4_l.png,l,1,009,001,2021-04-15_17h11.56.371,searchDisc4,2020.2.10,Win32,60,,,space,0.386535,1,1,0.79671,,0,225,225,329,1,2a,101,2,4,
,,,,,,,,,,,,,,,,,,,,,,,,,,images/exp1b_trial_24_colour2_distractors1_l.png,l,1,009,001,2021-04-15_17h11.56.371,searchDisc4,2020.2.10,Win32,60,,,space,0.38403,1,1,0.847485,,0,226,226,138,1,1b,24,2,1,
,,,,,,,,,,,,,,,,,,,,,,,,,,images/exp2c_trial_85_colour2_distractors19_r.png,r,2,009,001,2021-04-15_17h11.56.371,searchDisc4,2020.2.10,Win32,60,,,space,0.417085,2,1,0.710655,,0,227,227,541,1,2c,85,2,19,
,,,,,,,,,,,,,,,,,,,,,,,,,,images/exp1a_trial_105_colour2_distractors43_l.png,l,1,009,001,2021-04-15_17h11.56.371,searchDisc4,2020.2.10,Win32,60,,,space,0.34413,1,1,0.676715,,0,228,228,105,1,1a,105,2,43,
,,,,,,,,,,,,,,,,,,,,,,,,,,images/exp2a_trial_1_colour1_distractors4_r.png,r,2,009,001,2021-04-15_17h11.56.371,searchDisc4,2020.2.10,Win32,60,,,space,0.39734,2,1,0.68158,,0,229,229,229,1,2a,1,1,4,
,,,,,,,,,,,,,,,,,,,,,,,,,,images/exp2c_trial_89_colour3_distractors4_r.png,r,2,009,001,2021-04-15_17h11.56.371,searchDisc4,2020.2.10,Win32,60,,,space,0.678155,2,1,0.76295,,0,230,230,545,1,2c,89,3,4,
,,,,,,,,,,,,,,,,,,,,,,,,,,images/exp1b_trial_54_colour3_distractors31_r.png,r,2,009,001,2021-04-15_17h11.56.371,searchDisc4,2020.2.10,Win32,60,,,space,0.37009,2,1,1.24013,,0,231,231,168,1,1b,54,3,31,
,,,,,,,,,,,,,,,,,,,,,,,,,,images/exp1a_trial_26_colour2_distractors9_l.png,l,1,009,001,2021-04-15_17h11.56.371,searchDisc4,2020.2.10,Win32,60,,,space,0.325815,1,1,0.669905,,0,232,232,26,1,1a,26,2,9,
,,,,,,,,,,,,,,,,,,,,,,,,,,images/exp2c_trial_95_colour1_distractors4_l.png,l,1,009,001,2021-04-15_17h11.56.371,searchDisc4,2020.2.10,Win32,60,,,space,0.336895,1,1,0.59452,,0,233,233,551,1,2c,95,1,4,
,,,,,,,,,,,,,,,,,,,,,,,,,,images/exp2c_trial_42_colour1_distractors31_r.png,r,2,009,001,2021-04-15_17h11.56.371,searchDisc4,2020.2.10,Win32,60,,,space,0.283905,2,1,0.78293,,0,234,234,498,1,2c,42,1,31,
,,,,,,,,,,,,,,,,,,,,,,,,,,images/exp2a_trial_79_colour1_distractors19_r.png,r,2,009,001,2021-04-15_17h11.56.371,searchDisc4,2020.2.10,Win32,60,,,space,0.554645,2,1,0.76214,,0,235,235,307,1,2a,79,1,19,
,,,,,,,,,,,,,,,,,,,,,,,,,,images/exp2c_trial_108_colour3_distractors9_l.png,l,1,009,001,2021-04-15_17h11.56.371,searchDisc4,2020.2.10,Win32,60,,,space,0.35595,1,1,0.60128,,0,236,236,564,1,2c,108,3,9,
,,,,,,,,,,,,,,,,,,,,,,,,,,images/exp2a_trial_67_colour2_distractors43_l.png,l,1,009,001,2021-04-15_17h11.56.371,searchDisc4,2020.2.10,Win32,60,,,space,0.35027,1,1,1.083945,,0,237,237,295,1,2a,67,2,43,
,,,,,,,,,,,,,,,,,,,,,,,,,,images/exp2c_trial_12_colour3_distractors1_r.png,r,2,009,001,2021-04-15_17h11.56.371,searchDisc4,2020.2.10,Win32,60,,,space,0.331885,2,1,0.976405,,0,238,238,468,1,2c,12,3,1,
,,,,,,,,,,,,,,,,,,,,,,,,,,images/exp2b_trial_9_colour2_distractors19_r.png,r,2,009,001,2021-04-15_17h11.56.371,searchDisc4,2020.2.10,Win32,60,,,space,0.35054,2,1,0.900415,space,0,239,239,351,1,2b,9,2,19,7.018925
,,,,,,,,,,,,,,,,,,,,,,,,,,images/exp2b_trial_78_colour1_distractors9_r.png,r,2,009,001,2021-04-15_17h11.56.371,searchDisc4,2020.2.10,Win32,60,,,space,0.965905,2,1,0.909525,,0,240,240,420,1,2b,78,1,9,
,,,,,,,,,,,,,,,,,,,,,,,,,,images/exp2b_trial_3_colour1_distractors19_r.png,r,2,009,001,2021-04-15_17h11.56.371,searchDisc4,2020.2.10,Win32,60,,,space,0.296485,2,1,0.758415,,0,241,241,345,1,2b,3,1,19,
,,,,,,,,,,,,,,,,,,,,,,,,,,images/exp2c_trial_60_colour1_distractors31_l.png,l,1,009,001,2021-04-15_17h11.56.371,searchDisc4,2020.2.10,Win32,60,,,space,0.31715,1,1,0.851465,,0,242,242,516,1,2c,60,1,31,
,,,,,,,,,,,,,,,,,,,,,,,,,,images/exp2b_trial_31_colour3_distractors4_l.png,l,1,009,001,2021-04-15_17h11.56.371,searchDisc4,2020.2.10,Win32,60,,,space,0.306155,1,1,0.82726,,0,243,243,373,1,2b,31,3,4,
,,,,,,,,,,,,,,,,,,,,,,,,,,images/exp2a_trial_38_colour1_distractors1_r.png,r,2,009,001,2021-04-15_17h11.56.371,searchDisc4,2020.2.10,Win32,60,,,space,0.300725,2,1,0.7541,,0,244,244,266,1,2a,38,1,1,
,,,,,,,,,,,,,,,,,,,,,,,,,,images/exp1a_trial_69_colour3_distractors4_l.png,l,1,009,001,2021-04-15_17h11.56.371,searchDisc4,2020.2.10,Win32,60,,,space,0.28219,1,1,0.6115,,0,245,245,69,1,1a,69,3,4,
,,,,,,,,,,,,,,,,,,,,,,,,,,images/exp2b_trial_47_colour2_distractors19_r.png,r,2,009,001,2021-04-15_17h11.56.371,searchDisc4,2020.2.10,Win32,60,,,space,0.29356,2,1,0.85744,,0,246,246,389,1,2b,47,2,19,
,,,,,,,,,,,,,,,,,,,,,,,,,,images/exp2c_trial_91_colour3_distractors19_r.png,r,2,009,001,2021-04-15_17h11.56.371,searchDisc4,2020.2.10,Win32,60,,,space,0.27692,2,1,0.658995,,0,247,247,547,1,2c,91,3,19,
,,,,,,,,,,,,,,,,,,,,,,,,,,images/exp1a_trial_21_colour1_distractors19_l.png,l,1,009,001,2021-04-15_17h11.56.371,searchDisc4,2020.2.10,Win32,60,,,space,0.22895,1,1,0.58687,,0,248,248,21,1,1a,21,1,19,
,,,,,,,,,,,,,,,,,,,,,,,,,,images/exp2b_trial_60_colour1_distractors31_l.png,l,1,009,001,2021-04-15_17h11.56.371,searchDisc4,2020.2.10,Win32,60,,,space,0.30188,1,1,0.90254,,0,249,249,402,1,2b,60,1,31,
,,,,,,,,,,,,,,,,,,,,,,,,,,images/exp1b_trial_83_colour2_distractors4_r.png,r,2,009,001,2021-04-15_17h11.56.371,searchDisc4,2020.2.10,Win32,60,,,space,0.315095,2,1,0.75395,,0,250,250,197,1,1b,83,2,4,
,,,,,,,,,,,,,,,,,,,,,,,,,,images/exp1b_trial_61_colour1_distractors43_l.png,l,1,009,001,2021-04-15_17h11.56.371,searchDisc4,2020.2.10,Win32,60,,,space,0.301875,1,1,1.158185,,0,251,251,175,1,1b,61,1,43,
,,,,,,,,,,,,,,,,,,,,,,,,,,images/exp2c_trial_29_colour2_distractors43_l.png,l,1,009,001,2021-04-15_17h11.56.371,searchDisc4,2020.2.10,Win32,60,,,space,0.30809,1,1,1.012795,,0,252,252,485,1,2c,29,2,43,
,,,,,,,,,,,,,,,,,,,,,,,,,,images/exp1b_trial_50_colour3_distractors1_r.png,r,2,009,001,2021-04-15_17h11.56.371,searchDisc4,2020.2.10,Win32,60,,,space,0.28914,2,1,1.577705,,0,253,253,164,1,1b,50,3,1,
,,,,,,,,,,,,,,,,,,,,,,,,,,images/exp2a_trial_3_colour1_distractors19_r.png,r,2,009,001,2021-04-15_17h11.56.371,searchDisc4,2020.2.10,Win32,60,,,space,0.317005,2,1,0.98384,,0,254,254,231,1,2a,3,1,19,
,,,,,,,,,,,,,,,,,,,,,,,,,,images/exp2a_trial_12_colour3_distractors1_r.png,r,2,009,001,2021-04-15_17h11.56.371,searchDisc4,2020.2.10,Win32,60,,,space,0.28844,2,1,0.704155,,0,255,255,240,1,2a,12,3,1,
,,,,,,,,,,,,,,,,,,,,,,,,,,images/exp1b_trial_108_colour3_distractors9_l.png,l,1,009,001,2021-04-15_17h11.56.371,searchDisc4,2020.2.10,Win32,60,,,space,0.30631,1,1,0.739825,,0,256,256,222,1,1b,108,3,9,
,,,,,,,,,,,,,,,,,,,,,,,,,,images/exp1b_trial_98_colour1_distractors31_l.png,l,1,009,001,2021-04-15_17h11.56.371,searchDisc4,2020.2.10,Win32,60,,,space,0.31828,1,1,0.96451,,0,257,257,212,1,1b,98,1,31,
,,,,,,,,,,,,,,,,,,,,,,,,,,images/exp2b_trial_11_colour2_distractors43_r.png,r,2,009,001,2021-04-15_17h11.56.371,searchDisc4,2020.2.10,Win32,60,,,space,0.329385,2,1,0.85534,,0,258,258,353,1,2b,11,2,43,
,,,,,,,,,,,,,,,,,,,,,,,,,,images/exp1a_trial_96_colour1_distractors9_l.png,l,1,009,001,2021-04-15_17h11.56.371,searchDisc4,2020.2.10,Win32,60,,,space,0.28123,1,1,0.72913,,0,259,259,96,1,1a,96,1,9,
,,,,,,,,,,,,,,,,,,,,,,,,,,images/exp2b_trial_54_colour3_distractors31_r.png,r,2,009,001,2021-04-15_17h11.56.371,searchDisc4,2020.2.10,Win32,60,,,space,0.33186,2,1,0.799795,,0,260,260,396,1,2b,54,3,31,
,,,,,,,,,,,,,,,,,,,,,,,,,,images/exp1a_trial_61_colour1_distractors43_l.png,l,1,009,001,2021-04-15_17h11.56.371,searchDisc4,2020.2.10,Win32,60,,,space,0.25054,1,1,0.778625,,0,261,261,61,1,1a,61,1,43,
,,,,,,,,,,,,,,,,,,,,,,,,,,images/exp1a_trial_78_colour1_distractors9_r.png,r,2,009,001,2021-04-15_17h11.56.371,searchDisc4,2020.2.10,Win32,60,,,space,0.331075,2,1,0.736965,,0,262,262,78,1,1a,78,1,9,
,,,,,,,,,,,,,,,,,,,,,,,,,,images/exp2c_trial_67_colour2_distractors43_l.png,l,1,009,001,2021-04-15_17h11.56.371,searchDisc4,2020.2.10,Win32,60,,,space,0.231135,1,1,0.713755,,0,263,263,523,1,2c,67,2,43,
,,,,,,,,,,,,,,,,,,,,,,,,,,images/exp1a_trial_91_colour3_distractors19_r.png,r,2,009,001,2021-04-15_17h11.56.371,searchDisc4,2020.2.10,Win32,60,,,space,0.259385,2,1,0.7007,,0,264,264,91,1,1a,91,3,19,
,,,,,,,,,,,,,,,,,,,,,,,,,,images/exp2c_trial_20_colour1_distractors9_l.png,l,1,009,001,2021-04-15_17h11.56.371,searchDisc4,2020.2.10,Win32,60,,,space,0.296035,1,1,0.64413,,0,265,265,476,1,2c,20,1,9,
,,,,,,,,,,,,,,,,,,,,,,,,,,images/exp1b_trial_23_colour1_distractors43_l.png,l,1,009,001,2021-04-15_17h11.56.371,searchDisc4,2020.2.10,Win32,60,,,space,0.417105,1,1,0.762765,,0,266,266,137,1,1b,23,1,43,
,,,,,,,,,,,,,,,,,,,,,,,,,,images/exp2b_trial_103_colour2_distractors19_l.png,l,1,009,001,2021-04-15_17h11.56.371,searchDisc4,2020.2.10,Win32,60,,,space,0.313015,1,1,0.57448,,0,267,267,445,1,2b,103,2,19,
,,,,,,,,,,,,,,,,,,,,,,,,,,images/exp2a_trial_40_colour1_distractors9_r.png,r,2,009,001,2021-04-15_17h11.56.371,searchDisc4,2020.2.10,Win32,60,,,space,0.30369,2,1,1.56045,,0,268,268,268,1,2a,40,1,9,
,,,,,,,,,,,,,,,,,,,,,,,,,,images/exp2a_trial_86_colour2_distractors31_r.png,r,2,009,001,2021-04-15_17h11.56.371,searchDisc4,2020.2.10,Win32,60,,,space,0.25889,2,1,0.699475,,0,269,269,314,1,2a,86,2,31,
,,,,,,,,,,,,,,,,,,,,,,,,,,images/exp2b_trial_112_colour0_distractors0_r.png,r,2,009,001,2021-04-15_17h11.56.371,searchDisc4,2020.2.10,Win32,60,,,space,0.317125,2,1,0.88356,,0,270,270,454,1,2b,112,0,0,
,,,,,,,,,,,,,,,,,,,,,,,,,,images/exp1a_trial_104_colour2_distractors31_l.png,l,1,009,001,2021-04-15_17h11.56.371,searchDisc4,2020.2.10,Win32,60,,,space,0.271555,1,1,0.871255,,0,271,271,104,1,1a,104,2,31,
,,,,,,,,,,,,,,,,,,,,,,,,,,images/exp2b_trial_58_colour1_distractors9_l.png,l,1,009,001,2021-04-15_17h11.56.371,searchDisc4,2020.2.10,Win32,60,,,space,0.515095,1,1,0.58091,,0,272,272,400,1,2b,58,1,9,
,,,,,,,,,,,,,,,,,,,,,,,,,,images/exp1a_trial_68_colour3_distractors1_l.png,l,1,009,001,2021-04-15_17h11.56.371,searchDisc4,2020.2.10,Win32,60,,,space,0.35099,1,1,0.62512,,0,273,273,68,1,1a,68,3,1,
,,,,,,,,,,,,,,,,,,,,,,,,,,images/exp2a_trial_25_colour2_distractors4_l.png,l,1,009,001,2021-04-15_17h11.56.371,searchDisc4,2020.2.10,Win32,60,,,space,0.33398,1,1,0.64492,,0,274,274,253,1,2a,25,2,4,
,,,,,,,,,,,,,,,,,,,,,,,,,,images/exp2c_trial_110_colour3_distractors31_l.png,l,1,009,001,2021-04-15_17h11.56.371,searchDisc4,2020.2.10,Win32,60,,,space,0.333245,1,1,0.688885,,0,275,275,566,1,2c,110,3,31,
,,,,,,,,,,,,,,,,,,,,,,,,,,images/exp1b_trial_102_colour2_distractors9_l.png,l,1,009,001,2021-04-15_17h11.56.371,searchDisc4,2020.2.10,Win32,60,,,space,0.29877,1,1,0.87138,,0,276,276,216,1,1b,102,2,9,
,,,,,,,,,,,,,,,,,,,,,,,,,,images/exp2a_trial_36_colour0_distractors0_r.png,r,2,009,001,2021-04-15_17h11.56.371,searchDisc4,2020.2.10,Win32,60,,,space,0.472795,2,1,0.866675,,0,277,277,264,1,2a,36,0,0,
,,,,,,,,,,,,,,,,,,,,,,,,,,images/exp1b_trial_78_colour1_distractors9_r.png,r,2,009,001,2021-04-15_17h11.56.371,searchDisc4,2020.2.10,Win32,60,,,space,0.28862,2,1,0.707,,0,278,278,192,1,1b,78,1,9,
,,,,,,,,,,,,,,,,,,,,,,,,,,images/exp2b_trial_89_colour3_distractors4_r.png,r,2,009,001,2021-04-15_17h11.56.371,searchDisc4,2020.2.10,Win32,60,,,space,0.282365,2,1,0.81402,,0,279,279,431,1,2b,89,3,4,
,,,,,,,,,,,,,,,,,,,,,,,,,,images/exp2b_trial_57_colour1_distractors4_l.png,l,1,009,001,2021-04-15_17h11.56.371,searchDisc4,2020.2.10,Win32,60,,,space,0.591365,1,1,0.694585,,0,280,280,399,1,2b,57,1,4,
,,,,,,,,,,,,,,,,,,,,,,,,,,images/exp2c_trial_90_colour3_distractors9_r.png,r,2,009,001,2021-04-15_17h11.56.371,searchDisc4,2020.2.10,Win32,60,,,space,0.32189,2,1,0.84104,,0,281,281,546,1,2c,90,3,9,
,,,,,,,,,,,,,,,,,,,,,,,,,,images/exp1b_trial_25_colour2_distractors4_l.png,l,1,009,001,2021-04-15_17h11.56.371,searchDisc4,2020.2.10,Win32,60,,,space,0.264905,1,1,0.81613,,0,282,282,139,1,1b,25,2,4,
,,,,,,,,,,,,,,,,,,,,,,,,,,images/exp2b_trial_86_colour2_distractors31_r.png,r,2,009,001,2021-04-15_17h11.56.371,searchDisc4,2020.2.10,Win32,60,,,space,0.27838,2,1,1.117335,,0,283,283,428,1,2b,86,2,31,
,,,,,,,,,,,,,,,,,,,,,,,,,,images/exp1b_trial_44_colour2_distractors1_r.png,r,2,009,001,2021-04-15_17h11.56.371,searchDisc4,2020.2.10,Win32,60,,,space,0.26479,2,1,1.17916,,0,284,284,158,1,1b,44,2,1,
,,,,,,,,,,,,,,,,,,,,,,,,,,images/exp1b_trial_90_colour3_distractors9_r.png,r,2,009,001,2021-04-15_17h11.56.371,searchDisc4,2020.2.10,Win32,60,,,space,1.859615,2,1,0.680195,,0,285,285,204,1,1b,90,3,9,
,,,,,,,,,,,,,,,,,,,,,,,,,,images/exp2a_trial_43_colour1_distractors43_r.png,r,2,009,001,2021-04-15_17h11.56.371,searchDisc4,2020.2.10,Win32,60,,,space,0.28412,2,1,2.611155,,0,286,286,271,1,2a,43,1,43,
,,,,,,,,,,,,,,,,,,,,,,,,,,images/exp1a_trial_23_colour1_distractors43_l.png,l,1,009,001,2021-04-15_17h11.56.371,searchDisc4,2020.2.10,Win32,60,,,space,0.268575,1,1,1.22274,,0,287,287,23,1,1a,23,1,43,
,,,,,,,,,,,,,,,,,,,,,,,,,,images/exp2b_trial_53_colour3_distractors19_r.png,r,2,009,001,2021-04-15_17h11.56.371,searchDisc4,2020.2.10,Win32,60,,,space,0.26401,2,1,1.014225,,0,288,288,395,1,2b,53,3,19,
,,,,,,,,,,,,,,,,,,,,,,,,,,images/exp1b_trial_60_colour1_distractors31_l.png,l,1,009,001,2021-04-15_17h11.56.371,searchDisc4,2020.2.10,Win32,60,,,space,0.24941,1,1,0.939765,,0,289,289,174,1,1b,60,1,31,
,,,,,,,,,,,,,,,,,,,,,,,,,,images/exp2b_trial_66_colour2_distractors31_l.png,l,1,009,001,2021-04-15_17h11.56.371,searchDisc4,2020.2.10,Win32,60,,,space,0.285845,1,1,0.8593,,0,290,290,408,1,2b,66,2,31,
,,,,,,,,,,,,,,,,,,,,,,,,,,images/exp1a_trial_99_colour1_distractors43_l.png,l,1,009,001,2021-04-15_17h11.56.371,searchDisc4,2020.2.10,Win32,60,,,space,0.257865,1,1,0.614155,,0,291,291,99,1,1a,99,1,43,
,,,,,,,,,,,,,,,,,,,,,,,,,,images/exp2a_trial_7_colour2_distractors4_r.png,r,2,009,001,2021-04-15_17h11.56.371,searchDisc4,2020.2.10,Win32,60,,,space,0.282385,2,1,2.66862,,0,292,292,235,1,2a,7,2,4,
,,,,,,,,,,,,,,,,,,,,,,,,,,images/exp2c_trial_74_colour0_distractors0_r.png,r,2,009,001,2021-04-15_17h11.56.371,searchDisc4,2020.2.10,Win32,60,,,space,0.314365,2,1,0.744865,,0,293,293,530,1,2c,74,0,0,
,,,,,,,,,,,,,,,,,,,,,,,,,,images/exp2b_trial_43_colour1_distractors43_r.png,r,2,009,001,2021-04-15_17h11.56.371,searchDisc4,2020.2.10,Win32,60,,,space,0.266855,2,1,1.32884,,0,294,294,385,1,2b,43,1,43,
,,,,,,,,,,,,,,,,,,,,,,,,,,images/exp2c_trial_57_colour1_distractors4_l.png,l,1,009,001,2021-04-15_17h11.56.371,searchDisc4,2020.2.10,Win32,60,,,space,0.321815,1,1,0.877465,,0,295,295,513,1,2c,57,1,4,
,,,,,,,,,,,,,,,,,,,,,,,,,,images/exp2b_trial_42_colour1_distractors31_r.png,r,2,009,001,2021-04-15_17h11.56.371,searchDisc4,2020.2.10,Win32,60,,,space,0.35302,2,1,1.02855,,0,296,296,384,1,2b,42,1,31,
,,,,,,,,,,,,,,,,,,,,,,,,,,images/exp2a_trial_30_colour3_distractors1_l.png,l,1,009,001,2021-04-15_17h11.56.371,searchDisc4,2020.2.10,Win32,60,,,space,0.314835,1,1,0.91408,,0,297,297,258,1,2a,30,3,1,
,,,,,,,,,,,,,,,,,,,,,,,,,,images/exp2a_trial_77_colour1_distractors4_r.png,r,2,009,001,2021-04-15_17h11.56.371,searchDisc4,2020.2.10,Win32,60,,,space,0.270775,2,1,2.13807,,0,298,298,305,1,2a,77,1,4,
,,,,,,,,,,,,,,,,,,,,,,,,,,images/exp2b_trial_62_colour2_distractors1_l.png,l,1,009,001,2021-04-15_17h11.56.371,searchDisc4,2020.2.10,Win32,60,,,space,0.324585,1,1,0.746105,space,0,299,299,404,1,2b,62,2,1,0.26515
,,,,,,,,,,,,,,,,,,,,,,,,,,images/exp2a_trial_99_colour1_distractors43_l.png,l,1,009,001,2021-04-15_17h11.56.371,searchDisc4,2020.2.10,Win32,60,,,space,2.38468,1,1,0.606185,,0,300,300,327,1,2a,99,1,43,
,,,,,,,,,,,,,,,,,,,,,,,,,,images/exp1b_trial_41_colour1_distractors19_r.png,r,2,009,001,2021-04-15_17h11.56.371,searchDisc4,2020.2.10,Win32,60,,,space,0.185745,2,1,0.7184,,0,301,301,155,1,1b,41,1,19,
,,,,,,,,,,,,,,,,,,,,,,,,,,images/exp2a_trial_92_colour3_distractors31_r.png,r,2,009,001,2021-04-15_17h11.56.371,searchDisc4,2020.2.10,Win32,60,,,space,0.218735,2,1,0.891695,,0,302,302,320,1,2a,92,3,31,
,,,,,,,,,,,,,,,,,,,,,,,,,,images/exp2a_trial_106_colour3_distractors1_l.png,l,1,009,001,2021-04-15_17h11.56.371,searchDisc4,2020.2.10,Win32,60,,,space,0.20023,1,1,0.5588,,0,303,303,334,1,2a,106,3,1,
,,,,,,,,,,,,,,,,,,,,,,,,,,images/exp1a_trial_60_colour1_distractors31_l.png,l,1,009,001,2021-04-15_17h11.56.371,searchDisc4,2020.2.10,Win32,60,,,space,0.19876,1,1,0.640115,,0,304,304,60,1,1a,60,1,31,
,,,,,,,,,,,,,,,,,,,,,,,,,,images/exp1a_trial_83_colour2_distractors4_r.png,r,2,009,001,2021-04-15_17h11.56.371,searchDisc4,2020.2.10,Win32,60,,,space,0.177505,2,1,0.671765,,0,305,305,83,1,1a,83,2,4,
,,,,,,,,,,,,,,,,,,,,,,,,,,images/exp2a_trial_45_colour2_distractors4_r.png,r,2,009,001,2021-04-15_17h11.56.371,searchDisc4,2020.2.10,Win32,60,,,space,0.20141,2,1,0.52781,,0,306,306,273,1,2a,45,2,4,
,,,,,,,,,,,,,,,,,,,,,,,,,,images/exp1b_trial_71_colour3_distractors19_l.png,l,1,009,001,2021-04-15_17h11.56.371,searchDisc4,2020.2.10,Win32,60,,,space,0.185665,1,1,1.74,,0,307,307,185,1,1b,71,3,19,
,,,,,,,,,,,,,,,,,,,,,,,,,,images/exp2b_trial_100_colour2_distractors1_l.png,l,1,009,001,2021-04-15_17h11.56.371,searchDisc4,2020.2.10,Win32,60,,,space,0.21802,1,1,0.831645,,0,308,308,442,1,2b,100,2,1,
,,,,,,,,,,,,,,,,,,,,,,,,,,images/exp2a_trial_37_colour0_distractors0_l.png,l,1,009,001,2021-04-15_17h11.56.371,searchDisc4,2020.2.10,Win32,60,,,space,0.1892,1,1,0.70522,,0,309,309,265,1,2a,37,0,0,
,,,,,,,,,,,,,,,,,,,,,,,,,,images/exp2b_trial_64_colour2_distractors9_l.png,l,1,009,001,2021-04-15_17h11.56.371,searchDisc4,2020.2.10,Win32,60,,,space,0.167155,1,1,0.813595,,0,310,310,406,1,2b,64,2,9,
,,,,,,,,,,,,,,,,,,,,,,,,,,images/exp2c_trial_15_colour3_distractors19_r.png,r,2,009,001,2021-04-15_17h11.56.371,searchDisc4,2020.2.10,Win32,60,,,space,0.554305,2,1,0.79252,,0,311,311,471,1,2c,15,3,19,
,,,,,,,,,,,,,,,,,,,,,,,,,,images/exp2b_trial_84_colour2_distractors9_r.png,r,2,009,001,2021-04-15_17h11.56.371,searchDisc4,2020.2.10,Win32,60,,,space,0.533685,2,1,0.765145,,0,312,312,426,1,2b,84,2,9,
,,,,,,,,,,,,,,,,,,,,,,,,,,images/exp1a_trial_36_colour0_distractors0_r.png,r,2,009,001,2021-04-15_17h11.56.371,searchDisc4,2020.2.10,Win32,60,,,space,0.45451,2,1,0.63983,,0,313,313,36,1,1a,36,0,0,
,,,,,,,,,,,,,,,,,,,,,,,,,,images/exp2c_trial_63_colour2_distractors4_l.png,l,1,009,001,2021-04-15_17h11.56.371,searchDisc4,2020.2.10,Win32,60,,,space,0.28108,2,0,0.560105,,0,314,314,519,1,2c,63,2,4,
,,,,,,,,,,,,,,,,,,,,,,,,,,images/exp2c_trial_36_colour0_distractors0_r.png,r,2,009,001,2021-04-15_17h11.56.371,searchDisc4,2020.2.10,Win32,60,,,space,0.53679,2,1,0.575105,,0,315,315,492,1,2c,36,0,0,
,,,,,,,,,,,,,,,,,,,,,,,,,,images/exp2b_trial_40_colour1_distractors9_r.png,r,2,009,001,2021-04-15_17h11.56.371,searchDisc4,2020.2.10,Win32,60,,,space,0.253405,2,1,0.821005,,0,316,316,382,1,2b,40,1,9,
,,,,,,,,,,,,,,,,,,,,,,,,,,images/exp2a_trial_85_colour2_distractors19_r.png,r,2,009,001,2021-04-15_17h11.56.371,searchDisc4,2020.2.10,Win32,60,,,space,0.207825,2,1,0.722605,,0,317,317,313,1,2a,85,2,19,
,,,,,,,,,,,,,,,,,,,,,,,,,,images/exp2b_trial_111_colour3_distractors43_l.png,l,1,009,001,2021-04-15_17h11.56.371,searchDisc4,2020.2.10,Win32,60,,,space,0.18541,1,1,0.94056,,0,318,318,453,1,2b,111,3,43,
,,,,,,,,,,,,,,,,,,,,,,,,,,images/exp2a_trial_33_colour3_distractors19_l.png,l,1,009,001,2021-04-15_17h11.56.371,searchDisc4,2020.2.10,Win32,60,,,space,0.241225,1,1,0.635125,,0,319,319,261,1,2a,33,3,19,
,,,,,,,,,,,,,,,,,,,,,,,,,,images/exp1a_trial_67_colour2_distractors43_l.png,l,1,009,001,2021-04-15_17h11.56.371,searchDisc4,2020.2.10,Win32,60,,,space,0.417195,1,1,1.00421,,0,320,320,67,1,1a,67,2,43,
,,,,,,,,,,,,,,,,,,,,,,,,,,images/exp2b_trial_82_colour2_distractors1_r.png,r,2,009,001,2021-04-15_17h11.56.371,searchDisc4,2020.2.10,Win32,60,,,space,0.59985,2,1,0.6488,,0,321,321,424,1,2b,82,2,1,
,,,,,,,,,,,,,,,,,,,,,,,,,,images/exp1b_trial_1_colour1_distractors4_r.png,r,2,009,001,2021-04-15_17h11.56.371,searchDisc4,2020.2.10,Win32,60,,,space,0.41887,2,1,1.060235,,0,322,322,115,1,1b,1,1,4,
,,,,,,,,,,,,,,,,,,,,,,,,,,images/exp2b_trial_23_colour1_distractors43_l.png,l,1,009,001,2021-04-15_17h11.56.371,searchDisc4,2020.2.10,Win32,60,,,space,0.367115,1,1,0.691415,,0,323,323,365,1,2b,23,1,43,
,,,,,,,,,,,,,,,,,,,,,,,,,,images/exp1b_trial_79_colour1_distractors19_r.png,r,2,009,001,2021-04-15_17h11.56.371,searchDisc4,2020.2.10,Win32,60,,,space,0.57571,2,1,0.9387,,0,324,324,193,1,1b,79,1,19,
,,,,,,,,,,,,,,,,,,,,,,,,,,images/exp2a_trial_89_colour3_distractors4_r.png,r,2,009,001,2021-04-15_17h11.56.371,searchDisc4,2020.2.10,Win32,60,,,space,0.398315,2,1,0.81232,,0,325,325,317,1,2a,89,3,4,
,,,,,,,,,,,,,,,,,,,,,,,,,,images/exp1b_trial_57_colour1_distractors4_l.png,l,1,009,001,2021-04-15_17h11.56.371,searchDisc4,2020.2.10,Win32,60,,,space,0.297975,1,1,0.928325,,0,326,326,171,1,1b,57,1,4,
,,,,,,,,,,,,,,,,,,,,,,,,,,images/exp1a_trial_72_colour3_distractors31_l.png,l,1,009,001,2021-04-15_17h11.56.371,searchDisc4,2020.2.10,Win32,60,,,space,0.326115,1,1,0.67533,,0,327,327,72,1,1a,72,3,31,
,,,,,,,,,,,,,,,,,,,,,,,,,,images/exp1b_trial_80_colour1_distractors31_r.png,r,2,009,001,2021-04-15_17h11.56.371,searchDisc4,2020.2.10,Win32,60,,,space,0.26722,2,1,1.189105,,0,328,328,194,1,1b,80,1,31,
,,,,,,,,,,,,,,,,,,,,,,,,,,images/exp2b_trial_59_colour1_distractors19_l.png,l,1,009,001,2021-04-15_17h11.56.371,searchDisc4,2020.2.10,Win32,60,,,space,0.243635,1,1,0.902565,,0,329,329,401,1,2b,59,1,19,
,,,,,,,,,,,,,,,,,,,,,,,,,,images/exp2c_trial_11_colour2_distractors43_r.png,r,2,009,001,2021-04-15_17h11.56.371,searchDisc4,2020.2.10,Win32,60,,,space,0.450015,2,1,0.65241,,0,330,330,467,1,2c,11,2,43,
,,,,,,,,,,,,,,,,,,,,,,,,,,images/exp2b_trial_4_colour1_distractors31_r.png,r,2,009,001,2021-04-15_17h11.56.371,searchDisc4,2020.2.10,Win32,60,,,space,0.45133,2,1,0.72408,,0,331,331,346,1,2b,4,1,31,
,,,,,,,,,,,,,,,,,,,,,,,,,,images/exp1a_trial_33_colour3_distractors19_l.png,l,1,009,001,2021-04-15_17h11.56.371,searchDisc4,2020.2.10,Win32,60,,,space,0.2413,1,1,0.5913,,0,332,332,33,1,1a,33,3,19,
,,,,,,,,,,,,,,,,,,,,,,,,,,images/exp1b_trial_65_colour2_distractors19_l.png,l,1,009,001,2021-04-15_17h11.56.371,searchDisc4,2020.2.10,Win32,60,,,space,0.267035,1,1,0.853675,,0,333,333,179,1,1b,65,2,19,
,,,,,,,,,,,,,,,,,,,,,,,,,,images/exp1a_trial_73_colour3_distractors43_l.png,l,1,009,001,2021-04-15_17h11.56.371,searchDisc4,2020.2.10,Win32,60,,,space,0.269395,1,1,0.647445,,0,334,334,73,1,1a,73,3,43,
,,,,,,,,,,,,,,,,,,,,,,,,,,images/exp2c_trial_0_colour1_distractors1_r.png,r,2,009,001,2021-04-15_17h11.56.371,searchDisc4,2020.2.10,Win32,60,,,space,0.222385,2,1,0.67704,,0,335,335,456,1,2c,0,1,1,
,,,,,,,,,,,,,,,,,,,,,,,,,,images/exp2a_trial_11_colour2_distractors43_r.png,r,2,009,001,2021-04-15_17h11.56.371,searchDisc4,2020.2.10,Win32,60,,,space,0.28395,2,1,0.680895,,0,336,336,239,1,2a,11,2,43,
,,,,,,,,,,,,,,,,,,,,,,,,,,images/exp2a_trial_63_colour2_distractors4_l.png,l,1,009,001,2021-04-15_17h11.56.371,searchDisc4,2020.2.10,Win32,60,,,space,0.278045,1,1,0.758205,,0,337,337,291,1,2a,63,2,4,
,,,,,,,,,,,,,,,,,,,,,,,,,,images/exp1b_trial_68_colour3_distractors1_l.png,l,1,009,001,2021-04-15_17h11.56.371,searchDisc4,2020.2.10,Win32,60,,,space,0.384025,1,1,1.00659,,0,338,338,182,1,1b,68,3,1,
,,,,,,,,,,,,,,,,,,,,,,,,,,images/exp1b_trial_53_colour3_distractors19_r.png,r,2,009,001,2021-04-15_17h11.56.371,searchDisc4,2020.2.10,Win32,60,,,space,0.30539,2,1,1.442125,,0,339,339,167,1,1b,53,3,19,
,,,,,,,,,,,,,,,,,,,,,,,,,,images/exp1b_trial_11_colour2_distractors43_r.png,r,2,009,001,2021-04-15_17h11.56.371,searchDisc4,2020.2.10,Win32,60,,,space,0.292505,2,1,3.0938,,0,340,340,125,1,1b,11,2,43,
,,,,,,,,,,,,,,,,,,,,,,,,,,images/exp2c_trial_78_colour1_distractors9_r.png,r,2,009,001,2021-04-15_17h11.56.371,searchDisc4,2020.2.10,Win32,60,,,space,0.267265,2,1,0.90592,,0,341,341,534,1,2c,78,1,9,
,,,,,,,,,,,,,,,,,,,,,,,,,,images/exp1a_trial_76_colour1_distractors1_r.png,r,2,009,001,2021-04-15_17h11.56.371,searchDisc4,2020.2.10,Win32,60,,,space,0.281545,1,0,0.97421,,0,342,342,76,1,1a,76,1,1,
,,,,,,,,,,,,,,,,,,,,,,,,,,images/exp2a_trial_56_colour1_distractors1_l.png,l,1,009,001,2021-04-15_17h11.56.371,searchDisc4,2020.2.10,Win32,60,,,space,0.23994,1,1,2.85028,,0,343,343,284,1,2a,56,1,1,
,,,,,,,,,,,,,,,,,,,,,,,,,,images/exp2c_trial_1_colour1_distractors4_r.png,r,2,009,001,2021-04-15_17h11.56.371,searchDisc4,2020.2.10,Win32,60,,,space,0.48377,2,1,0.76502,,0,344,344,457,1,2c,1,1,4,
,,,,,,,,,,,,,,,,,,,,,,,,,,images/exp1a_trial_10_colour2_distractors31_r.png,r,2,009,001,2021-04-15_17h11.56.371,searchDisc4,2020.2.10,Win32,60,,,space,0.28537,2,1,1.34882,,0,345,345,10,1,1a,10,2,31,
,,,,,,,,,,,,,,,,,,,,,,,,,,images/exp2b_trial_44_colour2_distractors1_r.png,r,2,009,001,2021-04-15_17h11.56.371,searchDisc4,2020.2.10,Win32,60,,,space,0.325275,2,1,0.809825,,0,346,346,386,1,2b,44,2,1,
,,,,,,,,,,,,,,,,,,,,,,,,,,images/exp1b_trial_29_colour2_distractors43_l.png,l,1,009,001,2021-04-15_17h11.56.371,searchDisc4,2020.2.10,Win32,60,,,space,0.200115,1,1,1.48598,,0,347,347,143,1,1b,29,2,43,
,,,,,,,,,,,,,,,,,,,,,,,,,,images/exp2a_trial_57_colour1_distractors4_l.png,l,1,009,001,2021-04-15_17h11.56.371,searchDisc4,2020.2.10,Win32,60,,,space,0.2299,1,1,0.76445,,0,348,348,285,1,2a,57,1,4,
,,,,,,,,,,,,,,,,,,,,,,,,,,images/exp2c_trial_88_colour3_distractors1_r.png,r,2,009,001,2021-04-15_17h11.56.371,searchDisc4,2020.2.10,Win32,60,,,space,0.193105,2,1,0.727975,,0,349,349,544,1,2c,88,3,1,
,,,,,,,,,,,,,,,,,,,,,,,,,,images/exp2b_trial_28_colour2_distractors31_l.png,l,1,009,001,2021-04-15_17h11.56.371,searchDisc4,2020.2.10,Win32,60,,,space,0.18834,1,1,0.742,,0,350,350,370,1,2b,28,2,31,
,,,,,,,,,,,,,,,,,,,,,,,,,,images/exp2b_trial_95_colour1_distractors4_l.png,l,1,009,001,2021-04-15_17h11.56.371,searchDisc4,2020.2.10,Win32,60,,,space,0.29733,1,1,0.84092,,0,351,351,437,1,2b,95,1,4,
,,,,,,,,,,,,,,,,,,,,,,,,,,images/exp2c_trial_3_colour1_distractors19_r.png,r,2,009,001,2021-04-15_17h11.56.371,searchDisc4,2020.2.10,Win32,60,,,space,0.283895,2,1,0.749885,,0,352,352,459,1,2c,3,1,19,
,,,,,,,,,,,,,,,,,,,,,,,,,,images/exp1b_trial_35_colour3_distractors43_l.png,l,1,009,001,2021-04-15_17h11.56.371,searchDisc4,2020.2.10,Win32,60,,,space,0.30044,1,1,2.38949,,0,353,353,149,1,1b,35,3,43,
,,,,,,,,,,,,,,,,,,,,,,,,,,images/exp1b_trial_45_colour2_distractors4_r.png,r,2,009,001,2021-04-15_17h11.56.371,searchDisc4,2020.2.10,Win32,60,,,space,0.24828,2,1,1.371035,,0,354,354,159,1,1b,45,2,4,
,,,,,,,,,,,,,,,,,,,,,,,,,,images/exp1a_trial_15_colour3_distractors19_r.png,r,2,009,001,2021-04-15_17h11.56.371,searchDisc4,2020.2.10,Win32,60,,,space,0.25904,2,1,0.790605,,0,355,355,15,1,1a,15,3,19,
,,,,,,,,,,,,,,,,,,,,,,,,,,images/exp2b_trial_50_colour3_distractors1_r.png,r,2,009,001,2021-04-15_17h11.56.371,searchDisc4,2020.2.10,Win32,60,,,space,0.204435,2,1,0.841065,,0,356,356,392,1,2b,50,3,1,
,,,,,,,,,,,,,,,,,,,,,,,,,,images/exp2a_trial_5_colour1_distractors43_r.png,r,2,009,001,2021-04-15_17h11.56.371,searchDisc4,2020.2.10,Win32,60,,,space,0.245445,2,1,0.965495,,0,357,357,233,1,2a,5,1,43,
,,,,,,,,,,,,,,,,,,,,,,,,,,images/exp2c_trial_18_colour1_distractors1_l.png,l,1,009,001,2021-04-15_17h11.56.371,searchDisc4,2020.2.10,Win32,60,,,space,0.23944,1,1,0.76361,,0,358,358,474,1,2c,18,1,1,
,,,,,,,,,,,,,,,,,,,,,,,,,,images/exp1a_trial_103_colour2_distractors19_l.png,l,1,009,001,2021-04-15_17h11.56.371,searchDisc4,2020.2.10,Win32,60,,,space,0.247185,1,1,0.896085,space,0,359,359,103,1,1a,103,2,19,0.250785
,,,,,,,,,,,,,,,,,,,,,,,,,,images/exp1a_trial_85_colour2_distractors19_r.png,r,2,009,001,2021-04-15_17h11.56.371,searchDisc4,2020.2.10,Win32,60,,,space,1.56455,2,1,0.68735,,0,360,360,85,1,1a,85,2,19,
,,,,,,,,,,,,,,,,,,,,,,,,,,images/exp1b_trial_16_colour3_distractors31_r.png,r,2,009,001,2021-04-15_17h11.56.371,searchDisc4,2020.2.10,Win32,60,,,space,0.230765,2,1,3.432455,,0,361,361,130,1,1b,16,3,31,
,,,,,,,,,,,,,,,,,,,,,,,,,,images/exp1b_trial_69_colour3_distractors4_l.png,l,1,009,001,2021-04-15_17h11.56.371,searchDisc4,2020.2.10,Win32,60,,,space,0.190995,1,1,1.00615,,0,362,362,183,1,1b,69,3,4,
,,,,,,,,,,,,,,,,,,,,,,,,,,images/exp2c_trial_111_colour3_distractors43_l.png,l,1,009,001,2021-04-15_17h11.56.371,searchDisc4,2020.2.10,Win32,60,,,space,0.431,1,1,0.766285,,0,363,363,567,1,2c,111,3,43,
,,,,,,,,,,,,,,,,,,,,,,,,,,images/exp2a_trial_94_colour1_distractors1_l.png,l,1,009,001,2021-04-15_17h11.56.371,searchDisc4,2020.2.10,Win32,60,,,space,0.33353,1,1,0.5025,,0,364,364,322,1,2a,94,1,1,
,,,,,,,,,,,,,,,,,,,,,,,,,,images/exp1a_trial_93_colour3_distractors43_r.png,r,2,009,001,2021-04-15_17h11.56.371,searchDisc4,2020.2.10,Win32,60,,,space,0.26313,2,1,0.839385,,0,365,365,93,1,1a,93,3,43,
,,,,,,,,,,,,,,,,,,,,,,,,,,images/exp1b_trial_75_colour0_distractors0_l.png,l,1,009,001,2021-04-15_17h11.56.371,searchDisc4,2020.2.10,Win32,60,,,space,0.320835,1,1,0.99919,,0,366,366,189,1,1b,75,0,0,
,,,,,,,,,,,,,,,,,,,,,,,,,,images/exp1a_trial_49_colour2_distractors43_r.png,r,2,009,001,2021-04-15_17h11.56.371,searchDisc4,2020.2.10,Win32,60,,,space,0.314145,2,1,0.832685,,0,367,367,49,1,1a,49,2,43,
,,,,,,,,,,,,,,,,,,,,,,,,,,images/exp2a_trial_26_colour2_distractors9_l.png,l,1,009,001,2021-04-15_17h11.56.371,searchDisc4,2020.2.10,Win32,60,,,space,0.33643,1,1,0.71323,,0,368,368,254,1,2a,26,2,9,
,,,,,,,,,,,,,,,,,,,,,,,,,,images/exp2b_trial_71_colour3_distractors19_l.png,l,1,009,001,2021-04-15_17h11.56.371,searchDisc4,2020.2.10,Win32,60,,,space,0.476195,1,1,0.638565,,0,369,369,413,1,2b,71,3,19,
,,,,,,,,,,,,,,,,,,,,,,,,,,images/exp1a_trial_17_colour3_distractors43_r.png,r,2,009,001,2021-04-15_17h11.56.371,searchDisc4,2020.2.10,Win32,60,,,space,0.293015,2,1,0.791645,,0,370,370,17,1,1a,17,3,43,
,,,,,,,,,,,,,,,,,,,,,,,,,,images/exp1a_trial_31_colour3_distractors4_l.png,l,1,009,001,2021-04-15_17h11.56.371,searchDisc4,2020.2.10,Win32,60,,,space,0.24829,1,1,0.85996,,0,371,371,31,1,1a,31,3,4,
,,,,,,,,,,,,,,,,,,,,,,,,,,images/exp2b_trial_98_colour1_distractors31_l.png,l,1,009,001,2021-04-15_17h11.56.371,searchDisc4,2020.2.10,Win32,60,,,space,0.266965,1,1,0.72198,,0,372,372,440,1,2b,98,1,31,
,,,,,,,,,,,,,,,,,,,,,,,,,,images/exp2b_trial_2_colour1_distractors9_r.png,r,2,009,001,2021-04-15_17h11.56.371,searchDisc4,2020.2.10,Win32,60,,,space,0.246535,2,1,0.743095,,0,373,373,344,1,2b,2,1,9,
,,,,,,,,,,,,,,,,,,,,,,,,,,images/exp2a_trial_6_colour2_distractors1_r.png,r,2,009,001,2021-04-15_17h11.56.371,searchDisc4,2020.2.10,Win32,60,,,space,0.191355,2,1,0.59492,,0,374,374,234,1,2a,6,2,1,
,,,,,,,,,,,,,,,,,,,,,,,,,,images/exp1a_trial_87_colour2_distractors43_r.png,r,2,009,001,2021-04-15_17h11.56.371,searchDisc4,2020.2.10,Win32,60,,,space,0.137395,2,1,0.740545,,0,375,375,87,1,1a,87,2,43,
,,,,,,,,,,,,,,,,,,,,,,,,,,images/exp2a_trial_69_colour3_distractors4_l.png,l,1,009,001,2021-04-15_17h11.56.371,searchDisc4,2020.2.10,Win32,60,,,space,0.20672,1,1,0.680595,,0,376,376,297,1,2a,69,3,4,
,,,,,,,,,,,,,,,,,,,,,,,,,,images/exp2c_trial_47_colour2_distractors19_r.png,r,2,009,001,2021-04-15_17h11.56.371,searchDisc4,2020.2.10,Win32,60,,,space,0.183165,2,1,0.874065,,0,377,377,503,1,2c,47,2,19,
,,,,,,,,,,,,,,,,,,,,,,,,,,images/exp1a_trial_75_colour0_distractors0_l.png,l,1,009,001,2021-04-15_17h11.56.371,searchDisc4,2020.2.10,Win32,60,,,space,0.300345,1,1,0.624655,,0,378,378,75,1,1a,75,0,0,
,,,,,,,,,,,,,,,,,,,,,,,,,,images/exp2a_trial_49_colour2_distractors43_r.png,r,2,009,001,2021-04-15_17h11.56.371,searchDisc4,2020.2.10,Win32,60,,,space,0.30382,2,1,0.768,,0,379,379,277,1,2a,49,2,43,
,,,,,,,,,,,,,,,,,,,,,,,,,,images/exp1a_trial_100_colour2_distractors1_l.png,l,1,009,001,2021-04-15_17h11.56.371,searchDisc4,2020.2.10,Win32,60,,,space,0.2904,1,1,0.58174,,0,380,380,100,1,1a,100,2,1,
,,,,,,,,,,,,,,,,,,,,,,,,,,images/exp2b_trial_97_colour1_distractors19_l.png,l,1,009,001,2021-04-15_17h11.56.371,searchDisc4,2020.2.10,Win32,60,,,space,0.268215,1,1,0.680315,,0,381,381,439,1,2b,97,1,19,
,,,,,,,,,,,,,,,,,,,,,,,,,,images/exp1a_trial_4_colour1_distractors31_r.png,r,2,009,001,2021-04-15_17h11.56.371,searchDisc4,2020.2.10,Win32,60,,,space,0.25238,2,1,0.67397,,0,382,382,4,1,1a,4,1,31,
,,,,,,,,,,,,,,,,,,,,,,,,,,images/exp2b_trial_46_colour2_distractors9_r.png,r,2,009,001,2021-04-15_17h11.56.371,searchDisc4,2020.2.10,Win32,60,,,space,0.239265,2,1,0.9287,,0,383,383,388,1,2b,46,2,9,
,,,,,,,,,,,,,,,,,,,,,,,,,,images/exp2b_trial_79_colour1_distractors19_r.png,r,2,009,001,2021-04-15_17h11.56.371,searchDisc4,2020.2.10,Win32,60,,,space,0.235475,2,1,0.68186,,0,384,384,421,1,2b,79,1,19,
,,,,,,,,,,,,,,,,,,,,,,,,,,images/exp2c_trial_102_colour2_distractors9_l.png,l,1,009,001,2021-04-15_17h11.56.371,searchDisc4,2020.2.10,Win32,60,,,space,0.233805,1,1,0.596065,,0,385,385,558,1,2c,102,2,9,
,,,,,,,,,,,,,,,,,,,,,,,,,,images/exp1a_trial_108_colour3_distractors9_l.png,l,1,009,001,2021-04-15_17h11.56.371,searchDisc4,2020.2.10,Win32,60,,,space,0.223715,1,1,0.872785,,0,386,386,108,1,1a,108,3,9,
,,,,,,,,,,,,,,,,,,,,,,,,,,images/exp1b_trial_105_colour2_distractors43_l.png,l,1,009,001,2021-04-15_17h11.56.371,searchDisc4,2020.2.10,Win32,60,,,space,0.27728,1,1,1.924215,,0,387,387,219,1,1b,105,2,43,
,,,,,,,,,,,,,,,,,,,,,,,,,,images/exp1b_trial_46_colour2_distractors9_r.png,r,2,009,001,2021-04-15_17h11.56.371,searchDisc4,2020.2.10,Win32,60,,,space,0.233975,2,1,0.8321,,0,388,388,160,1,1b,46,2,9,
,,,,,,,,,,,,,,,,,,,,,,,,,,images/exp1b_trial_110_colour3_distractors31_l.png,l,1,009,001,2021-04-15_17h11.56.371,searchDisc4,2020.2.10,Win32,60,,,space,0.27426,1,1,1.111515,,0,389,389,224,1,1b,110,3,31,
,,,,,,,,,,,,,,,,,,,,,,,,,,images/exp1a_trial_64_colour2_distractors9_l.png,l,1,009,001,2021-04-15_17h11.56.371,searchDisc4,2020.2.10,Win32,60,,,space,0.31701,1,1,0.754965,,0,390,390,64,1,1a,64,2,9,
,,,,,,,,,,,,,,,,,,,,,,,,,,images/exp2c_trial_24_colour2_distractors1_l.png,l,1,009,001,2021-04-15_17h11.56.371,searchDisc4,2020.2.10,Win32,60,,,space,0.27442,1,1,0.613555,,0,391,391,480,1,2c,24,2,1,
,,,,,,,,,,,,,,,,,,,,,,,,,,images/exp2c_trial_93_colour3_distractors43_r.png,r,2,009,001,2021-04-15_17h11.56.371,searchDisc4,2020.2.10,Win32,60,,,space,0.27693,2,1,0.679515,,0,392,392,549,1,2c,93,3,43,
,,,,,,,,,,,,,,,,,,,,,,,,,,images/exp1a_trial_6_colour2_distractors1_r.png,r,2,009,001,2021-04-15_17h11.56.371,searchDisc4,2020.2.10,Win32,60,,,space,0.267355,2,1,0.74474,,0,393,393,6,1,1a,6,2,1,
,,,,,,,,,,,,,,,,,,,,,,,,,,images/exp1a_trial_88_colour3_distractors1_r.png,r,2,009,001,2021-04-15_17h11.56.371,searchDisc4,2020.2.10,Win32,60,,,space,0.24814,2,1,0.733045,,0,394,394,88,1,1a,88,3,1,
,,,,,,,,,,,,,,,,,,,,,,,,,,images/exp2c_trial_92_colour3_distractors31_r.png,r,2,009,001,2021-04-15_17h11.56.371,searchDisc4,2020.2.10,Win32,60,,,space,0.271345,2,1,0.706765,,0,395,395,548,1,2c,92,3,31,
,,,,,,,,,,,,,,,,,,,,,,,,,,images/exp2c_trial_58_colour1_distractors9_l.png,l,1,009,001,2021-04-15_17h11.56.371,searchDisc4,2020.2.10,Win32,60,,,space,0.26684,1,1,0.596575,,0,396,396,514,1,2c,58,1,9,
,,,,,,,,,,,,,,,,,,,,,,,,,,images/exp2b_trial_32_colour3_distractors9_l.png,l,1,009,001,2021-04-15_17h11.56.371,searchDisc4,2020.2.10,Win32,60,,,space,0.319475,1,1,0.759595,,0,397,397,374,1,2b,32,3,9,
,,,,,,,,,,,,,,,,,,,,,,,,,,images/exp1a_trial_97_colour1_distractors19_l.png,l,1,009,001,2021-04-15_17h11.56.371,searchDisc4,2020.2.10,Win32,60,,,space,0.26989,1,1,0.69195,,0,398,398,97,1,1a,97,1,19,
,,,,,,,,,,,,,,,,,,,,,,,,,,images/exp2a_trial_75_colour0_distractors0_l.png,l,1,009,001,2021-04-15_17h11.56.371,searchDisc4,2020.2.10,Win32,60,,,space,0.2563,1,1,0.589,,0,399,399,303,1,2a,75,0,0,
,,,,,,,,,,,,,,,,,,,,,,,,,,images/exp2c_trial_52_colour3_distractors9_r.png,r,2,009,001,2021-04-15_17h11.56.371,searchDisc4,2020.2.10,Win32,60,,,space,0.218845,2,1,0.803655,,0,400,400,508,1,2c,52,3,9,
,,,,,,,,,,,,,,,,,,,,,,,,,,images/exp1a_trial_24_colour2_distractors1_l.png,l,1,009,001,2021-04-15_17h11.56.371,searchDisc4,2020.2.10,Win32,60,,,space,0.251005,1,1,0.657655,,0,401,401,24,1,1a,24,2,1,
,,,,,,,,,,,,,,,,,,,,,,,,,,images/exp1a_trial_79_colour1_distractors19_r.png,r,2,009,001,2021-04-15_17h11.56.371,searchDisc4,2020.2.10,Win32,60,,,space,0.241455,2,1,0.633105,,0,402,402,79,1,1a,79,1,19,
,,,,,,,,,,,,,,,,,,,,,,,,,,images/exp1b_trial_63_colour2_distractors4_l.png,l,1,009,001,2021-04-15_17h11.56.371,searchDisc4,2020.2.10,Win32,60,,,space,0.314785,1,1,0.75231,,0,403,403,177,1,1b,63,2,4,
,,,,,,,,,,,,,,,,,,,,,,,,,,images/exp1a_trial_14_colour3_distractors9_r.png,r,2,009,001,2021-04-15_17h11.56.371,searchDisc4,2020.2.10,Win32,60,,,space,0.262735,2,1,0.74251,,0,404,404,14,1,1a,14,3,9,
,,,,,,,,,,,,,,,,,,,,,,,,,,images/exp2b_trial_85_colour2_distractors19_r.png,r,2,009,001,2021-04-15_17h11.56.371,searchDisc4,2020.2.10,Win32,60,,,space,0.218785,2,1,0.63773,,0,405,405,427,1,2b,85,2,19,
,,,,,,,,,,,,,,,,,,,,,,,,,,images/exp1b_trial_91_colour3_distractors19_r.png,r,2,009,001,2021-04-15_17h11.56.371,searchDisc4,2020.2.10,Win32,60,,,space,0.25383,2,1,3.889235,,0,406,406,205,1,1b,91,3,19,
,,,,,,,,,,,,,,,,,,,,,,,,,,images/exp2c_trial_65_colour2_distractors19_l.png,l,1,009,001,2021-04-15_17h11.56.371,searchDisc4,2020.2.10,Win32,60,,,space,0.213305,1,1,0.7584,,0,407,407,521,1,2c,65,2,19,
,,,,,,,,,,,,,,,,,,,,,,,,,,images/exp2a_trial_107_colour3_distractors4_l.png,l,1,009,001,2021-04-15_17h11.56.371,searchDisc4,2020.2.10,Win32,60,,,space,0.18363,1,1,0.688145,,0,408,408,335,1,2a,107,3,4,
,,,,,,,,,,,,,,,,,,,,,,,,,,images/exp2a_trial_81_colour1_distractors43_r.png,r,2,009,001,2021-04-15_17h11.56.371,searchDisc4,2020.2.10,Win32,60,,,space,0.27083,2,1,1.421425,,0,409,409,309,1,2a,81,1,43,
,,,,,,,,,,,,,,,,,,,,,,,,,,images/exp1a_trial_37_colour0_distractors0_l.png,l,1,009,001,2021-04-15_17h11.56.371,searchDisc4,2020.2.10,Win32,60,,,space,0.211735,1,1,0.754395,,0,410,410,37,1,1a,37,0,0,
,,,,,,,,,,,,,,,,,,,,,,,,,,images/exp1a_trial_51_colour3_distractors4_r.png,r,2,009,001,2021-04-15_17h11.56.371,searchDisc4,2020.2.10,Win32,60,,,space,0.27153,2,1,0.644145,,0,411,411,51,1,1a,51,3,4,
,,,,,,,,,,,,,,,,,,,,,,,,,,images/exp1a_trial_38_colour1_distractors1_r.png,r,2,009,001,2021-04-15_17h11.56.371,searchDisc4,2020.2.10,Win32,60,,,space,0.28385,2,1,0.819225,,0,412,412,38,1,1a,38,1,1,
,,,,,,,,,,,,,,,,,,,,,,,,,,images/exp1b_trial_12_colour3_distractors1_r.png,r,2,009,001,2021-04-15_17h11.56.371,searchDisc4,2020.2.10,Win32,60,,,space,0.25797,2,1,1.481225,,0,413,413,126,1,1b,12,3,1,
,,,,,,,,,,,,,,,,,,,,,,,,,,images/exp1a_trial_57_colour1_distractors4_l.png,l,1,009,001,2021-04-15_17h11.56.371,searchDisc4,2020.2.10,Win32,60,,,space,0.29791,1,1,0.786725,,0,414,414,57,1,1a,57,1,4,
,,,,,,,,,,,,,,,,,,,,,,,,,,images/exp2a_trial_53_colour3_distractors19_r.png,r,2,009,001,2021-04-15_17h11.56.371,searchDisc4,2020.2.10,Win32,60,,,space,0.308525,2,1,0.8733,,0,415,415,281,1,2a,53,3,19,
,,,,,,,,,,,,,,,,,,,,,,,,,,images/exp1b_trial_56_colour1_distractors1_l.png,l,1,009,001,2021-04-15_17h11.56.371,searchDisc4,2020.2.10,Win32,60,,,space,0.265705,1,1,1.03916,,0,416,416,170,1,1b,56,1,1,
,,,,,,,,,,,,,,,,,,,,,,,,,,images/exp2a_trial_78_colour1_distractors9_r.png,r,2,009,001,2021-04-15_17h11.56.371,searchDisc4,2020.2.10,Win32,60,,,space,0.323505,2,1,1.7721,,0,417,417,306,1,2a,78,1,9,
,,,,,,,,,,,,,,,,,,,,,,,,,,images/exp1a_trial_55_colour3_distractors43_r.png,r,2,009,001,2021-04-15_17h11.56.371,searchDisc4,2020.2.10,Win32,60,,,space,0.318785,2,1,0.673675,,0,418,418,55,1,1a,55,3,43,
,,,,,,,,,,,,,,,,,,,,,,,,,,images/exp2a_trial_48_colour2_distractors31_r.png,r,2,009,001,2021-04-15_17h11.56.371,searchDisc4,2020.2.10,Win32,60,,,space,0.40002,2,1,0.6089,space,0,419,419,276,1,2a,48,2,31,5.74664
,,,,,,,,,,,,,,,,,,,,,,,,,,images/exp2b_trial_27_colour2_distractors19_l.png,l,1,009,001,2021-04-15_17h11.56.371,searchDisc4,2020.2.10,Win32,60,,,space,0.586645,1,1,0.946415,,0,420,420,369,1,2b,27,2,19,
,,,,,,,,,,,,,,,,,,,,,,,,,,images/exp2c_trial_64_colour2_distractors9_l.png,l,1,009,001,2021-04-15_17h11.56.371,searchDisc4,2020.2.10,Win32,60,,,space,0.288815,1,1,0.70768,,0,421,421,520,1,2c,64,2,9,
,,,,,,,,,,,,,,,,,,,,,,,,,,images/exp1a_trial_92_colour3_distractors31_r.png,r,2,009,001,2021-04-15_17h11.56.371,searchDisc4,2020.2.10,Win32,60,,,space,0.217005,2,1,0.846085,,0,422,422,92,1,1a,92,3,31,
,,,,,,,,,,,,,,,,,,,,,,,,,,images/exp2c_trial_81_colour1_distractors43_r.png,r,2,009,001,2021-04-15_17h11.56.371,searchDisc4,2020.2.10,Win32,60,,,space,0.233645,2,1,0.589215,,0,423,423,537,1,2c,81,1,43,
,,,,,,,,,,,,,,,,,,,,,,,,,,images/exp1b_trial_106_colour3_distractors1_l.png,l,1,009,001,2021-04-15_17h11.56.371,searchDisc4,2020.2.10,Win32,60,,,space,0.157945,1,1,0.967525,,0,424,424,220,1,1b,106,3,1,
,,,,,,,,,,,,,,,,,,,,,,,,,,images/exp1a_trial_48_colour2_distractors31_r.png,r,2,009,001,2021-04-15_17h11.56.371,searchDisc4,2020.2.10,Win32,60,,,space,0.183405,2,1,0.701135,,0,425,425,48,1,1a,48,2,31,
,,,,,,,,,,,,,,,,,,,,,,,,,,images/exp2b_trial_51_colour3_distractors4_r.png,r,2,009,001,2021-04-15_17h11.56.371,searchDisc4,2020.2.10,Win32,60,,,space,0.200575,2,1,0.942635,,0,426,426,393,1,2b,51,3,4,
,,,,,,,,,,,,,,,,,,,,,,,,,,images/exp2a_trial_74_colour0_distractors0_r.png,r,2,009,001,2021-04-15_17h11.56.371,searchDisc4,2020.2.10,Win32,60,,,space,0.19613,2,1,0.691425,,0,427,427,302,1,2a,74,0,0,
,,,,,,,,,,,,,,,,,,,,,,,,,,images/exp2c_trial_100_colour2_distractors1_l.png,l,1,009,001,2021-04-15_17h11.56.371,searchDisc4,2020.2.10,Win32,60,,,space,0.167405,1,1,0.677035,,0,428,428,556,1,2c,100,2,1,
,,,,,,,,,,,,,,,,,,,,,,,,,,images/exp1b_trial_62_colour2_distractors1_l.png,l,1,009,001,2021-04-15_17h11.56.371,searchDisc4,2020.2.10,Win32,60,,,space,0.233765,1,1,0.940625,,0,429,429,176,1,1b,62,2,1,
,,,,,,,,,,,,,,,,,,,,,,,,,,images/exp2c_trial_17_colour3_distractors43_r.png,r,2,009,001,2021-04-15_17h11.56.371,searchDisc4,2020.2.10,Win32,60,,,space,0.481295,2,1,0.73022,,0,430,430,473,1,2c,17,3,43,
,,,,,,,,,,,,,,,,,,,,,,,,,,images/exp2c_trial_6_colour2_distractors1_r.png,r,2,009,001,2021-04-15_17h11.56.371,searchDisc4,2020.2.10,Win32,60,,,space,0.300615,2,1,0.707555,,0,431,431,462,1,2c,6,2,1,
,,,,,,,,,,,,,,,,,,,,,,,,,,images/exp2c_trial_25_colour2_distractors4_l.png,l,1,009,001,2021-04-15_17h11.56.371,searchDisc4,2020.2.10,Win32,60,,,space,0.21457,1,1,0.75514,,0,432,432,481,1,2c,25,2,4,
,,,,,,,,,,,,,,,,,,,,,,,,,,images/exp2c_trial_101_colour2_distractors4_l.png,l,1,009,001,2021-04-15_17h11.56.371,searchDisc4,2020.2.10,Win32,60,,,space,0.267105,1,1,0.76444,,0,433,433,557,1,2c,101,2,4,
,,,,,,,,,,,,,,,,,,,,,,,,,,images/exp2b_trial_92_colour3_distractors31_r.png,r,2,009,001,2021-04-15_17h11.56.371,searchDisc4,2020.2.10,Win32,60,,,space,0.27205,2,1,0.65234,,0,434,434,434,1,2b,92,3,31,
,,,,,,,,,,,,,,,,,,,,,,,,,,images/exp1b_trial_30_colour3_distractors1_l.png,l,1,009,001,2021-04-15_17h11.56.371,searchDisc4,2020.2.10,Win32,60,,,space,0.25753,1,1,0.80566,,0,435,435,144,1,1b,30,3,1,
,,,,,,,,,,,,,,,,,,,,,,,,,,images/exp2b_trial_14_colour3_distractors9_r.png,r,2,009,001,2021-04-15_17h11.56.371,searchDisc4,2020.2.10,Win32,60,,,space,0.22061,2,1,0.54934,,0,436,436,356,1,2b,14,3,9,
,,,,,,,,,,,,,,,,,,,,,,,,,,images/exp2c_trial_44_colour2_distractors1_r.png,r,2,009,001,2021-04-15_17h11.56.371,searchDisc4,2020.2.10,Win32,60,,,space,0.403145,2,1,0.77769,,0,437,437,500,1,2c,44,2,1,
,,,,,,,,,,,,,,,,,,,,,,,,,,images/exp1a_trial_53_colour3_distractors19_r.png,r,2,009,001,2021-04-15_17h11.56.371,searchDisc4,2020.2.10,Win32,60,,,space,0.276535,2,1,0.54612,,0,438,438,53,1,1a,53,3,19,
,,,,,,,,,,,,,,,,,,,,,,,,,,images/exp2a_trial_34_colour3_distractors31_l.png,l,1,009,001,2021-04-15_17h11.56.371,searchDisc4,2020.2.10,Win32,60,,,space,0.30198,1,1,0.643345,,0,439,439,262,1,2a,34,3,31,
,,,,,,,,,,,,,,,,,,,,,,,,,,images/exp2b_trial_83_colour2_distractors4_r.png,r,2,009,001,2021-04-15_17h11.56.371,searchDisc4,2020.2.10,Win32,60,,,space,0.464145,2,1,0.775355,,0,440,440,425,1,2b,83,2,4,
,,,,,,,,,,,,,,,,,,,,,,,,,,images/exp2b_trial_37_colour0_distractors0_l.png,l,1,009,001,2021-04-15_17h11.56.371,searchDisc4,2020.2.10,Win32,60,,,space,0.26549,1,1,0.585415,,0,441,441,379,1,2b,37,0,0,
,,,,,,,,,,,,,,,,,,,,,,,,,,images/exp1a_trial_82_colour2_distractors1_r.png,r,2,009,001,2021-04-15_17h11.56.371,searchDisc4,2020.2.10,Win32,60,,,space,0.23582,2,1,0.537465,,0,442,442,82,1,1a,82,2,1,
,,,,,,,,,,,,,,,,,,,,,,,,,,images/exp2c_trial_68_colour3_distractors1_l.png,l,1,009,001,2021-04-15_17h11.56.371,searchDisc4,2020.2.10,Win32,60,,,space,0.25099,1,1,0.549785,,0,443,443,524,1,2c,68,3,1,
,,,,,,,,,,,,,,,,,,,,,,,,,,images/exp2a_trial_19_colour1_distractors4_l.png,l,1,009,001,2021-04-15_17h11.56.371,searchDisc4,2020.2.10,Win32,60,,,space,0.331915,1,1,0.523495,,0,444,444,247,1,2a,19,1,4,
,,,,,,,,,,,,,,,,,,,,,,,,,,images/exp1a_trial_20_colour1_distractors9_l.png,l,1,009,001,2021-04-15_17h11.56.371,searchDisc4,2020.2.10,Win32,60,,,space,0.275095,1,1,0.81561,,0,445,445,20,1,1a,20,1,9,
,,,,,,,,,,,,,,,,,,,,,,,,,,images/exp2b_trial_33_colour3_distractors19_l.png,l,1,009,001,2021-04-15_17h11.56.371,searchDisc4,2020.2.10,Win32,60,,,space,0.28375,1,1,0.62931,,0,446,446,375,1,2b,33,3,19,
,,,,,,,,,,,,,,,,,,,,,,,,,,images/exp1b_trial_59_colour1_distractors19_l.png,l,1,009,001,2021-04-15_17h11.56.371,searchDisc4,2020.2.10,Win32,60,,,space,0.253445,1,1,0.665865,,0,447,447,173,1,1b,59,1,19,
,,,,,,,,,,,,,,,,,,,,,,,,,,images/exp1a_trial_74_colour0_distractors0_r.png,r,2,009,001,2021-04-15_17h11.56.371,searchDisc4,2020.2.10,Win32,60,,,space,0.25665,2,1,0.63041,,0,448,448,74,1,1a,74,0,0,
,,,,,,,,,,,,,,,,,,,,,,,,,,images/exp2c_trial_34_colour3_distractors31_l.png,l,1,009,001,2021-04-15_17h11.56.371,searchDisc4,2020.2.10,Win32,60,,,space,0.2492,1,1,0.606895,,0,449,449,490,1,2c,34,3,31,
,,,,,,,,,,,,,,,,,,,,,,,,,,images/exp1b_trial_104_colour2_distractors31_l.png,l,1,009,001,2021-04-15_17h11.56.371,searchDisc4,2020.2.10,Win32,60,,,space,0.25,1,1,1.12371,,0,450,450,218,1,1b,104,2,31,
,,,,,,,,,,,,,,,,,,,,,,,,,,images/exp2b_trial_106_colour3_distractors1_l.png,l,1,009,001,2021-04-15_17h11.56.371,searchDisc4,2020.2.10,Win32,60,,,space,0.33633,1,1,0.931025,,0,451,451,448,1,2b,106,3,1,
,,,,,,,,,,,,,,,,,,,,,,,,,,images/exp2b_trial_30_colour3_distractors1_l.png,l,1,009,001,2021-04-15_17h11.56.371,searchDisc4,2020.2.10,Win32,60,,,space,0.243325,1,1,1.14202,,0,452,452,372,1,2b,30,3,1,
,,,,,,,,,,,,,,,,,,,,,,,,,,images/exp1a_trial_66_colour2_distractors31_l.png,l,1,009,001,2021-04-15_17h11.56.371,searchDisc4,2020.2.10,Win32,60,,,space,0.317185,1,1,0.60209,,0,453,453,66,1,1a,66,2,31,
,,,,,,,,,,,,,,,,,,,,,,,,,,images/exp1a_trial_110_colour3_distractors31_l.png,l,1,009,001,2021-04-15_17h11.56.371,searchDisc4,2020.2.10,Win32,60,,,space,0.257235,1,1,0.67664,,0,454,454,110,1,1a,110,3,31,
,,,,,,,,,,,,,,,,,,,,,,,,,,images/exp1b_trial_112_colour0_distractors0_r.png,r,2,009,001,2021-04-15_17h11.56.371,searchDisc4,2020.2.10,Win32,60,,,space,0.234025,2,1,0.61219,,0,455,455,226,1,1b,112,0,0,
,,,,,,,,,,,,,,,,,,,,,,,,,,images/exp1b_trial_40_colour1_distractors9_r.png,r,2,009,001,2021-04-15_17h11.56.371,searchDisc4,2020.2.10,Win32,60,,,space,0.253875,2,1,0.81784,,0,456,456,154,1,1b,40,1,9,
,,,,,,,,,,,,,,,,,,,,,,,,,,images/exp2c_trial_4_colour1_distractors31_r.png,r,2,009,001,2021-04-15_17h11.56.371,searchDisc4,2020.2.10,Win32,60,,,space,0.29793,2,1,0.59145,,0,457,457,460,1,2c,4,1,31,
,,,,,,,,,,,,,,,,,,,,,,,,,,images/exp2b_trial_5_colour1_distractors43_r.png,r,2,009,001,2021-04-15_17h11.56.371,searchDisc4,2020.2.10,Win32,60,,,space,0.26713,2,1,0.68153,,0,458,458,347,1,2b,5,1,43,
,,,,,,,,,,,,,,,,,,,,,,,,,,images/exp1b_trial_66_colour2_distractors31_l.png,l,1,009,001,2021-04-15_17h11.56.371,searchDisc4,2020.2.10,Win32,60,,,space,0.257,1,1,1.768345,,0,459,459,180,1,1b,66,2,31,
,,,,,,,,,,,,,,,,,,,,,,,,,,images/exp2c_trial_26_colour2_distractors9_l.png,l,1,009,001,2021-04-15_17h11.56.371,searchDisc4,2020.2.10,Win32,60,,,space,0.23051,1,1,0.642585,,0,460,460,482,1,2c,26,2,9,
,,,,,,,,,,,,,,,,,,,,,,,,,,images/exp2c_trial_27_colour2_distractors19_l.png,l,1,009,001,2021-04-15_17h11.56.371,searchDisc4,2020.2.10,Win32,60,,,space,0.203315,1,1,0.727545,,0,461,461,483,1,2c,27,2,19,
,,,,,,,,,,,,,,,,,,,,,,,,,,images/exp1b_trial_38_colour1_distractors1_r.png,r,2,009,001,2021-04-15_17h11.56.371,searchDisc4,2020.2.10,Win32,60,,,space,0.200645,1,0,0.51875,,0,462,462,152,1,1b,38,1,1,
,,,,,,,,,,,,,,,,,,,,,,,,,,images/exp2b_trial_80_colour1_distractors31_r.png,r,2,009,001,2021-04-15_17h11.56.371,searchDisc4,2020.2.10,Win32,60,,,space,1.14744,2,1,0.83978,,0,463,463,422,1,2b,80,1,31,
,,,,,,,,,,,,,,,,,,,,,,,,,,images/exp1a_trial_95_colour1_distractors4_l.png,l,1,009,001,2021-04-15_17h11.56.371,searchDisc4,2020.2.10,Win32,60,,,space,0.233845,1,1,0.793825,,0,464,464,95,1,1a,95,1,4,
,,,,,,,,,,,,,,,,,,,,,,,,,,images/exp2a_trial_100_colour2_distractors1_l.png,l,1,009,001,2021-04-15_17h11.56.371,searchDisc4,2020.2.10,Win32,60,,,space,0.473675,1,1,0.53613,,0,465,465,328,1,2a,100,2,1,
,,,,,,,,,,,,,,,,,,,,,,,,,,images/exp1a_trial_9_colour2_distractors19_r.png,r,2,009,001,2021-04-15_17h11.56.371,searchDisc4,2020.2.10,Win32,60,,,space,0.38439,2,1,0.645035,,0,466,466,9,1,1a,9,2,19,
,,,,,,,,,,,,,,,,,,,,,,,,,,images/exp1b_trial_81_colour1_distractors43_r.png,r,2,009,001,2021-04-15_17h11.56.371,searchDisc4,2020.2.10,Win32,60,,,space,0.32248,2,1,1.11884,,0,467,467,195,1,1b,81,1,43,
,,,,,,,,,,,,,,,,,,,,,,,,,,images/exp2a_trial_60_colour1_distractors31_l.png,l,1,009,001,2021-04-15_17h11.56.371,searchDisc4,2020.2.10,Win32,60,,,space,0.28986,1,1,0.929745,,0,468,468,288,1,2a,60,1,31,
,,,,,,,,,,,,,,,,,,,,,,,,,,images/exp2a_trial_84_colour2_distractors9_r.png,r,2,009,001,2021-04-15_17h11.56.371,searchDisc4,2020.2.10,Win32,60,,,space,0.35021,2,1,0.633295,,0,469,469,312,1,2a,84,2,9,
,,,,,,,,,,,,,,,,,,,,,,,,,,images/exp2a_trial_10_colour2_distractors31_r.png,r,2,009,001,2021-04-15_17h11.56.371,searchDisc4,2020.2.10,Win32,60,,,space,0.281195,2,1,0.654045,,0,470,470,238,1,2a,10,2,31,
,,,,,,,,,,,,,,,,,,,,,,,,,,images/exp1b_trial_74_colour0_distractors0_r.png,r,2,009,001,2021-04-15_17h11.56.371,searchDisc4,2020.2.10,Win32,60,,,space,0.283785,2,1,0.667525,,0,471,471,188,1,1b,74,0,0,
,,,,,,,,,,,,,,,,,,,,,,,,,,images/exp1b_trial_39_colour1_distractors4_r.png,r,2,009,001,2021-04-15_17h11.56.371,searchDisc4,2020.2.10,Win32,60,,,space,0.2715,2,1,0.777645,,0,472,472,153,1,1b,39,1,4,
,,,,,,,,,,,,,,,,,,,,,,,,,,images/exp2a_trial_2_colour1_distractors9_r.png,r,2,009,001,2021-04-15_17h11.56.371,searchDisc4,2020.2.10,Win32,60,,,space,0.262325,2,1,0.65113,,0,473,473,230,1,2a,2,1,9,
,,,,,,,,,,,,,,,,,,,,,,,,,,images/exp2a_trial_42_colour1_distractors31_r.png,r,2,009,001,2021-04-15_17h11.56.371,searchDisc4,2020.2.10,Win32,60,,,space,0.27578,2,1,1.25303,,0,474,474,270,1,2a,42,1,31,
,,,,,,,,,,,,,,,,,,,,,,,,,,images/exp1a_trial_63_colour2_distractors4_l.png,l,1,009,001,2021-04-15_17h11.56.371,searchDisc4,2020.2.10,Win32,60,,,space,0.316865,1,1,0.859955,,0,475,475,63,1,1a,63,2,4,
,,,,,,,,,,,,,,,,,,,,,,,,,,images/exp2a_trial_27_colour2_distractors19_l.png,l,1,009,001,2021-04-15_17h11.56.371,searchDisc4,2020.2.10,Win32,60,,,space,0.34797,1,1,0.76359,,0,476,476,255,1,2a,27,2,19,
