X Scale,Y Scale,key_resp_10.keys,key_resp_10.rt,key_resp_11.keys,key_resp_11.rt,key_resp_12.keys,key_resp_12.rt,key_resp_13.keys,key_resp_13.rt,key_resp_5.keys,key_resp_5.rt,key_resp_8.keys,key_resp_8.rt,key_resp_6.keys,key_resp_6.rt,key_resp_7.keys,key_resp_7.rt,key_resp_4.keys,key_resp_4.corr,trials_2.thisRepN,trials_2.thisTrialN,trials_2.thisN,trials_2.thisIndex,trials_2.ran,ImageFile,targ_side,correctAnswer,participant,session,date,expName,psychopyVersion,OS,frameRate,key_resp_4.rt,key_resp_3.keys,key_resp_3.rt,key_resp_9.keys,key_resp_9.rt,key_resp_2.keys,key_resp_2.corr,key_resp_2.rt,key_resp.keys,trials.thisRepN,trials.thisTrialN,trials.thisN,trials.thisIndex,trials.ran,exp,trial,colour,distNo,key_resp.rt
44.3,41.7,space,17.115605,space,36.281985,space,14.43438,space,3.615565,space,17.850245,space,20.8521,space,13.09942,space,11.44866,,0,0,0,0,11,1,Practice arrays/exp1a_trial_21_colour1_distractors19_l.png,l,1,010,001,2021-04-16_17h46.13.046,searchDisc4,2020.2.10,Win32,60,,,,,,,,,,,,,,,,,,,
,,,,,,,,,,,,,,,,space,9.986865,,0,0,1,1,6,1,Practice arrays/exp1a_trial_12_colour3_distractors1_r.png,r,2,010,001,2021-04-16_17h46.13.046,searchDisc4,2020.2.10,Win32,60,,,,,,,,,,,,,,,,,,,
,,,,,,,,,,,,,,,,space,0.61733,1,0,0,2,2,1,1,Practice arrays/exp1a_trial_3_colour1_distractors19_r.png,r,2,010,001,2021-04-16_17h46.13.046,searchDisc4,2020.2.10,Win32,60,2.49787,,,,,,,,,,,,,,,,,,
,,,,,,,,,,,,,,,,space,1.21721,,0,0,3,3,14,1,Practice arrays/exp1a_trial_29_colour2_distractors43_l.png,l,1,010,001,2021-04-16_17h46.13.046,searchDisc4,2020.2.10,Win32,60,,,,,,,,,,,,,,,,,,,
,,,,,,,,,,,,,,,,space,0.73529,2,1,0,4,4,4,1,Practice arrays/exp1a_trial_8_colour2_distractors9_r.png,r,2,010,001,2021-04-16_17h46.13.046,searchDisc4,2020.2.10,Win32,60,1.58089,,,,,,,,,,,,,,,,,,
,,,,,,,,,,,,,,,,space,2.087915,1,1,0,5,5,15,1,Practice arrays/exp1a_trial_32_colour3_distractors9_l.png,l,1,010,001,2021-04-16_17h46.13.046,searchDisc4,2020.2.10,Win32,60,0.88236,,,,,,,,,,,,,,,,,,
,,,,,,,,,,,,,,,,space,0.773645,2,1,0,6,6,2,1,Practice arrays/exp1a_trial_5_colour1_distractors43_r.png,r,2,010,001,2021-04-16_17h46.13.046,searchDisc4,2020.2.10,Win32,60,0.697575,,,,,,,,,,,,,,,,,,
,,,,,,,,,,,,,,,,space,0.5202,1,0,0,7,7,7,1,Practice arrays/exp1a_trial_13_colour3_distractors4_r.png,r,2,010,001,2021-04-16_17h46.13.046,searchDisc4,2020.2.10,Win32,60,0.581615,,,,,,,,,,,,,,,,,,
,,,,,,,,,,,,,,,,space,0.120945,2,0,0,8,8,12,1,Practice arrays/exp1a_trial_25_colour2_distractors4_l.png,l,1,010,001,2021-04-16_17h46.13.046,searchDisc4,2020.2.10,Win32,60,1.481255,,,,,,,,,,,,,,,,,,
,,,,,,,,,,,,,,,,space,0.433845,1,1,0,9,9,16,1,Practice arrays/exp1a_trial_33_colour3_distractors19_l.png,l,1,010,001,2021-04-16_17h46.13.046,searchDisc4,2020.2.10,Win32,60,0.599055,,,,,,,,,,,,,,,,,,
,,,,,,,,,,,,,,,,space,1.01749,1,0,0,10,10,0,1,Practice arrays/exp1a_trial_0_colour1_distractors1_r.png,r,2,010,001,2021-04-16_17h46.13.046,searchDisc4,2020.2.10,Win32,60,1.58637,,,,,,,,,,,,,,,,,,
,,,,,,,,,,,,,,,,space,0.021915,2,1,0,11,11,3,1,Practice arrays/exp1a_trial_7_colour2_distractors4_r.png,r,2,010,001,2021-04-16_17h46.13.046,searchDisc4,2020.2.10,Win32,60,1.984425,,,,,,,,,,,,,,,,,,
,,,,,,,,,,,,,,,,space,0.02032,1,0,0,12,12,8,1,Practice arrays/exp1a_trial_16_colour3_distractors31_r.png,r,2,010,001,2021-04-16_17h46.13.046,searchDisc4,2020.2.10,Win32,60,0.867355,,,,,,,,,,,,,,,,,,
,,,,,,,,,,,,,,,,space,0.63255,2,1,0,13,13,18,1,Practice arrays/exp1a_trial_36_colour0_distractors0_r.png,r,2,010,001,2021-04-16_17h46.13.046,searchDisc4,2020.2.10,Win32,60,2.52788,,,,,,,,,,,,,,,,,,
,,,,,,,,,,,,,,,,space,0.65039,1,1,0,14,14,17,1,Practice arrays/exp1a_trial_35_colour3_distractors43_l.png,l,1,010,001,2021-04-16_17h46.13.046,searchDisc4,2020.2.10,Win32,60,2.964905,,,,,,,,,,,,,,,,,,
,,,,,,,,,,,,,,,,space,0.61787,2,0,0,15,15,10,1,Practice arrays/exp1a_trial_20_colour1_distractors9_l.png,l,1,010,001,2021-04-16_17h46.13.046,searchDisc4,2020.2.10,Win32,60,0.897055,,,,,,,,,,,,,,,,,,
,,,,,,,,,,,,,,,,space,0.454275,1,0,0,16,16,5,1,Practice arrays/exp1a_trial_10_colour2_distractors31_r.png,r,2,010,001,2021-04-16_17h46.13.046,searchDisc4,2020.2.10,Win32,60,1.04805,,,,,,,,,,,,,,,,,,
,,,,,,,,,,,,,,,,space,0.22232,2,0,0,17,17,13,1,Practice arrays/exp1a_trial_28_colour2_distractors31_l.png,l,1,010,001,2021-04-16_17h46.13.046,searchDisc4,2020.2.10,Win32,60,0.764975,,,,,,,,,,,,,,,,,,
,,,,,,,,,,,,,,,,space,0.43714,1,1,0,18,18,19,1,Practice arrays/exp1a_trial_37_colour0_distractors0_l.png,l,1,010,001,2021-04-16_17h46.13.046,searchDisc4,2020.2.10,Win32,60,1.11435,,,,,,,,,,,,,,,,,,
,,,,,,,,,,,,,,,,space,0.787295,2,0,0,19,19,9,1,Practice arrays/exp1a_trial_19_colour1_distractors4_l.png,l,1,010,001,2021-04-16_17h46.13.046,searchDisc4,2020.2.10,Win32,60,2.653795,,,,,,,,,,,,,,,,,,
,,,,,,,,,,,,,,,,,,,,,,,,,images/exp1a_trial_11_colour2_distractors43_r.png,r,2,010,001,2021-04-16_17h46.13.046,searchDisc4,2020.2.10,Win32,60,,space,12.45088,space,0.799625,1,0,1.8466,,0,0,0,11,1,1a,11,2,43,
,,,,,,,,,,,,,,,,,,,,,,,,,images/exp2c_trial_46_colour2_distractors9_r.png,r,2,010,001,2021-04-16_17h46.13.046,searchDisc4,2020.2.10,Win32,60,,,,space,1.68993,1,0,2.88708,,0,1,1,502,1,2c,46,2,9,
,,,,,,,,,,,,,,,,,,,,,,,,,images/exp2b_trial_49_colour2_distractors43_r.png,r,2,010,001,2021-04-16_17h46.13.046,searchDisc4,2020.2.10,Win32,60,,,,space,1.03885,2,1,4.47809,,0,2,2,391,1,2b,49,2,43,
,,,,,,,,,,,,,,,,,,,,,,,,,images/exp1a_trial_19_colour1_distractors4_l.png,l,1,010,001,2021-04-16_17h46.13.046,searchDisc4,2020.2.10,Win32,60,,,,space,0.573345,1,1,3.431135,,0,3,3,19,1,1a,19,1,4,
,,,,,,,,,,,,,,,,,,,,,,,,,images/exp1a_trial_87_colour2_distractors43_r.png,r,2,010,001,2021-04-16_17h46.13.046,searchDisc4,2020.2.10,Win32,60,,,,space,0.535455,1,0,1.28119,,0,4,4,87,1,1a,87,2,43,
,,,,,,,,,,,,,,,,,,,,,,,,,images/exp2c_trial_103_colour2_distractors19_l.png,l,1,010,001,2021-04-16_17h46.13.046,searchDisc4,2020.2.10,Win32,60,,,,space,0.51785,2,0,1.133395,,0,5,5,559,1,2c,103,2,19,
,,,,,,,,,,,,,,,,,,,,,,,,,images/exp1a_trial_82_colour2_distractors1_r.png,r,2,010,001,2021-04-16_17h46.13.046,searchDisc4,2020.2.10,Win32,60,,,,space,0.5366,1,0,1.59905,,0,6,6,82,1,1a,82,2,1,
,,,,,,,,,,,,,,,,,,,,,,,,,images/exp1a_trial_32_colour3_distractors9_l.png,l,1,010,001,2021-04-16_17h46.13.046,searchDisc4,2020.2.10,Win32,60,,,,space,0.531105,2,0,1.19796,,0,7,7,32,1,1a,32,3,9,
,,,,,,,,,,,,,,,,,,,,,,,,,images/exp2a_trial_51_colour3_distractors4_r.png,r,2,010,001,2021-04-16_17h46.13.046,searchDisc4,2020.2.10,Win32,60,,,,space,0.600605,2,1,1.0675,,0,8,8,279,1,2a,51,3,4,
,,,,,,,,,,,,,,,,,,,,,,,,,images/exp2c_trial_8_colour2_distractors9_r.png,r,2,010,001,2021-04-16_17h46.13.046,searchDisc4,2020.2.10,Win32,60,,,,space,0.61577,2,1,0.998155,,0,9,9,464,1,2c,8,2,9,
,,,,,,,,,,,,,,,,,,,,,,,,,images/exp2a_trial_92_colour3_distractors31_r.png,r,2,010,001,2021-04-16_17h46.13.046,searchDisc4,2020.2.10,Win32,60,,,,space,0.572485,1,0,2.45887,,0,10,10,320,1,2a,92,3,31,
,,,,,,,,,,,,,,,,,,,,,,,,,images/exp2b_trial_76_colour1_distractors1_r.png,r,2,010,001,2021-04-16_17h46.13.046,searchDisc4,2020.2.10,Win32,60,,,,space,0.479855,2,1,4.386425,,0,11,11,418,1,2b,76,1,1,
,,,,,,,,,,,,,,,,,,,,,,,,,images/exp1b_trial_74_colour0_distractors0_r.png,r,2,010,001,2021-04-16_17h46.13.046,searchDisc4,2020.2.10,Win32,60,,,,space,0.46498,2,1,1.16523,,0,12,12,188,1,1b,74,0,0,
,,,,,,,,,,,,,,,,,,,,,,,,,images/exp1b_trial_90_colour3_distractors9_r.png,r,2,010,001,2021-04-16_17h46.13.046,searchDisc4,2020.2.10,Win32,60,,,,space,0.390405,2,1,4.468,,0,13,13,204,1,1b,90,3,9,
,,,,,,,,,,,,,,,,,,,,,,,,,images/exp1a_trial_73_colour3_distractors43_l.png,l,1,010,001,2021-04-16_17h46.13.046,searchDisc4,2020.2.10,Win32,60,,,,space,0.371,,0,,,0,14,14,73,1,1a,73,3,43,
,,,,,,,,,,,,,,,,,,,,,,,,,images/exp1a_trial_69_colour3_distractors4_l.png,l,1,010,001,2021-04-16_17h46.13.046,searchDisc4,2020.2.10,Win32,60,,,,space,1.000025,1,1,1.314505,,0,15,15,69,1,1a,69,3,4,
,,,,,,,,,,,,,,,,,,,,,,,,,images/exp1b_trial_105_colour2_distractors43_l.png,l,1,010,001,2021-04-16_17h46.13.046,searchDisc4,2020.2.10,Win32,60,,,,space,0.40178,2,0,1.938485,,0,16,16,219,1,1b,105,2,43,
,,,,,,,,,,,,,,,,,,,,,,,,,images/exp2a_trial_82_colour2_distractors1_r.png,r,2,010,001,2021-04-16_17h46.13.046,searchDisc4,2020.2.10,Win32,60,,,,space,0.600435,1,0,1.28198,,0,17,17,310,1,2a,82,2,1,
,,,,,,,,,,,,,,,,,,,,,,,,,images/exp2b_trial_75_colour0_distractors0_l.png,l,1,010,001,2021-04-16_17h46.13.046,searchDisc4,2020.2.10,Win32,60,,,,space,0.553535,1,1,0.887875,,0,18,18,417,1,2b,75,0,0,
,,,,,,,,,,,,,,,,,,,,,,,,,images/exp2a_trial_15_colour3_distractors19_r.png,r,2,010,001,2021-04-16_17h46.13.046,searchDisc4,2020.2.10,Win32,60,,,,space,0.418155,1,0,1.55112,,0,19,19,243,1,2a,15,3,19,
,,,,,,,,,,,,,,,,,,,,,,,,,images/exp2b_trial_8_colour2_distractors9_r.png,r,2,010,001,2021-04-16_17h46.13.046,searchDisc4,2020.2.10,Win32,60,,,,space,0.3509,2,1,1.881295,,0,20,20,350,1,2b,8,2,9,
,,,,,,,,,,,,,,,,,,,,,,,,,images/exp2c_trial_17_colour3_distractors43_r.png,r,2,010,001,2021-04-16_17h46.13.046,searchDisc4,2020.2.10,Win32,60,,,,space,0.36775,2,1,1.781435,,0,21,21,473,1,2c,17,3,43,
,,,,,,,,,,,,,,,,,,,,,,,,,images/exp1b_trial_76_colour1_distractors1_r.png,r,2,010,001,2021-04-16_17h46.13.046,searchDisc4,2020.2.10,Win32,60,,,,space,0.373145,2,1,1.23132,,0,22,22,190,1,1b,76,1,1,
,,,,,,,,,,,,,,,,,,,,,,,,,images/exp2c_trial_77_colour1_distractors4_r.png,r,2,010,001,2021-04-16_17h46.13.046,searchDisc4,2020.2.10,Win32,60,,,,space,0.317475,1,0,1.85119,,0,23,23,533,1,2c,77,1,4,
,,,,,,,,,,,,,,,,,,,,,,,,,images/exp1b_trial_33_colour3_distractors19_l.png,l,1,010,001,2021-04-16_17h46.13.046,searchDisc4,2020.2.10,Win32,60,,,,space,0.38271,1,1,2.24843,,0,24,24,147,1,1b,33,3,19,
,,,,,,,,,,,,,,,,,,,,,,,,,images/exp1a_trial_96_colour1_distractors9_l.png,l,1,010,001,2021-04-16_17h46.13.046,searchDisc4,2020.2.10,Win32,60,,,,space,0.31565,2,0,2.0627,,0,25,25,96,1,1a,96,1,9,
,,,,,,,,,,,,,,,,,,,,,,,,,images/exp2c_trial_34_colour3_distractors31_l.png,l,1,010,001,2021-04-16_17h46.13.046,searchDisc4,2020.2.10,Win32,60,,,,space,0.31068,1,1,1.77315,,0,26,26,490,1,2c,34,3,31,
,,,,,,,,,,,,,,,,,,,,,,,,,images/exp2a_trial_77_colour1_distractors4_r.png,r,2,010,001,2021-04-16_17h46.13.046,searchDisc4,2020.2.10,Win32,60,,,,space,0.348485,2,1,1.54691,,0,27,27,305,1,2a,77,1,4,
,,,,,,,,,,,,,,,,,,,,,,,,,images/exp1b_trial_50_colour3_distractors1_r.png,r,2,010,001,2021-04-16_17h46.13.046,searchDisc4,2020.2.10,Win32,60,,,,space,0.4932,2,1,1.18689,,0,28,28,164,1,1b,50,3,1,
,,,,,,,,,,,,,,,,,,,,,,,,,images/exp2c_trial_71_colour3_distractors19_l.png,l,1,010,001,2021-04-16_17h46.13.046,searchDisc4,2020.2.10,Win32,60,,,,space,0.366135,1,1,0.89494,,0,29,29,527,1,2c,71,3,19,
,,,,,,,,,,,,,,,,,,,,,,,,,images/exp1b_trial_37_colour0_distractors0_l.png,l,1,010,001,2021-04-16_17h46.13.046,searchDisc4,2020.2.10,Win32,60,,,,space,0.37658,1,1,0.986405,,0,30,30,151,1,1b,37,0,0,
,,,,,,,,,,,,,,,,,,,,,,,,,images/exp2b_trial_103_colour2_distractors19_l.png,l,1,010,001,2021-04-16_17h46.13.046,searchDisc4,2020.2.10,Win32,60,,,,space,0.352125,1,1,1.10321,,0,31,31,445,1,2b,103,2,19,
,,,,,,,,,,,,,,,,,,,,,,,,,images/exp2c_trial_100_colour2_distractors1_l.png,l,1,010,001,2021-04-16_17h46.13.046,searchDisc4,2020.2.10,Win32,60,,,,space,0.25431,2,0,0.819325,,0,32,32,556,1,2c,100,2,1,
,,,,,,,,,,,,,,,,,,,,,,,,,images/exp1a_trial_60_colour1_distractors31_l.png,l,1,010,001,2021-04-16_17h46.13.046,searchDisc4,2020.2.10,Win32,60,,,,space,0.63326,1,1,3.930545,,0,33,33,60,1,1a,60,1,31,
,,,,,,,,,,,,,,,,,,,,,,,,,images/exp2a_trial_65_colour2_distractors19_l.png,l,1,010,001,2021-04-16_17h46.13.046,searchDisc4,2020.2.10,Win32,60,,,,space,0.449465,2,0,3.14843,,0,34,34,293,1,2a,65,2,19,
,,,,,,,,,,,,,,,,,,,,,,,,,images/exp2c_trial_108_colour3_distractors9_l.png,l,1,010,001,2021-04-16_17h46.13.046,searchDisc4,2020.2.10,Win32,60,,,,space,0.303195,1,1,1.867535,,0,35,35,564,1,2c,108,3,9,
,,,,,,,,,,,,,,,,,,,,,,,,,images/exp2c_trial_2_colour1_distractors9_r.png,r,2,010,001,2021-04-16_17h46.13.046,searchDisc4,2020.2.10,Win32,60,,,,space,0.283055,2,1,2.576645,,0,36,36,458,1,2c,2,1,9,
,,,,,,,,,,,,,,,,,,,,,,,,,images/exp2c_trial_38_colour1_distractors1_r.png,r,2,010,001,2021-04-16_17h46.13.046,searchDisc4,2020.2.10,Win32,60,,,,space,0.559995,1,0,1.55462,,0,37,37,494,1,2c,38,1,1,
,,,,,,,,,,,,,,,,,,,,,,,,,images/exp2c_trial_56_colour1_distractors1_l.png,l,1,010,001,2021-04-16_17h46.13.046,searchDisc4,2020.2.10,Win32,60,,,,space,0.332685,1,1,1.0001,,0,38,38,512,1,2c,56,1,1,
,,,,,,,,,,,,,,,,,,,,,,,,,images/exp2c_trial_53_colour3_distractors19_r.png,r,2,010,001,2021-04-16_17h46.13.046,searchDisc4,2020.2.10,Win32,60,,,,space,0.299125,1,0,1.367595,,0,39,39,509,1,2c,53,3,19,
,,,,,,,,,,,,,,,,,,,,,,,,,images/exp1b_trial_104_colour2_distractors31_l.png,l,1,010,001,2021-04-16_17h46.13.046,searchDisc4,2020.2.10,Win32,60,,,,space,0.26691,2,0,1.49947,,0,40,40,218,1,1b,104,2,31,
,,,,,,,,,,,,,,,,,,,,,,,,,images/exp2b_trial_9_colour2_distractors19_r.png,r,2,010,001,2021-04-16_17h46.13.046,searchDisc4,2020.2.10,Win32,60,,,,space,0.28709,1,0,1.231655,,0,41,41,351,1,2b,9,2,19,
,,,,,,,,,,,,,,,,,,,,,,,,,images/exp2b_trial_83_colour2_distractors4_r.png,r,2,010,001,2021-04-16_17h46.13.046,searchDisc4,2020.2.10,Win32,60,,,,space,0.319905,2,1,1.597765,,0,42,42,425,1,2b,83,2,4,
,,,,,,,,,,,,,,,,,,,,,,,,,images/exp2c_trial_7_colour2_distractors4_r.png,r,2,010,001,2021-04-16_17h46.13.046,searchDisc4,2020.2.10,Win32,60,,,,space,0.282925,2,1,1.13603,,0,43,43,463,1,2c,7,2,4,
,,,,,,,,,,,,,,,,,,,,,,,,,images/exp2c_trial_93_colour3_distractors43_r.png,r,2,010,001,2021-04-16_17h46.13.046,searchDisc4,2020.2.10,Win32,60,,,,space,0.26837,1,0,2.161575,,0,44,44,549,1,2c,93,3,43,
,,,,,,,,,,,,,,,,,,,,,,,,,images/exp1a_trial_40_colour1_distractors9_r.png,r,2,010,001,2021-04-16_17h46.13.046,searchDisc4,2020.2.10,Win32,60,,,,space,0.266095,1,0,1.17915,,0,45,45,40,1,1a,40,1,9,
,,,,,,,,,,,,,,,,,,,,,,,,,images/exp2c_trial_98_colour1_distractors31_l.png,l,1,010,001,2021-04-16_17h46.13.046,searchDisc4,2020.2.10,Win32,60,,,,space,0.250525,2,0,1.683645,,0,46,46,554,1,2c,98,1,31,
,,,,,,,,,,,,,,,,,,,,,,,,,images/exp2a_trial_6_colour2_distractors1_r.png,r,2,010,001,2021-04-16_17h46.13.046,searchDisc4,2020.2.10,Win32,60,,,,space,0.266315,1,0,1.834655,,0,47,47,234,1,2a,6,2,1,
,,,,,,,,,,,,,,,,,,,,,,,,,images/exp2c_trial_31_colour3_distractors4_l.png,l,1,010,001,2021-04-16_17h46.13.046,searchDisc4,2020.2.10,Win32,60,,,,space,0.20194,2,0,0.684905,,0,48,48,487,1,2c,31,3,4,
,,,,,,,,,,,,,,,,,,,,,,,,,images/exp2a_trial_55_colour3_distractors43_r.png,r,2,010,001,2021-04-16_17h46.13.046,searchDisc4,2020.2.10,Win32,60,,,,space,0.24941,1,0,1.432305,,0,49,49,283,1,2a,55,3,43,
,,,,,,,,,,,,,,,,,,,,,,,,,images/exp1b_trial_31_colour3_distractors4_l.png,l,1,010,001,2021-04-16_17h46.13.046,searchDisc4,2020.2.10,Win32,60,,,,space,0.22624,1,1,1.571155,,0,50,50,145,1,1b,31,3,4,
,,,,,,,,,,,,,,,,,,,,,,,,,images/exp1b_trial_69_colour3_distractors4_l.png,l,1,010,001,2021-04-16_17h46.13.046,searchDisc4,2020.2.10,Win32,60,,,,space,0.202085,1,1,2.14738,,0,51,51,183,1,1b,69,3,4,
,,,,,,,,,,,,,,,,,,,,,,,,,images/exp1a_trial_108_colour3_distractors9_l.png,l,1,010,001,2021-04-16_17h46.13.046,searchDisc4,2020.2.10,Win32,60,,,,space,0.115945,1,1,2.006575,,0,52,52,108,1,1a,108,3,9,
,,,,,,,,,,,,,,,,,,,,,,,,,images/exp2a_trial_99_colour1_distractors43_l.png,l,1,010,001,2021-04-16_17h46.13.046,searchDisc4,2020.2.10,Win32,60,,,,space,0.126535,1,1,3.483865,,0,53,53,327,1,2a,99,1,43,
,,,,,,,,,,,,,,,,,,,,,,,,,images/exp2a_trial_7_colour2_distractors4_r.png,r,2,010,001,2021-04-16_17h46.13.046,searchDisc4,2020.2.10,Win32,60,,,,space,0.15586,2,1,1.46508,,0,54,54,235,1,2a,7,2,4,
,,,,,,,,,,,,,,,,,,,,,,,,,images/exp1a_trial_100_colour2_distractors1_l.png,l,1,010,001,2021-04-16_17h46.13.046,searchDisc4,2020.2.10,Win32,60,,,,space,1.833415,1,1,2.801345,,0,55,55,100,1,1a,100,2,1,
,,,,,,,,,,,,,,,,,,,,,,,,,images/exp2a_trial_37_colour0_distractors0_l.png,l,1,010,001,2021-04-16_17h46.13.046,searchDisc4,2020.2.10,Win32,60,,,,space,0.499245,2,0,0.563615,,0,56,56,265,1,2a,37,0,0,
,,,,,,,,,,,,,,,,,,,,,,,,,images/exp2b_trial_74_colour0_distractors0_r.png,r,2,010,001,2021-04-16_17h46.13.046,searchDisc4,2020.2.10,Win32,60,,,,space,0.550045,1,0,0.786435,,0,57,57,416,1,2b,74,0,0,
,,,,,,,,,,,,,,,,,,,,,,,,,images/exp2a_trial_75_colour0_distractors0_l.png,l,1,010,001,2021-04-16_17h46.13.046,searchDisc4,2020.2.10,Win32,60,,,,space,0.50003,2,0,0.60401,,0,58,58,303,1,2a,75,0,0,
,,,,,,,,,,,,,,,,,,,,,,,,,images/exp2b_trial_53_colour3_distractors19_r.png,r,2,010,001,2021-04-16_17h46.13.046,searchDisc4,2020.2.10,Win32,60,,,,space,0.483205,1,0,0.98107,space,0,59,59,395,1,2b,53,3,19,9.113555
,,,,,,,,,,,,,,,,,,,,,,,,,images/exp2b_trial_70_colour3_distractors9_l.png,l,1,010,001,2021-04-16_17h46.13.046,searchDisc4,2020.2.10,Win32,60,,,,space,1.50083,1,1,0.77783,,0,60,60,412,1,2b,70,3,9,
,,,,,,,,,,,,,,,,,,,,,,,,,images/exp1b_trial_34_colour3_distractors31_l.png,l,1,010,001,2021-04-16_17h46.13.046,searchDisc4,2020.2.10,Win32,60,,,,space,0.35098,1,1,2.81654,,0,61,61,148,1,1b,34,3,31,
,,,,,,,,,,,,,,,,,,,,,,,,,images/exp1a_trial_39_colour1_distractors4_r.png,r,2,010,001,2021-04-16_17h46.13.046,searchDisc4,2020.2.10,Win32,60,,,,space,0.249745,2,1,2.85027,,0,62,62,39,1,1a,39,1,4,
,,,,,,,,,,,,,,,,,,,,,,,,,images/exp2b_trial_85_colour2_distractors19_r.png,r,2,010,001,2021-04-16_17h46.13.046,searchDisc4,2020.2.10,Win32,60,,,,space,0.26537,1,0,1.01296,,0,63,63,427,1,2b,85,2,19,
,,,,,,,,,,,,,,,,,,,,,,,,,images/exp1a_trial_46_colour2_distractors9_r.png,r,2,010,001,2021-04-16_17h46.13.046,searchDisc4,2020.2.10,Win32,60,,,,space,0.266795,2,1,1.11487,,0,64,64,46,1,1a,46,2,9,
,,,,,,,,,,,,,,,,,,,,,,,,,images/exp2c_trial_5_colour1_distractors43_r.png,r,2,010,001,2021-04-16_17h46.13.046,searchDisc4,2020.2.10,Win32,60,,,,space,0.29998,1,0,2.13035,,0,65,65,461,1,2c,5,1,43,
,,,,,,,,,,,,,,,,,,,,,,,,,images/exp2b_trial_7_colour2_distractors4_r.png,r,2,010,001,2021-04-16_17h46.13.046,searchDisc4,2020.2.10,Win32,60,,,,space,0.25274,2,1,1.648735,,0,66,66,349,1,2b,7,2,4,
,,,,,,,,,,,,,,,,,,,,,,,,,images/exp1b_trial_78_colour1_distractors9_r.png,r,2,010,001,2021-04-16_17h46.13.046,searchDisc4,2020.2.10,Win32,60,,,,space,0.287885,2,1,1.434565,,0,67,67,192,1,1b,78,1,9,
,,,,,,,,,,,,,,,,,,,,,,,,,images/exp2c_trial_69_colour3_distractors4_l.png,l,1,010,001,2021-04-16_17h46.13.046,searchDisc4,2020.2.10,Win32,60,,,,space,0.285725,1,1,2.164565,,0,68,68,525,1,2c,69,3,4,
,,,,,,,,,,,,,,,,,,,,,,,,,images/exp1b_trial_47_colour2_distractors19_r.png,r,2,010,001,2021-04-16_17h46.13.046,searchDisc4,2020.2.10,Win32,60,,,,space,0.2221,2,1,1.682265,,0,69,69,161,1,1b,47,2,19,
,,,,,,,,,,,,,,,,,,,,,,,,,images/exp2c_trial_105_colour2_distractors43_l.png,l,1,010,001,2021-04-16_17h46.13.046,searchDisc4,2020.2.10,Win32,60,,,,space,0.21596,1,1,1.684265,,0,70,70,561,1,2c,105,2,43,
,,,,,,,,,,,,,,,,,,,,,,,,,images/exp1a_trial_34_colour3_distractors31_l.png,l,1,010,001,2021-04-16_17h46.13.046,searchDisc4,2020.2.10,Win32,60,,,,space,0.16987,1,1,1.97974,,0,71,71,34,1,1a,34,3,31,
,,,,,,,,,,,,,,,,,,,,,,,,,images/exp2a_trial_69_colour3_distractors4_l.png,l,1,010,001,2021-04-16_17h46.13.046,searchDisc4,2020.2.10,Win32,60,,,,space,0.169255,1,1,1.146775,,0,72,72,297,1,2a,69,3,4,
,,,,,,,,,,,,,,,,,,,,,,,,,images/exp1a_trial_31_colour3_distractors4_l.png,l,1,010,001,2021-04-16_17h46.13.046,searchDisc4,2020.2.10,Win32,60,,,,space,0.182375,2,0,0.96395,,0,73,73,31,1,1a,31,3,4,
,,,,,,,,,,,,,,,,,,,,,,,,,images/exp2c_trial_18_colour1_distractors1_l.png,l,1,010,001,2021-04-16_17h46.13.046,searchDisc4,2020.2.10,Win32,60,,,,space,0.82158,1,1,2.6007,,0,74,74,474,1,2c,18,1,1,
,,,,,,,,,,,,,,,,,,,,,,,,,images/exp2b_trial_38_colour1_distractors1_r.png,r,2,010,001,2021-04-16_17h46.13.046,searchDisc4,2020.2.10,Win32,60,,,,space,0.418255,2,1,1.56825,,0,75,75,380,1,2b,38,1,1,
,,,,,,,,,,,,,,,,,,,,,,,,,images/exp1b_trial_84_colour2_distractors9_r.png,r,2,010,001,2021-04-16_17h46.13.046,searchDisc4,2020.2.10,Win32,60,,,,space,0.39689,1,0,2.152675,,0,76,76,198,1,1b,84,2,9,
,,,,,,,,,,,,,,,,,,,,,,,,,images/exp2b_trial_13_colour3_distractors4_r.png,r,2,010,001,2021-04-16_17h46.13.046,searchDisc4,2020.2.10,Win32,60,,,,space,0.299595,2,1,0.76202,,0,77,77,355,1,2b,13,3,4,
,,,,,,,,,,,,,,,,,,,,,,,,,images/exp1b_trial_61_colour1_distractors43_l.png,l,1,010,001,2021-04-16_17h46.13.046,searchDisc4,2020.2.10,Win32,60,,,,space,0.336655,1,1,0.961925,,0,78,78,175,1,1b,61,1,43,
,,,,,,,,,,,,,,,,,,,,,,,,,images/exp1b_trial_32_colour3_distractors9_l.png,l,1,010,001,2021-04-16_17h46.13.046,searchDisc4,2020.2.10,Win32,60,,,,space,0.280045,2,0,0.89525,,0,79,79,146,1,1b,32,3,9,
,,,,,,,,,,,,,,,,,,,,,,,,,images/exp1a_trial_80_colour1_distractors31_r.png,r,2,010,001,2021-04-16_17h46.13.046,searchDisc4,2020.2.10,Win32,60,,,,space,0.334055,1,0,1.18075,,0,80,80,80,1,1a,80,1,31,
,,,,,,,,,,,,,,,,,,,,,,,,,images/exp2a_trial_41_colour1_distractors19_r.png,r,2,010,001,2021-04-16_17h46.13.046,searchDisc4,2020.2.10,Win32,60,,,,space,0.26984,1,0,1.19141,,0,81,81,269,1,2a,41,1,19,
,,,,,,,,,,,,,,,,,,,,,,,,,images/exp2b_trial_84_colour2_distractors9_r.png,r,2,010,001,2021-04-16_17h46.13.046,searchDisc4,2020.2.10,Win32,60,,,,space,0.23288,2,1,2.489475,,0,82,82,426,1,2b,84,2,9,
,,,,,,,,,,,,,,,,,,,,,,,,,images/exp2b_trial_100_colour2_distractors1_l.png,l,1,010,001,2021-04-16_17h46.13.046,searchDisc4,2020.2.10,Win32,60,,,,space,0.23261,2,0,1.370945,,0,83,83,442,1,2b,100,2,1,
,,,,,,,,,,,,,,,,,,,,,,,,,images/exp2a_trial_14_colour3_distractors9_r.png,r,2,010,001,2021-04-16_17h46.13.046,searchDisc4,2020.2.10,Win32,60,,,,space,0.17422,2,1,0.77517,,0,84,84,242,1,2a,14,3,9,
,,,,,,,,,,,,,,,,,,,,,,,,,images/exp2c_trial_66_colour2_distractors31_l.png,l,1,010,001,2021-04-16_17h46.13.046,searchDisc4,2020.2.10,Win32,60,,,,space,0.13706,1,1,1.71548,,0,85,85,522,1,2c,66,2,31,
,,,,,,,,,,,,,,,,,,,,,,,,,images/exp1a_trial_30_colour3_distractors1_l.png,l,1,010,001,2021-04-16_17h46.13.046,searchDisc4,2020.2.10,Win32,60,,,,space,0.1044,2,0,2.876055,,0,86,86,30,1,1a,30,3,1,
,,,,,,,,,,,,,,,,,,,,,,,,,images/exp2c_trial_94_colour1_distractors1_l.png,l,1,010,001,2021-04-16_17h46.13.046,searchDisc4,2020.2.10,Win32,60,,,,space,0.047965,1,1,1.271545,,0,87,87,550,1,2c,94,1,1,
,,,,,,,,,,,,,,,,,,,,,,,,,images/exp2c_trial_61_colour1_distractors43_l.png,l,1,010,001,2021-04-16_17h46.13.046,searchDisc4,2020.2.10,Win32,60,,,,space,1.37327,2,0,2.112665,,0,88,88,517,1,2c,61,1,43,
,,,,,,,,,,,,,,,,,,,,,,,,,images/exp1b_trial_27_colour2_distractors19_l.png,l,1,010,001,2021-04-16_17h46.13.046,searchDisc4,2020.2.10,Win32,60,,,,space,0.28259,1,1,0.798,,0,89,89,141,1,1b,27,2,19,
,,,,,,,,,,,,,,,,,,,,,,,,,images/exp2b_trial_93_colour3_distractors43_r.png,r,2,010,001,2021-04-16_17h46.13.046,searchDisc4,2020.2.10,Win32,60,,,,space,0.296225,,0,,,0,90,90,435,1,2b,93,3,43,
,,,,,,,,,,,,,,,,,,,,,,,,,images/exp2c_trial_86_colour2_distractors31_r.png,r,2,010,001,2021-04-16_17h46.13.046,searchDisc4,2020.2.10,Win32,60,,,,space,1.00529,,0,,,0,91,91,542,1,2c,86,2,31,
,,,,,,,,,,,,,,,,,,,,,,,,,images/exp1b_trial_36_colour0_distractors0_r.png,r,2,010,001,2021-04-16_17h46.13.046,searchDisc4,2020.2.10,Win32,60,,,,space,0.59981,1,0,0.82872,,0,92,92,150,1,1b,36,0,0,
,,,,,,,,,,,,,,,,,,,,,,,,,images/exp2a_trial_38_colour1_distractors1_r.png,r,2,010,001,2021-04-16_17h46.13.046,searchDisc4,2020.2.10,Win32,60,,,,space,0.4164,2,1,0.562985,,0,93,93,266,1,2a,38,1,1,
,,,,,,,,,,,,,,,,,,,,,,,,,images/exp2a_trial_101_colour2_distractors4_l.png,l,1,010,001,2021-04-16_17h46.13.046,searchDisc4,2020.2.10,Win32,60,,,,space,0.284505,2,0,1.02033,,0,94,94,329,1,2a,101,2,4,
,,,,,,,,,,,,,,,,,,,,,,,,,images/exp1a_trial_78_colour1_distractors9_r.png,r,2,010,001,2021-04-16_17h46.13.046,searchDisc4,2020.2.10,Win32,60,,,,space,0.14992,2,1,1.19268,,0,95,95,78,1,1a,78,1,9,
,,,,,,,,,,,,,,,,,,,,,,,,,images/exp2a_trial_108_colour3_distractors9_l.png,l,1,010,001,2021-04-16_17h46.13.046,searchDisc4,2020.2.10,Win32,60,,,,space,0.14994,2,0,0.92143,,0,96,96,336,1,2a,108,3,9,
,,,,,,,,,,,,,,,,,,,,,,,,,images/exp2c_trial_51_colour3_distractors4_r.png,r,2,010,001,2021-04-16_17h46.13.046,searchDisc4,2020.2.10,Win32,60,,,,space,0.18135,2,1,0.712445,,0,97,97,507,1,2c,51,3,4,
,,,,,,,,,,,,,,,,,,,,,,,,,images/exp1a_trial_70_colour3_distractors9_l.png,l,1,010,001,2021-04-16_17h46.13.046,searchDisc4,2020.2.10,Win32,60,,,,space,0.168525,2,0,0.911745,,0,98,98,70,1,1a,70,3,9,
,,,,,,,,,,,,,,,,,,,,,,,,,images/exp2b_trial_64_colour2_distractors9_l.png,l,1,010,001,2021-04-16_17h46.13.046,searchDisc4,2020.2.10,Win32,60,,,,space,0.18298,2,0,0.71587,,0,99,99,406,1,2b,64,2,9,
,,,,,,,,,,,,,,,,,,,,,,,,,images/exp1a_trial_57_colour1_distractors4_l.png,l,1,010,001,2021-04-16_17h46.13.046,searchDisc4,2020.2.10,Win32,60,,,,space,0.1865,1,1,1.56662,,0,100,100,57,1,1a,57,1,4,
,,,,,,,,,,,,,,,,,,,,,,,,,images/exp2a_trial_13_colour3_distractors4_r.png,r,2,010,001,2021-04-16_17h46.13.046,searchDisc4,2020.2.10,Win32,60,,,,space,0.14611,2,1,0.832345,,0,101,101,241,1,2a,13,3,4,
,,,,,,,,,,,,,,,,,,,,,,,,,images/exp1a_trial_92_colour3_distractors31_r.png,r,2,010,001,2021-04-16_17h46.13.046,searchDisc4,2020.2.10,Win32,60,,,,space,0.06661,1,0,0.71072,,0,102,102,92,1,1a,92,3,31,
,,,,,,,,,,,,,,,,,,,,,,,,,images/exp2b_trial_92_colour3_distractors31_r.png,r,2,010,001,2021-04-16_17h46.13.046,searchDisc4,2020.2.10,Win32,60,,,,space,0.13254,2,1,0.625645,,0,103,103,434,1,2b,92,3,31,
,,,,,,,,,,,,,,,,,,,,,,,,,images/exp2c_trial_41_colour1_distractors19_r.png,r,2,010,001,2021-04-16_17h46.13.046,searchDisc4,2020.2.10,Win32,60,,,,space,0.054355,1,0,0.794165,,0,104,104,497,1,2c,41,1,19,
,,,,,,,,,,,,,,,,,,,,,,,,,images/exp2b_trial_21_colour1_distractors19_l.png,l,1,010,001,2021-04-16_17h46.13.046,searchDisc4,2020.2.10,Win32,60,,,,space,0.00086,2,0,0.61639,,0,105,105,363,1,2b,21,1,19,
,,,,,,,,,,,,,,,,,,,,,,,,,images/exp2c_trial_6_colour2_distractors1_r.png,r,2,010,001,2021-04-16_17h46.13.046,searchDisc4,2020.2.10,Win32,60,,,,space,0.000775,1,0,1.055175,,0,106,106,462,1,2c,6,2,1,
,,,,,,,,,,,,,,,,,,,,,,,,,images/exp2b_trial_6_colour2_distractors1_r.png,r,2,010,001,2021-04-16_17h46.13.046,searchDisc4,2020.2.10,Win32,60,,,,space,0.00073,2,1,0.898545,,0,107,107,348,1,2b,6,2,1,
,,,,,,,,,,,,,,,,,,,,,,,,,images/exp2a_trial_23_colour1_distractors43_l.png,l,1,010,001,2021-04-16_17h46.13.046,searchDisc4,2020.2.10,Win32,60,,,,space,0.646645,1,1,0.813315,,0,108,108,251,1,2a,23,1,43,
,,,,,,,,,,,,,,,,,,,,,,,,,images/exp2b_trial_35_colour3_distractors43_l.png,l,1,010,001,2021-04-16_17h46.13.046,searchDisc4,2020.2.10,Win32,60,,,,space,0.869565,2,0,0.709645,,0,109,109,377,1,2b,35,3,43,
,,,,,,,,,,,,,,,,,,,,,,,,,images/exp1b_trial_35_colour3_distractors43_l.png,l,1,010,001,2021-04-16_17h46.13.046,searchDisc4,2020.2.10,Win32,60,,,,space,0.446345,2,0,0.809995,,0,110,110,149,1,1b,35,3,43,
,,,,,,,,,,,,,,,,,,,,,,,,,images/exp2a_trial_71_colour3_distractors19_l.png,l,1,010,001,2021-04-16_17h46.13.046,searchDisc4,2020.2.10,Win32,60,,,,space,0.35697,2,0,0.77478,,0,111,111,299,1,2a,71,3,19,
,,,,,,,,,,,,,,,,,,,,,,,,,images/exp2b_trial_14_colour3_distractors9_r.png,r,2,010,001,2021-04-16_17h46.13.046,searchDisc4,2020.2.10,Win32,60,,,,space,0.302625,2,1,1.460385,,0,112,112,356,1,2b,14,3,9,
,,,,,,,,,,,,,,,,,,,,,,,,,images/exp2a_trial_107_colour3_distractors4_l.png,l,1,010,001,2021-04-16_17h46.13.046,searchDisc4,2020.2.10,Win32,60,,,,space,0.266525,2,0,0.880375,,0,113,113,335,1,2a,107,3,4,
,,,,,,,,,,,,,,,,,,,,,,,,,images/exp2b_trial_2_colour1_distractors9_r.png,r,2,010,001,2021-04-16_17h46.13.046,searchDisc4,2020.2.10,Win32,60,,,,space,0.26744,1,0,1.55819,,0,114,114,344,1,2b,2,1,9,
,,,,,,,,,,,,,,,,,,,,,,,,,images/exp2a_trial_112_colour0_distractors0_r.png,r,2,010,001,2021-04-16_17h46.13.046,searchDisc4,2020.2.10,Win32,60,,,,space,0.25039,2,1,0.69552,,0,115,115,340,1,2a,112,0,0,
,,,,,,,,,,,,,,,,,,,,,,,,,images/exp1a_trial_44_colour2_distractors1_r.png,r,2,010,001,2021-04-16_17h46.13.046,searchDisc4,2020.2.10,Win32,60,,,,space,0.28632,1,0,1.04857,,0,116,116,44,1,1a,44,2,1,
,,,,,,,,,,,,,,,,,,,,,,,,,images/exp1b_trial_15_colour3_distractors19_r.png,r,2,010,001,2021-04-16_17h46.13.046,searchDisc4,2020.2.10,Win32,60,,,,space,0.270225,2,1,1.979785,,0,117,117,129,1,1b,15,3,19,
,,,,,,,,,,,,,,,,,,,,,,,,,images/exp2b_trial_95_colour1_distractors4_l.png,l,1,010,001,2021-04-16_17h46.13.046,searchDisc4,2020.2.10,Win32,60,,,,space,0.25546,1,1,0.849445,,0,118,118,437,1,2b,95,1,4,
,,,,,,,,,,,,,,,,,,,,,,,,,images/exp2b_trial_72_colour3_distractors31_l.png,l,1,010,001,2021-04-16_17h46.13.046,searchDisc4,2020.2.10,Win32,60,,,,space,0.26671,2,0,0.857275,space,0,119,119,414,1,2b,72,3,31,0.29482
,,,,,,,,,,,,,,,,,,,,,,,,,images/exp1a_trial_94_colour1_distractors1_l.png,l,1,010,001,2021-04-16_17h46.13.046,searchDisc4,2020.2.10,Win32,60,,,,space,1.2961,1,1,1.551475,,0,120,120,94,1,1a,94,1,1,
,,,,,,,,,,,,,,,,,,,,,,,,,images/exp2c_trial_45_colour2_distractors4_r.png,r,2,010,001,2021-04-16_17h46.13.046,searchDisc4,2020.2.10,Win32,60,,,,space,0.300575,2,1,1.11332,,0,121,121,501,1,2c,45,2,4,
,,,,,,,,,,,,,,,,,,,,,,,,,images/exp1b_trial_103_colour2_distractors19_l.png,l,1,010,001,2021-04-16_17h46.13.046,searchDisc4,2020.2.10,Win32,60,,,,space,0.31662,1,1,1.00071,,0,122,122,217,1,1b,103,2,19,
,,,,,,,,,,,,,,,,,,,,,,,,,images/exp1a_trial_38_colour1_distractors1_r.png,r,2,010,001,2021-04-16_17h46.13.046,searchDisc4,2020.2.10,Win32,60,,,,space,0.33685,2,1,0.814355,,0,123,123,38,1,1a,38,1,1,
,,,,,,,,,,,,,,,,,,,,,,,,,images/exp1b_trial_89_colour3_distractors4_r.png,r,2,010,001,2021-04-16_17h46.13.046,searchDisc4,2020.2.10,Win32,60,,,,space,0.315945,2,1,1.129035,,0,124,124,203,1,1b,89,3,4,
,,,,,,,,,,,,,,,,,,,,,,,,,images/exp2a_trial_25_colour2_distractors4_l.png,l,1,010,001,2021-04-16_17h46.13.046,searchDisc4,2020.2.10,Win32,60,,,,space,0.2846,1,1,0.9001,,0,125,125,253,1,2a,25,2,4,
,,,,,,,,,,,,,,,,,,,,,,,,,images/exp1a_trial_35_colour3_distractors43_l.png,l,1,010,001,2021-04-16_17h46.13.046,searchDisc4,2020.2.10,Win32,60,,,,space,0.315625,1,1,1.298065,,0,126,126,35,1,1a,35,3,43,
,,,,,,,,,,,,,,,,,,,,,,,,,images/exp2a_trial_19_colour1_distractors4_l.png,l,1,010,001,2021-04-16_17h46.13.046,searchDisc4,2020.2.10,Win32,60,,,,space,0.304125,2,0,0.72431,,0,127,127,247,1,2a,19,1,4,
,,,,,,,,,,,,,,,,,,,,,,,,,images/exp1a_trial_50_colour3_distractors1_r.png,r,2,010,001,2021-04-16_17h46.13.046,searchDisc4,2020.2.10,Win32,60,,,,space,0.3057,1,0,0.832455,,0,128,128,50,1,1a,50,3,1,
,,,,,,,,,,,,,,,,,,,,,,,,,images/exp2a_trial_98_colour1_distractors31_l.png,l,1,010,001,2021-04-16_17h46.13.046,searchDisc4,2020.2.10,Win32,60,,,,space,0.288145,2,0,0.86348,,0,129,129,326,1,2a,98,1,31,
,,,,,,,,,,,,,,,,,,,,,,,,,images/exp2b_trial_58_colour1_distractors9_l.png,l,1,010,001,2021-04-16_17h46.13.046,searchDisc4,2020.2.10,Win32,60,,,,space,0.267745,2,0,1.0306,,0,130,130,400,1,2b,58,1,9,
,,,,,,,,,,,,,,,,,,,,,,,,,images/exp2b_trial_105_colour2_distractors43_l.png,l,1,010,001,2021-04-16_17h46.13.046,searchDisc4,2020.2.10,Win32,60,,,,space,0.222925,2,0,2.544655,,0,131,131,447,1,2b,105,2,43,
,,,,,,,,,,,,,,,,,,,,,,,,,images/exp2b_trial_80_colour1_distractors31_r.png,r,2,010,001,2021-04-16_17h46.13.046,searchDisc4,2020.2.10,Win32,60,,,,space,0.233435,2,1,0.81455,,0,132,132,422,1,2b,80,1,31,
,,,,,,,,,,,,,,,,,,,,,,,,,images/exp2c_trial_106_colour3_distractors1_l.png,l,1,010,001,2021-04-16_17h46.13.046,searchDisc4,2020.2.10,Win32,60,,,,space,0.200375,2,0,0.988565,,0,133,133,562,1,2c,106,3,1,
,,,,,,,,,,,,,,,,,,,,,,,,,images/exp2c_trial_87_colour2_distractors43_r.png,r,2,010,001,2021-04-16_17h46.13.046,searchDisc4,2020.2.10,Win32,60,,,,space,0.14696,2,1,0.90115,,0,134,134,543,1,2c,87,2,43,
,,,,,,,,,,,,,,,,,,,,,,,,,images/exp1a_trial_86_colour2_distractors31_r.png,r,2,010,001,2021-04-16_17h46.13.046,searchDisc4,2020.2.10,Win32,60,,,,space,0.10488,2,1,1.24674,,0,135,135,86,1,1a,86,2,31,
,,,,,,,,,,,,,,,,,,,,,,,,,images/exp2b_trial_60_colour1_distractors31_l.png,l,1,010,001,2021-04-16_17h46.13.046,searchDisc4,2020.2.10,Win32,60,,,,space,0.11584,2,0,0.88213,,0,136,136,402,1,2b,60,1,31,
,,,,,,,,,,,,,,,,,,,,,,,,,images/exp1a_trial_18_colour1_distractors1_l.png,l,1,010,001,2021-04-16_17h46.13.046,searchDisc4,2020.2.10,Win32,60,,,,space,0.07179,2,0,0.85119,,0,137,137,18,1,1a,18,1,1,
,,,,,,,,,,,,,,,,,,,,,,,,,images/exp1b_trial_20_colour1_distractors9_l.png,l,1,010,001,2021-04-16_17h46.13.046,searchDisc4,2020.2.10,Win32,60,,,,space,0.084335,2,0,1.030085,,0,138,138,134,1,1b,20,1,9,
,,,,,,,,,,,,,,,,,,,,,,,,,images/exp1b_trial_99_colour1_distractors43_l.png,l,1,010,001,2021-04-16_17h46.13.046,searchDisc4,2020.2.10,Win32,60,,,,space,0.054905,2,0,1.28271,,0,139,139,213,1,1b,99,1,43,
,,,,,,,,,,,,,,,,,,,,,,,,,images/exp2c_trial_107_colour3_distractors4_l.png,l,1,010,001,2021-04-16_17h46.13.046,searchDisc4,2020.2.10,Win32,60,,,,space,0.08209,1,1,0.877,,0,140,140,563,1,2c,107,3,4,
,,,,,,,,,,,,,,,,,,,,,,,,,images/exp2c_trial_109_colour3_distractors19_l.png,l,1,010,001,2021-04-16_17h46.13.046,searchDisc4,2020.2.10,Win32,60,,,,space,0.126645,2,0,1.20171,,0,141,141,565,1,2c,109,3,19,
,,,,,,,,,,,,,,,,,,,,,,,,,images/exp1a_trial_29_colour2_distractors43_l.png,l,1,010,001,2021-04-16_17h46.13.046,searchDisc4,2020.2.10,Win32,60,,,,space,0.04937,2,0,1.694115,,0,142,142,29,1,1a,29,2,43,
,,,,,,,,,,,,,,,,,,,,,,,,,images/exp2b_trial_26_colour2_distractors9_l.png,l,1,010,001,2021-04-16_17h46.13.046,searchDisc4,2020.2.10,Win32,60,,,,space,0.066895,2,0,0.97813,,0,143,143,368,1,2b,26,2,9,
,,,,,,,,,,,,,,,,,,,,,,,,,images/exp1a_trial_109_colour3_distractors19_l.png,l,1,010,001,2021-04-16_17h46.13.046,searchDisc4,2020.2.10,Win32,60,,,,space,0.098,1,1,0.90513,,0,144,144,109,1,1a,109,3,19,
,,,,,,,,,,,,,,,,,,,,,,,,,images/exp1b_trial_38_colour1_distractors1_r.png,r,2,010,001,2021-04-16_17h46.13.046,searchDisc4,2020.2.10,Win32,60,,,,space,0.082545,2,1,0.897705,,0,145,145,152,1,1b,38,1,1,
,,,,,,,,,,,,,,,,,,,,,,,,,images/exp2b_trial_68_colour3_distractors1_l.png,l,1,010,001,2021-04-16_17h46.13.046,searchDisc4,2020.2.10,Win32,60,,,,space,0.104595,2,0,0.95029,,0,146,146,410,1,2b,68,3,1,
,,,,,,,,,,,,,,,,,,,,,,,,,images/exp1b_trial_46_colour2_distractors9_r.png,r,2,010,001,2021-04-16_17h46.13.046,searchDisc4,2020.2.10,Win32,60,,,,space,0.065785,1,0,2.131245,,0,147,147,160,1,1b,46,2,9,
,,,,,,,,,,,,,,,,,,,,,,,,,images/exp1a_trial_41_colour1_distractors19_r.png,r,2,010,001,2021-04-16_17h46.13.046,searchDisc4,2020.2.10,Win32,60,,,,space,0.06195,2,1,0.96845,,0,148,148,41,1,1a,41,1,19,
,,,,,,,,,,,,,,,,,,,,,,,,,images/exp1a_trial_14_colour3_distractors9_r.png,r,2,010,001,2021-04-16_17h46.13.046,searchDisc4,2020.2.10,Win32,60,,,,space,0.082385,2,1,1.06037,,0,149,149,14,1,1a,14,3,9,
,,,,,,,,,,,,,,,,,,,,,,,,,images/exp1b_trial_92_colour3_distractors31_r.png,r,2,010,001,2021-04-16_17h46.13.046,searchDisc4,2020.2.10,Win32,60,,,,space,0.0822,1,0,2.785145,,0,150,150,206,1,1b,92,3,31,
,,,,,,,,,,,,,,,,,,,,,,,,,images/exp2a_trial_79_colour1_distractors19_r.png,r,2,010,001,2021-04-16_17h46.13.046,searchDisc4,2020.2.10,Win32,60,,,,space,0.065545,2,1,1.02543,,0,151,151,307,1,2a,79,1,19,
,,,,,,,,,,,,,,,,,,,,,,,,,images/exp2b_trial_107_colour3_distractors4_l.png,l,1,010,001,2021-04-16_17h46.13.046,searchDisc4,2020.2.10,Win32,60,,,,space,0.065795,1,1,0.776135,,0,152,152,449,1,2b,107,3,4,
,,,,,,,,,,,,,,,,,,,,,,,,,images/exp1a_trial_0_colour1_distractors1_r.png,r,2,010,001,2021-04-16_17h46.13.046,searchDisc4,2020.2.10,Win32,60,,,,space,0.09956,1,0,1.013445,,0,153,153,0,1,1a,0,1,1,
,,,,,,,,,,,,,,,,,,,,,,,,,images/exp1a_trial_49_colour2_distractors43_r.png,r,2,010,001,2021-04-16_17h46.13.046,searchDisc4,2020.2.10,Win32,60,,,,space,0.000785,1,0,1.736895,,0,154,154,49,1,1a,49,2,43,
,,,,,,,,,,,,,,,,,,,,,,,,,images/exp2b_trial_39_colour1_distractors4_r.png,r,2,010,001,2021-04-16_17h46.13.046,searchDisc4,2020.2.10,Win32,60,,,,space,0.71572,2,1,0.9471,,0,155,155,381,1,2b,39,1,4,
,,,,,,,,,,,,,,,,,,,,,,,,,images/exp1b_trial_111_colour3_distractors43_l.png,l,1,010,001,2021-04-16_17h46.13.046,searchDisc4,2020.2.10,Win32,60,,,,space,0.203385,1,1,2.762165,,0,156,156,225,1,1b,111,3,43,
,,,,,,,,,,,,,,,,,,,,,,,,,images/exp1b_trial_91_colour3_distractors19_r.png,r,2,010,001,2021-04-16_17h46.13.046,searchDisc4,2020.2.10,Win32,60,,,,space,0.13508,2,1,1.36547,,0,157,157,205,1,1b,91,3,19,
,,,,,,,,,,,,,,,,,,,,,,,,,images/exp2b_trial_63_colour2_distractors4_l.png,l,1,010,001,2021-04-16_17h46.13.046,searchDisc4,2020.2.10,Win32,60,,,,space,0.116515,1,1,0.784265,,0,158,158,405,1,2b,63,2,4,
,,,,,,,,,,,,,,,,,,,,,,,,,images/exp1b_trial_110_colour3_distractors31_l.png,l,1,010,001,2021-04-16_17h46.13.046,searchDisc4,2020.2.10,Win32,60,,,,space,0.145635,2,0,2.505575,,0,159,159,224,1,1b,110,3,31,
,,,,,,,,,,,,,,,,,,,,,,,,,images/exp1a_trial_5_colour1_distractors43_r.png,r,2,010,001,2021-04-16_17h46.13.046,searchDisc4,2020.2.10,Win32,60,,,,space,0.18261,1,0,1.111335,,0,160,160,5,1,1a,5,1,43,
,,,,,,,,,,,,,,,,,,,,,,,,,images/exp1a_trial_9_colour2_distractors19_r.png,r,2,010,001,2021-04-16_17h46.13.046,searchDisc4,2020.2.10,Win32,60,,,,space,1.1175,2,1,0.880945,,0,161,161,9,1,1a,9,2,19,
,,,,,,,,,,,,,,,,,,,,,,,,,images/exp1b_trial_64_colour2_distractors9_l.png,l,1,010,001,2021-04-16_17h46.13.046,searchDisc4,2020.2.10,Win32,60,,,,space,0.366935,2,0,1.363395,,0,162,162,178,1,1b,64,2,9,
,,,,,,,,,,,,,,,,,,,,,,,,,images/exp1a_trial_63_colour2_distractors4_l.png,l,1,010,001,2021-04-16_17h46.13.046,searchDisc4,2020.2.10,Win32,60,,,,space,0.265735,2,0,1.68015,,0,163,163,63,1,1a,63,2,4,
,,,,,,,,,,,,,,,,,,,,,,,,,images/exp2a_trial_45_colour2_distractors4_r.png,r,2,010,001,2021-04-16_17h46.13.046,searchDisc4,2020.2.10,Win32,60,,,,space,0.18204,2,1,0.65529,,0,164,164,273,1,2a,45,2,4,
,,,,,,,,,,,,,,,,,,,,,,,,,images/exp1b_trial_19_colour1_distractors4_l.png,l,1,010,001,2021-04-16_17h46.13.046,searchDisc4,2020.2.10,Win32,60,,,,space,0.132785,1,1,1.234525,,0,165,165,133,1,1b,19,1,4,
,,,,,,,,,,,,,,,,,,,,,,,,,images/exp2c_trial_76_colour1_distractors1_r.png,r,2,010,001,2021-04-16_17h46.13.046,searchDisc4,2020.2.10,Win32,60,,,,space,0.149455,1,0,1.08475,,0,166,166,532,1,2c,76,1,1,
,,,,,,,,,,,,,,,,,,,,,,,,,images/exp2c_trial_72_colour3_distractors31_l.png,l,1,010,001,2021-04-16_17h46.13.046,searchDisc4,2020.2.10,Win32,60,,,,space,0.132875,2,0,0.77125,,0,167,167,528,1,2c,72,3,31,
,,,,,,,,,,,,,,,,,,,,,,,,,images/exp2a_trial_62_colour2_distractors1_l.png,l,1,010,001,2021-04-16_17h46.13.046,searchDisc4,2020.2.10,Win32,60,,,,space,0.1167,2,0,0.7251,,0,168,168,290,1,2a,62,2,1,
,,,,,,,,,,,,,,,,,,,,,,,,,images/exp1a_trial_102_colour2_distractors9_l.png,l,1,010,001,2021-04-16_17h46.13.046,searchDisc4,2020.2.10,Win32,60,,,,space,0.589465,2,0,1.23902,,0,169,169,102,1,1a,102,2,9,
,,,,,,,,,,,,,,,,,,,,,,,,,images/exp1a_trial_22_colour1_distractors31_l.png,l,1,010,001,2021-04-16_17h46.13.046,searchDisc4,2020.2.10,Win32,60,,,,space,0.11654,1,1,0.796565,,0,170,170,22,1,1a,22,1,31,
,,,,,,,,,,,,,,,,,,,,,,,,,images/exp2a_trial_106_colour3_distractors1_l.png,l,1,010,001,2021-04-16_17h46.13.046,searchDisc4,2020.2.10,Win32,60,,,,space,0.098125,1,1,0.756985,,0,171,171,334,1,2a,106,3,1,
,,,,,,,,,,,,,,,,,,,,,,,,,images/exp1b_trial_49_colour2_distractors43_r.png,r,2,010,001,2021-04-16_17h46.13.046,searchDisc4,2020.2.10,Win32,60,,,,space,0.136185,2,1,2.729135,,0,172,172,163,1,1b,49,2,43,
,,,,,,,,,,,,,,,,,,,,,,,,,images/exp1a_trial_4_colour1_distractors31_r.png,r,2,010,001,2021-04-16_17h46.13.046,searchDisc4,2020.2.10,Win32,60,,,,space,0.121565,2,1,1.19435,,0,173,173,4,1,1a,4,1,31,
,,,,,,,,,,,,,,,,,,,,,,,,,images/exp2b_trial_29_colour2_distractors43_l.png,l,1,010,001,2021-04-16_17h46.13.046,searchDisc4,2020.2.10,Win32,60,,,,space,0.15347,2,0,1.58047,,0,174,174,371,1,2b,29,2,43,
,,,,,,,,,,,,,,,,,,,,,,,,,images/exp2b_trial_54_colour3_distractors31_r.png,r,2,010,001,2021-04-16_17h46.13.046,searchDisc4,2020.2.10,Win32,60,,,,space,0.12202,2,1,0.90316,,0,175,175,396,1,2b,54,3,31,
,,,,,,,,,,,,,,,,,,,,,,,,,images/exp1b_trial_3_colour1_distractors19_r.png,r,2,010,001,2021-04-16_17h46.13.046,searchDisc4,2020.2.10,Win32,60,,,,space,0.16619,1,0,1.246895,,0,176,176,117,1,1b,3,1,19,
,,,,,,,,,,,,,,,,,,,,,,,,,images/exp1a_trial_7_colour2_distractors4_r.png,r,2,010,001,2021-04-16_17h46.13.046,searchDisc4,2020.2.10,Win32,60,,,,space,0.15327,1,0,1.20516,,0,177,177,7,1,1a,7,2,4,
,,,,,,,,,,,,,,,,,,,,,,,,,images/exp1a_trial_104_colour2_distractors31_l.png,l,1,010,001,2021-04-16_17h46.13.046,searchDisc4,2020.2.10,Win32,60,,,,space,0.19966,2,0,1.34158,,0,178,178,104,1,1a,104,2,31,
,,,,,,,,,,,,,,,,,,,,,,,,,images/exp1a_trial_79_colour1_distractors19_r.png,r,2,010,001,2021-04-16_17h46.13.046,searchDisc4,2020.2.10,Win32,60,,,,space,0.134035,2,1,0.86232,space,0,179,179,79,1,1a,79,1,19,11.185415
,,,,,,,,,,,,,,,,,,,,,,,,,images/exp2a_trial_10_colour2_distractors31_r.png,r,2,010,001,2021-04-16_17h46.13.046,searchDisc4,2020.2.10,Win32,60,,,,space,1.23808,2,1,0.822175,,0,180,180,238,1,2a,10,2,31,
,,,,,,,,,,,,,,,,,,,,,,,,,images/exp1b_trial_98_colour1_distractors31_l.png,l,1,010,001,2021-04-16_17h46.13.046,searchDisc4,2020.2.10,Win32,60,,,,space,0.18342,2,0,1.086075,,0,181,181,212,1,1b,98,1,31,
,,,,,,,,,,,,,,,,,,,,,,,,,images/exp2a_trial_35_colour3_distractors43_l.png,l,1,010,001,2021-04-16_17h46.13.046,searchDisc4,2020.2.10,Win32,60,,,,space,0.132605,1,1,0.75162,,0,182,182,263,1,2a,35,3,43,
,,,,,,,,,,,,,,,,,,,,,,,,,images/exp1b_trial_2_colour1_distractors9_r.png,r,2,010,001,2021-04-16_17h46.13.046,searchDisc4,2020.2.10,Win32,60,,,,space,0.11818,2,1,1.069085,,0,183,183,116,1,1b,2,1,9,
,,,,,,,,,,,,,,,,,,,,,,,,,images/exp2b_trial_37_colour0_distractors0_l.png,l,1,010,001,2021-04-16_17h46.13.046,searchDisc4,2020.2.10,Win32,60,,,,space,0.116145,2,0,0.91848,,0,184,184,379,1,2b,37,0,0,
,,,,,,,,,,,,,,,,,,,,,,,,,images/exp2c_trial_4_colour1_distractors31_r.png,r,2,010,001,2021-04-16_17h46.13.046,searchDisc4,2020.2.10,Win32,60,,,,space,0.0992,1,0,0.956705,,0,185,185,460,1,2c,4,1,31,
,,,,,,,,,,,,,,,,,,,,,,,,,images/exp1b_trial_29_colour2_distractors43_l.png,l,1,010,001,2021-04-16_17h46.13.046,searchDisc4,2020.2.10,Win32,60,,,,space,0.116245,1,1,1.450115,,0,186,186,143,1,1b,29,2,43,
,,,,,,,,,,,,,,,,,,,,,,,,,images/exp2b_trial_48_colour2_distractors31_r.png,r,2,010,001,2021-04-16_17h46.13.046,searchDisc4,2020.2.10,Win32,60,,,,space,0.11573,2,1,0.80316,,0,187,187,390,1,2b,48,2,31,
,,,,,,,,,,,,,,,,,,,,,,,,,images/exp2c_trial_28_colour2_distractors31_l.png,l,1,010,001,2021-04-16_17h46.13.046,searchDisc4,2020.2.10,Win32,60,,,,space,0.117045,2,0,2.25097,,0,188,188,484,1,2c,28,2,31,
,,,,,,,,,,,,,,,,,,,,,,,,,images/exp2c_trial_21_colour1_distractors19_l.png,l,1,010,001,2021-04-16_17h46.13.046,searchDisc4,2020.2.10,Win32,60,,,,space,0.13877,2,0,1.064755,,0,189,189,477,1,2c,21,1,19,
,,,,,,,,,,,,,,,,,,,,,,,,,images/exp2b_trial_12_colour3_distractors1_r.png,r,2,010,001,2021-04-16_17h46.13.046,searchDisc4,2020.2.10,Win32,60,,,,space,0.08288,2,1,0.829745,,0,190,190,354,1,2b,12,3,1,
,,,,,,,,,,,,,,,,,,,,,,,,,images/exp1b_trial_108_colour3_distractors9_l.png,l,1,010,001,2021-04-16_17h46.13.046,searchDisc4,2020.2.10,Win32,60,,,,space,0.102695,2,0,0.90063,,0,191,191,222,1,1b,108,3,9,
,,,,,,,,,,,,,,,,,,,,,,,,,images/exp2b_trial_43_colour1_distractors43_r.png,r,2,010,001,2021-04-16_17h46.13.046,searchDisc4,2020.2.10,Win32,60,,,,space,0.069735,1,0,0.78025,,0,192,192,385,1,2b,43,1,43,
,,,,,,,,,,,,,,,,,,,,,,,,,images/exp2c_trial_78_colour1_distractors9_r.png,r,2,010,001,2021-04-16_17h46.13.046,searchDisc4,2020.2.10,Win32,60,,,,space,0.11479,2,1,0.858885,,0,193,193,534,1,2c,78,1,9,
,,,,,,,,,,,,,,,,,,,,,,,,,images/exp1a_trial_24_colour2_distractors1_l.png,l,1,010,001,2021-04-16_17h46.13.046,searchDisc4,2020.2.10,Win32,60,,,,space,0.115515,1,1,0.83473,,0,194,194,24,1,1a,24,2,1,
,,,,,,,,,,,,,,,,,,,,,,,,,images/exp2b_trial_10_colour2_distractors31_r.png,r,2,010,001,2021-04-16_17h46.13.046,searchDisc4,2020.2.10,Win32,60,,,,space,0.116175,2,1,0.8411,,0,195,195,352,1,2b,10,2,31,
,,,,,,,,,,,,,,,,,,,,,,,,,images/exp2c_trial_68_colour3_distractors1_l.png,l,1,010,001,2021-04-16_17h46.13.046,searchDisc4,2020.2.10,Win32,60,,,,space,0.102395,2,0,1.263955,,0,196,196,524,1,2c,68,3,1,
,,,,,,,,,,,,,,,,,,,,,,,,,images/exp2a_trial_0_colour1_distractors1_r.png,r,2,010,001,2021-04-16_17h46.13.046,searchDisc4,2020.2.10,Win32,60,,,,space,0.07155,1,0,1.05092,,0,197,197,228,1,2a,0,1,1,
,,,,,,,,,,,,,,,,,,,,,,,,,images/exp2b_trial_98_colour1_distractors31_l.png,l,1,010,001,2021-04-16_17h46.13.046,searchDisc4,2020.2.10,Win32,60,,,,space,0.14044,2,0,0.71469,,0,198,198,440,1,2b,98,1,31,
,,,,,,,,,,,,,,,,,,,,,,,,,images/exp2b_trial_45_colour2_distractors4_r.png,r,2,010,001,2021-04-16_17h46.13.046,searchDisc4,2020.2.10,Win32,60,,,,space,0.198595,2,1,1.032385,,0,199,199,387,1,2b,45,2,4,
,,,,,,,,,,,,,,,,,,,,,,,,,images/exp2b_trial_89_colour3_distractors4_r.png,r,2,010,001,2021-04-16_17h46.13.046,searchDisc4,2020.2.10,Win32,60,,,,space,0.10043,1,0,0.90456,,0,200,200,431,1,2b,89,3,4,
,,,,,,,,,,,,,,,,,,,,,,,,,images/exp1a_trial_37_colour0_distractors0_l.png,l,1,010,001,2021-04-16_17h46.13.046,searchDisc4,2020.2.10,Win32,60,,,,space,0.06647,2,0,0.803,,0,201,201,37,1,1a,37,0,0,
,,,,,,,,,,,,,,,,,,,,,,,,,images/exp2a_trial_27_colour2_distractors19_l.png,l,1,010,001,2021-04-16_17h46.13.046,searchDisc4,2020.2.10,Win32,60,,,,space,0.04914,1,1,1.12266,,0,202,202,255,1,2a,27,2,19,
,,,,,,,,,,,,,,,,,,,,,,,,,images/exp2c_trial_89_colour3_distractors4_r.png,r,2,010,001,2021-04-16_17h46.13.046,searchDisc4,2020.2.10,Win32,60,,,,space,0.10721,2,1,0.744215,,0,203,203,545,1,2c,89,3,4,
,,,,,,,,,,,,,,,,,,,,,,,,,images/exp2b_trial_36_colour0_distractors0_r.png,r,2,010,001,2021-04-16_17h46.13.046,searchDisc4,2020.2.10,Win32,60,,,,space,0.06706,2,1,0.98112,,0,204,204,378,1,2b,36,0,0,
,,,,,,,,,,,,,,,,,,,,,,,,,images/exp2c_trial_96_colour1_distractors9_l.png,l,1,010,001,2021-04-16_17h46.13.046,searchDisc4,2020.2.10,Win32,60,,,,space,0.06616,2,0,0.90074,,0,205,205,552,1,2c,96,1,9,
,,,,,,,,,,,,,,,,,,,,,,,,,images/exp1a_trial_74_colour0_distractors0_r.png,r,2,010,001,2021-04-16_17h46.13.046,searchDisc4,2020.2.10,Win32,60,,,,space,0.117035,1,0,0.905865,,0,206,206,74,1,1a,74,0,0,
,,,,,,,,,,,,,,,,,,,,,,,,,images/exp2c_trial_1_colour1_distractors4_r.png,r,2,010,001,2021-04-16_17h46.13.046,searchDisc4,2020.2.10,Win32,60,,,,space,0.08783,2,1,0.796275,,0,207,207,457,1,2c,1,1,4,
,,,,,,,,,,,,,,,,,,,,,,,,,images/exp2b_trial_96_colour1_distractors9_l.png,l,1,010,001,2021-04-16_17h46.13.046,searchDisc4,2020.2.10,Win32,60,,,,space,0.083025,1,1,0.757685,,0,208,208,438,1,2b,96,1,9,
,,,,,,,,,,,,,,,,,,,,,,,,,images/exp1b_trial_4_colour1_distractors31_r.png,r,2,010,001,2021-04-16_17h46.13.046,searchDisc4,2020.2.10,Win32,60,,,,space,0.118825,2,1,1.8098,,0,209,209,118,1,1b,4,1,31,
,,,,,,,,,,,,,,,,,,,,,,,,,images/exp2a_trial_52_colour3_distractors9_r.png,r,2,010,001,2021-04-16_17h46.13.046,searchDisc4,2020.2.10,Win32,60,,,,space,0.06049,2,1,0.714185,,0,210,210,280,1,2a,52,3,9,
,,,,,,,,,,,,,,,,,,,,,,,,,images/exp2c_trial_35_colour3_distractors43_l.png,l,1,010,001,2021-04-16_17h46.13.046,searchDisc4,2020.2.10,Win32,60,,,,space,0.11589,2,0,0.68046,,0,211,211,491,1,2c,35,3,43,
,,,,,,,,,,,,,,,,,,,,,,,,,images/exp2b_trial_86_colour2_distractors31_r.png,r,2,010,001,2021-04-16_17h46.13.046,searchDisc4,2020.2.10,Win32,60,,,,space,0.136815,1,0,1.086445,,0,212,212,428,1,2b,86,2,31,
,,,,,,,,,,,,,,,,,,,,,,,,,images/exp2b_trial_3_colour1_distractors19_r.png,r,2,010,001,2021-04-16_17h46.13.046,searchDisc4,2020.2.10,Win32,60,,,,space,0.09881,2,1,0.67845,,0,213,213,345,1,2b,3,1,19,
,,,,,,,,,,,,,,,,,,,,,,,,,images/exp1a_trial_76_colour1_distractors1_r.png,r,2,010,001,2021-04-16_17h46.13.046,searchDisc4,2020.2.10,Win32,60,,,,space,0.117355,1,0,0.857845,,0,214,214,76,1,1a,76,1,1,
,,,,,,,,,,,,,,,,,,,,,,,,,images/exp2a_trial_44_colour2_distractors1_r.png,r,2,010,001,2021-04-16_17h46.13.046,searchDisc4,2020.2.10,Win32,60,,,,space,0.14959,2,1,0.6641,,0,215,215,272,1,2a,44,2,1,
,,,,,,,,,,,,,,,,,,,,,,,,,images/exp1b_trial_22_colour1_distractors31_l.png,l,1,010,001,2021-04-16_17h46.13.046,searchDisc4,2020.2.10,Win32,60,,,,space,0.13329,2,0,1.17337,,0,216,216,136,1,1b,22,1,31,
,,,,,,,,,,,,,,,,,,,,,,,,,images/exp2b_trial_102_colour2_distractors9_l.png,l,1,010,001,2021-04-16_17h46.13.046,searchDisc4,2020.2.10,Win32,60,,,,space,0.13632,2,0,1.668055,,0,217,217,444,1,2b,102,2,9,
,,,,,,,,,,,,,,,,,,,,,,,,,images/exp2c_trial_85_colour2_distractors19_r.png,r,2,010,001,2021-04-16_17h46.13.046,searchDisc4,2020.2.10,Win32,60,,,,space,0.0679,2,1,0.91745,,0,218,218,541,1,2c,85,2,19,
,,,,,,,,,,,,,,,,,,,,,,,,,images/exp2a_trial_68_colour3_distractors1_l.png,l,1,010,001,2021-04-16_17h46.13.046,searchDisc4,2020.2.10,Win32,60,,,,space,0.13249,1,1,0.70169,,0,219,219,296,1,2a,68,3,1,
,,,,,,,,,,,,,,,,,,,,,,,,,images/exp2c_trial_81_colour1_distractors43_r.png,r,2,010,001,2021-04-16_17h46.13.046,searchDisc4,2020.2.10,Win32,60,,,,space,0.11521,2,1,0.70406,,0,220,220,537,1,2c,81,1,43,
,,,,,,,,,,,,,,,,,,,,,,,,,images/exp2b_trial_1_colour1_distractors4_r.png,r,2,010,001,2021-04-16_17h46.13.046,searchDisc4,2020.2.10,Win32,60,,,,space,0.10964,2,1,0.771615,,0,221,221,343,1,2b,1,1,4,
,,,,,,,,,,,,,,,,,,,,,,,,,images/exp1a_trial_43_colour1_distractors43_r.png,r,2,010,001,2021-04-16_17h46.13.046,searchDisc4,2020.2.10,Win32,60,,,,space,0.14913,2,1,0.89082,,0,222,222,43,1,1a,43,1,43,
,,,,,,,,,,,,,,,,,,,,,,,,,images/exp1a_trial_97_colour1_distractors19_l.png,l,1,010,001,2021-04-16_17h46.13.046,searchDisc4,2020.2.10,Win32,60,,,,space,0.077115,2,0,1.815075,,0,223,223,97,1,1a,97,1,19,
,,,,,,,,,,,,,,,,,,,,,,,,,images/exp1b_trial_102_colour2_distractors9_l.png,l,1,010,001,2021-04-16_17h46.13.046,searchDisc4,2020.2.10,Win32,60,,,,space,0.9992,1,1,1.034455,,0,224,224,216,1,1b,102,2,9,
,,,,,,,,,,,,,,,,,,,,,,,,,images/exp2b_trial_56_colour1_distractors1_l.png,l,1,010,001,2021-04-16_17h46.13.046,searchDisc4,2020.2.10,Win32,60,,,,space,0.131725,1,1,0.82294,,0,225,225,398,1,2b,56,1,1,
,,,,,,,,,,,,,,,,,,,,,,,,,images/exp2b_trial_34_colour3_distractors31_l.png,l,1,010,001,2021-04-16_17h46.13.046,searchDisc4,2020.2.10,Win32,60,,,,space,0.14876,2,0,1.324705,,0,226,226,376,1,2b,34,3,31,
,,,,,,,,,,,,,,,,,,,,,,,,,images/exp2b_trial_73_colour3_distractors43_l.png,l,1,010,001,2021-04-16_17h46.13.046,searchDisc4,2020.2.10,Win32,60,,,,space,0.10222,1,1,1.435415,,0,227,227,415,1,2b,73,3,43,
,,,,,,,,,,,,,,,,,,,,,,,,,images/exp1b_trial_30_colour3_distractors1_l.png,l,1,010,001,2021-04-16_17h46.13.046,searchDisc4,2020.2.10,Win32,60,,,,space,0.115755,2,0,1.406025,,0,228,228,144,1,1b,30,3,1,
,,,,,,,,,,,,,,,,,,,,,,,,,images/exp2c_trial_90_colour3_distractors9_r.png,r,2,010,001,2021-04-16_17h46.13.046,searchDisc4,2020.2.10,Win32,60,,,,space,0.215735,1,0,0.813765,,0,229,229,546,1,2c,90,3,9,
,,,,,,,,,,,,,,,,,,,,,,,,,images/exp1a_trial_99_colour1_distractors43_l.png,l,1,010,001,2021-04-16_17h46.13.046,searchDisc4,2020.2.10,Win32,60,,,,space,0.18586,1,1,0.83365,,0,230,230,99,1,1a,99,1,43,
,,,,,,,,,,,,,,,,,,,,,,,,,images/exp2b_trial_24_colour2_distractors1_l.png,l,1,010,001,2021-04-16_17h46.13.046,searchDisc4,2020.2.10,Win32,60,,,,space,0.10989,2,0,4.499725,,0,231,231,366,1,2b,24,2,1,
,,,,,,,,,,,,,,,,,,,,,,,,,images/exp2a_trial_11_colour2_distractors43_r.png,r,2,010,001,2021-04-16_17h46.13.046,searchDisc4,2020.2.10,Win32,60,,,,space,0.06512,2,1,1.207905,,0,232,232,239,1,2a,11,2,43,
,,,,,,,,,,,,,,,,,,,,,,,,,images/exp1b_trial_48_colour2_distractors31_r.png,r,2,010,001,2021-04-16_17h46.13.046,searchDisc4,2020.2.10,Win32,60,,,,space,0.108825,2,1,1.132995,,0,233,233,162,1,1b,48,2,31,
,,,,,,,,,,,,,,,,,,,,,,,,,images/exp2b_trial_19_colour1_distractors4_l.png,l,1,010,001,2021-04-16_17h46.13.046,searchDisc4,2020.2.10,Win32,60,,,,space,0.082935,1,1,0.994525,,0,234,234,361,1,2b,19,1,4,
,,,,,,,,,,,,,,,,,,,,,,,,,images/exp1a_trial_105_colour2_distractors43_l.png,l,1,010,001,2021-04-16_17h46.13.046,searchDisc4,2020.2.10,Win32,60,,,,space,0.092485,2,0,0.770615,,0,235,235,105,1,1a,105,2,43,
,,,,,,,,,,,,,,,,,,,,,,,,,images/exp2b_trial_90_colour3_distractors9_r.png,r,2,010,001,2021-04-16_17h46.13.046,searchDisc4,2020.2.10,Win32,60,,,,space,0.13217,2,1,1.39552,,0,236,236,432,1,2b,90,3,9,
,,,,,,,,,,,,,,,,,,,,,,,,,images/exp2a_trial_28_colour2_distractors31_l.png,l,1,010,001,2021-04-16_17h46.13.046,searchDisc4,2020.2.10,Win32,60,,,,space,0.080625,1,1,1.500095,,0,237,237,256,1,2a,28,2,31,
,,,,,,,,,,,,,,,,,,,,,,,,,images/exp1a_trial_26_colour2_distractors9_l.png,l,1,010,001,2021-04-16_17h46.13.046,searchDisc4,2020.2.10,Win32,60,,,,space,0.14917,2,0,1.701675,,0,238,238,26,1,1a,26,2,9,
,,,,,,,,,,,,,,,,,,,,,,,,,images/exp2c_trial_64_colour2_distractors9_l.png,l,1,010,001,2021-04-16_17h46.13.046,searchDisc4,2020.2.10,Win32,60,,,,space,0.0621,1,1,1.48261,space,0,239,239,520,1,2c,64,2,9,0.10583
,,,,,,,,,,,,,,,,,,,,,,,,,images/exp1a_trial_90_colour3_distractors9_r.png,r,2,010,001,2021-04-16_17h46.13.046,searchDisc4,2020.2.10,Win32,60,,,,space,0.7913,2,1,1.146605,,0,240,240,90,1,1a,90,3,9,
,,,,,,,,,,,,,,,,,,,,,,,,,images/exp2a_trial_78_colour1_distractors9_r.png,r,2,010,001,2021-04-16_17h46.13.046,searchDisc4,2020.2.10,Win32,60,,,,space,0.166895,1,0,2.10739,,0,241,241,306,1,2a,78,1,9,
,,,,,,,,,,,,,,,,,,,,,,,,,images/exp2c_trial_92_colour3_distractors31_r.png,r,2,010,001,2021-04-16_17h46.13.046,searchDisc4,2020.2.10,Win32,60,,,,space,0.115955,2,1,0.830435,,0,242,242,548,1,2c,92,3,31,
,,,,,,,,,,,,,,,,,,,,,,,,,images/exp1a_trial_83_colour2_distractors4_r.png,r,2,010,001,2021-04-16_17h46.13.046,searchDisc4,2020.2.10,Win32,60,,,,space,0.089185,1,0,0.968105,,0,243,243,83,1,1a,83,2,4,
,,,,,,,,,,,,,,,,,,,,,,,,,images/exp1b_trial_93_colour3_distractors43_r.png,r,2,010,001,2021-04-16_17h46.13.046,searchDisc4,2020.2.10,Win32,60,,,,space,0.09908,2,1,1.77803,,0,244,244,207,1,1b,93,3,43,
,,,,,,,,,,,,,,,,,,,,,,,,,images/exp2b_trial_25_colour2_distractors4_l.png,l,1,010,001,2021-04-16_17h46.13.046,searchDisc4,2020.2.10,Win32,60,,,,space,0.08136,1,1,0.802115,,0,245,245,367,1,2b,25,2,4,
,,,,,,,,,,,,,,,,,,,,,,,,,images/exp1b_trial_106_colour3_distractors1_l.png,l,1,010,001,2021-04-16_17h46.13.046,searchDisc4,2020.2.10,Win32,60,,,,space,0.24931,2,0,1.457345,,0,246,246,220,1,1b,106,3,1,
,,,,,,,,,,,,,,,,,,,,,,,,,images/exp1a_trial_88_colour3_distractors1_r.png,r,2,010,001,2021-04-16_17h46.13.046,searchDisc4,2020.2.10,Win32,60,,,,space,0.23304,1,0,0.87393,,0,247,247,88,1,1a,88,3,1,
,,,,,,,,,,,,,,,,,,,,,,,,,images/exp2b_trial_91_colour3_distractors19_r.png,r,2,010,001,2021-04-16_17h46.13.046,searchDisc4,2020.2.10,Win32,60,,,,space,0.12038,2,1,1.264515,,0,248,248,433,1,2b,91,3,19,
,,,,,,,,,,,,,,,,,,,,,,,,,images/exp1a_trial_112_colour0_distractors0_r.png,r,2,010,001,2021-04-16_17h46.13.046,searchDisc4,2020.2.10,Win32,60,,,,space,0.1109,1,0,0.812755,,0,249,249,112,1,1a,112,0,0,
,,,,,,,,,,,,,,,,,,,,,,,,,images/exp2c_trial_10_colour2_distractors31_r.png,r,2,010,001,2021-04-16_17h46.13.046,searchDisc4,2020.2.10,Win32,60,,,,space,0.098895,2,1,0.72338,,0,250,250,466,1,2c,10,2,31,
,,,,,,,,,,,,,,,,,,,,,,,,,images/exp1a_trial_59_colour1_distractors19_l.png,l,1,010,001,2021-04-16_17h46.13.046,searchDisc4,2020.2.10,Win32,60,,,,space,0.062265,2,0,0.88658,,0,251,251,59,1,1a,59,1,19,
,,,,,,,,,,,,,,,,,,,,,,,,,images/exp2a_trial_42_colour1_distractors31_r.png,r,2,010,001,2021-04-16_17h46.13.046,searchDisc4,2020.2.10,Win32,60,,,,space,0.06585,2,1,0.793895,,0,252,252,270,1,2a,42,1,31,
,,,,,,,,,,,,,,,,,,,,,,,,,images/exp2b_trial_87_colour2_distractors43_r.png,r,2,010,001,2021-04-16_17h46.13.046,searchDisc4,2020.2.10,Win32,60,,,,space,0.04973,1,0,0.73775,,0,253,253,429,1,2b,87,2,43,
,,,,,,,,,,,,,,,,,,,,,,,,,images/exp1b_trial_79_colour1_distractors19_r.png,r,2,010,001,2021-04-16_17h46.13.046,searchDisc4,2020.2.10,Win32,60,,,,space,0.04925,2,1,1.482875,,0,254,254,193,1,1b,79,1,19,
,,,,,,,,,,,,,,,,,,,,,,,,,images/exp1b_trial_107_colour3_distractors4_l.png,l,1,010,001,2021-04-16_17h46.13.046,searchDisc4,2020.2.10,Win32,60,,,,space,0.00087,2,0,1.58661,,0,255,255,221,1,1b,107,3,4,
,,,,,,,,,,,,,,,,,,,,,,,,,images/exp1a_trial_111_colour3_distractors43_l.png,l,1,010,001,2021-04-16_17h46.13.046,searchDisc4,2020.2.10,Win32,60,,,,space,0.082875,1,1,0.73887,,0,256,256,111,1,1a,111,3,43,
,,,,,,,,,,,,,,,,,,,,,,,,,images/exp2c_trial_52_colour3_distractors9_r.png,r,2,010,001,2021-04-16_17h46.13.046,searchDisc4,2020.2.10,Win32,60,,,,space,0.031905,2,1,0.63971,,0,257,257,508,1,2c,52,3,9,
,,,,,,,,,,,,,,,,,,,,,,,,,images/exp2c_trial_110_colour3_distractors31_l.png,l,1,010,001,2021-04-16_17h46.13.046,searchDisc4,2020.2.10,Win32,60,,,,space,0.066075,1,1,0.95111,,0,258,258,566,1,2c,110,3,31,
,,,,,,,,,,,,,,,,,,,,,,,,,images/exp2a_trial_47_colour2_distractors19_r.png,r,2,010,001,2021-04-16_17h46.13.046,searchDisc4,2020.2.10,Win32,60,,,,space,0.60107,2,1,0.712315,,0,259,259,275,1,2a,47,2,19,
,,,,,,,,,,,,,,,,,,,,,,,,,images/exp1a_trial_13_colour3_distractors4_r.png,r,2,010,001,2021-04-16_17h46.13.046,searchDisc4,2020.2.10,Win32,60,,,,space,0.165455,2,1,0.82906,,0,260,260,13,1,1a,13,3,4,
,,,,,,,,,,,,,,,,,,,,,,,,,images/exp2a_trial_60_colour1_distractors31_l.png,l,1,010,001,2021-04-16_17h46.13.046,searchDisc4,2020.2.10,Win32,60,,,,space,0.13181,2,0,1.81187,,0,261,261,288,1,2a,60,1,31,
,,,,,,,,,,,,,,,,,,,,,,,,,images/exp2a_trial_54_colour3_distractors31_r.png,r,2,010,001,2021-04-16_17h46.13.046,searchDisc4,2020.2.10,Win32,60,,,,space,0.14222,2,1,1.230945,,0,262,262,282,1,2a,54,3,31,
,,,,,,,,,,,,,,,,,,,,,,,,,images/exp2b_trial_30_colour3_distractors1_l.png,l,1,010,001,2021-04-16_17h46.13.046,searchDisc4,2020.2.10,Win32,60,,,,space,0.0642,2,0,0.671525,,0,263,263,372,1,2b,30,3,1,
,,,,,,,,,,,,,,,,,,,,,,,,,images/exp2b_trial_44_colour2_distractors1_r.png,r,2,010,001,2021-04-16_17h46.13.046,searchDisc4,2020.2.10,Win32,60,,,,space,0.06517,2,1,0.58453,,0,264,264,386,1,2b,44,2,1,
,,,,,,,,,,,,,,,,,,,,,,,,,images/exp2a_trial_9_colour2_distractors19_r.png,r,2,010,001,2021-04-16_17h46.13.046,searchDisc4,2020.2.10,Win32,60,,,,space,0.06557,1,0,0.882335,,0,265,265,237,1,2a,9,2,19,
,,,,,,,,,,,,,,,,,,,,,,,,,images/exp2a_trial_73_colour3_distractors43_l.png,l,1,010,001,2021-04-16_17h46.13.046,searchDisc4,2020.2.10,Win32,60,,,,space,0.09937,2,0,0.689185,,0,266,266,301,1,2a,73,3,43,
,,,,,,,,,,,,,,,,,,,,,,,,,images/exp1b_trial_52_colour3_distractors9_r.png,r,2,010,001,2021-04-16_17h46.13.046,searchDisc4,2020.2.10,Win32,60,,,,space,0.082765,2,1,0.898025,,0,267,267,166,1,1b,52,3,9,
,,,,,,,,,,,,,,,,,,,,,,,,,images/exp1b_trial_109_colour3_distractors19_l.png,l,1,010,001,2021-04-16_17h46.13.046,searchDisc4,2020.2.10,Win32,60,,,,space,0.00077,2,0,1.059355,,0,268,268,223,1,1b,109,3,19,
,,,,,,,,,,,,,,,,,,,,,,,,,images/exp2b_trial_66_colour2_distractors31_l.png,l,1,010,001,2021-04-16_17h46.13.046,searchDisc4,2020.2.10,Win32,60,,,,space,0.03547,1,1,0.980155,,0,269,269,408,1,2b,66,2,31,
,,,,,,,,,,,,,,,,,,,,,,,,,images/exp2c_trial_75_colour0_distractors0_l.png,l,1,010,001,2021-04-16_17h46.13.046,searchDisc4,2020.2.10,Win32,60,,,,space,0.09888,2,0,0.653545,,0,270,270,531,1,2c,75,0,0,
,,,,,,,,,,,,,,,,,,,,,,,,,images/exp2b_trial_51_colour3_distractors4_r.png,r,2,010,001,2021-04-16_17h46.13.046,searchDisc4,2020.2.10,Win32,60,,,,space,0.03328,2,1,1.78445,,0,271,271,393,1,2b,51,3,4,
,,,,,,,,,,,,,,,,,,,,,,,,,images/exp2a_trial_29_colour2_distractors43_l.png,l,1,010,001,2021-04-16_17h46.13.046,searchDisc4,2020.2.10,Win32,60,,,,space,0.716225,2,0,0.93312,,0,272,272,257,1,2a,29,2,43,
,,,,,,,,,,,,,,,,,,,,,,,,,images/exp1b_trial_62_colour2_distractors1_l.png,l,1,010,001,2021-04-16_17h46.13.046,searchDisc4,2020.2.10,Win32,60,,,,space,0.114865,2,0,0.872335,,0,273,273,176,1,1b,62,2,1,
,,,,,,,,,,,,,,,,,,,,,,,,,images/exp1b_trial_112_colour0_distractors0_r.png,r,2,010,001,2021-04-16_17h46.13.046,searchDisc4,2020.2.10,Win32,60,,,,space,0.0489,2,1,0.785485,,0,274,274,226,1,1b,112,0,0,
,,,,,,,,,,,,,,,,,,,,,,,,,images/exp2c_trial_112_colour0_distractors0_r.png,r,2,010,001,2021-04-16_17h46.13.046,searchDisc4,2020.2.10,Win32,60,,,,space,0.08853,1,0,0.864135,,0,275,275,568,1,2c,112,0,0,
,,,,,,,,,,,,,,,,,,,,,,,,,images/exp2c_trial_13_colour3_distractors4_r.png,r,2,010,001,2021-04-16_17h46.13.046,searchDisc4,2020.2.10,Win32,60,,,,space,0.08467,2,1,0.734965,,0,276,276,469,1,2c,13,3,4,
,,,,,,,,,,,,,,,,,,,,,,,,,images/exp2c_trial_63_colour2_distractors4_l.png,l,1,010,001,2021-04-16_17h46.13.046,searchDisc4,2020.2.10,Win32,60,,,,space,0.131795,2,0,0.78823,,0,277,277,519,1,2c,63,2,4,
,,,,,,,,,,,,,,,,,,,,,,,,,images/exp1a_trial_21_colour1_distractors19_l.png,l,1,010,001,2021-04-16_17h46.13.046,searchDisc4,2020.2.10,Win32,60,,,,space,0.09613,1,1,0.788125,,0,278,278,21,1,1a,21,1,19,
,,,,,,,,,,,,,,,,,,,,,,,,,images/exp2b_trial_15_colour3_distractors19_r.png,r,2,010,001,2021-04-16_17h46.13.046,searchDisc4,2020.2.10,Win32,60,,,,space,0.105215,2,1,1.14532,,0,279,279,357,1,2b,15,3,19,
,,,,,,,,,,,,,,,,,,,,,,,,,images/exp2c_trial_79_colour1_distractors19_r.png,r,2,010,001,2021-04-16_17h46.13.046,searchDisc4,2020.2.10,Win32,60,,,,space,0.16596,2,1,0.634995,,0,280,280,535,1,2c,79,1,19,
,,,,,,,,,,,,,,,,,,,,,,,,,images/exp2b_trial_104_colour2_distractors31_l.png,l,1,010,001,2021-04-16_17h46.13.046,searchDisc4,2020.2.10,Win32,60,,,,space,0.08438,1,1,0.780485,,0,281,281,446,1,2b,104,2,31,
,,,,,,,,,,,,,,,,,,,,,,,,,images/exp2c_trial_27_colour2_distractors19_l.png,l,1,010,001,2021-04-16_17h46.13.046,searchDisc4,2020.2.10,Win32,60,,,,space,0.102815,1,1,0.982755,,0,282,282,483,1,2c,27,2,19,
,,,,,,,,,,,,,,,,,,,,,,,,,images/exp1b_trial_23_colour1_distractors43_l.png,l,1,010,001,2021-04-16_17h46.13.046,searchDisc4,2020.2.10,Win32,60,,,,space,0.064635,2,0,3.268585,,0,283,283,137,1,1b,23,1,43,
,,,,,,,,,,,,,,,,,,,,,,,,,images/exp2c_trial_15_colour3_distractors19_r.png,r,2,010,001,2021-04-16_17h46.13.046,searchDisc4,2020.2.10,Win32,60,,,,space,0.047095,2,1,0.75215,,0,284,284,471,1,2c,15,3,19,
,,,,,,,,,,,,,,,,,,,,,,,,,images/exp1b_trial_11_colour2_distractors43_r.png,r,2,010,001,2021-04-16_17h46.13.046,searchDisc4,2020.2.10,Win32,60,,,,space,0.0693,1,0,4.318815,,0,285,285,125,1,1b,11,2,43,
,,,,,,,,,,,,,,,,,,,,,,,,,images/exp1b_trial_60_colour1_distractors31_l.png,l,1,010,001,2021-04-16_17h46.13.046,searchDisc4,2020.2.10,Win32,60,,,,space,0.132495,1,1,2.682585,,0,286,286,174,1,1b,60,1,31,
,,,,,,,,,,,,,,,,,,,,,,,,,images/exp2b_trial_4_colour1_distractors31_r.png,r,2,010,001,2021-04-16_17h46.13.046,searchDisc4,2020.2.10,Win32,60,,,,space,0.086305,2,1,0.840345,,0,287,287,346,1,2b,4,1,31,
,,,,,,,,,,,,,,,,,,,,,,,,,images/exp1a_trial_51_colour3_distractors4_r.png,r,2,010,001,2021-04-16_17h46.13.046,searchDisc4,2020.2.10,Win32,60,,,,space,0.065655,2,1,1.01827,,0,288,288,51,1,1a,51,3,4,
,,,,,,,,,,,,,,,,,,,,,,,,,images/exp1b_trial_77_colour1_distractors4_r.png,r,2,010,001,2021-04-16_17h46.13.046,searchDisc4,2020.2.10,Win32,60,,,,space,0.08493,2,1,0.80131,,0,289,289,191,1,1b,77,1,4,
,,,,,,,,,,,,,,,,,,,,,,,,,images/exp2c_trial_23_colour1_distractors43_l.png,l,1,010,001,2021-04-16_17h46.13.046,searchDisc4,2020.2.10,Win32,60,,,,space,0.06594,2,0,0.930095,,0,290,290,479,1,2c,23,1,43,
,,,,,,,,,,,,,,,,,,,,,,,,,images/exp1a_trial_42_colour1_distractors31_r.png,r,2,010,001,2021-04-16_17h46.13.046,searchDisc4,2020.2.10,Win32,60,,,,space,0.072985,1,0,0.84811,,0,291,291,42,1,1a,42,1,31,
,,,,,,,,,,,,,,,,,,,,,,,,,images/exp2a_trial_39_colour1_distractors4_r.png,r,2,010,001,2021-04-16_17h46.13.046,searchDisc4,2020.2.10,Win32,60,,,,space,0.08178,1,0,1.191575,,0,292,292,267,1,2a,39,1,4,
,,,,,,,,,,,,,,,,,,,,,,,,,images/exp2c_trial_59_colour1_distractors19_l.png,l,1,010,001,2021-04-16_17h46.13.046,searchDisc4,2020.2.10,Win32,60,,,,space,0.06585,1,1,0.71009,,0,293,293,515,1,2c,59,1,19,
,,,,,,,,,,,,,,,,,,,,,,,,,images/exp1b_trial_65_colour2_distractors19_l.png,l,1,010,001,2021-04-16_17h46.13.046,searchDisc4,2020.2.10,Win32,60,,,,space,0.116825,1,1,1.771785,,0,294,294,179,1,1b,65,2,19,
,,,,,,,,,,,,,,,,,,,,,,,,,images/exp2a_trial_1_colour1_distractors4_r.png,r,2,010,001,2021-04-16_17h46.13.046,searchDisc4,2020.2.10,Win32,60,,,,space,0.09764,2,1,0.833735,,0,295,295,229,1,2a,1,1,4,
,,,,,,,,,,,,,,,,,,,,,,,,,images/exp2b_trial_27_colour2_distractors19_l.png,l,1,010,001,2021-04-16_17h46.13.046,searchDisc4,2020.2.10,Win32,60,,,,space,0.06531,2,0,0.62392,,0,296,296,369,1,2b,27,2,19,
,,,,,,,,,,,,,,,,,,,,,,,,,images/exp2b_trial_55_colour3_distractors43_r.png,r,2,010,001,2021-04-16_17h46.13.046,searchDisc4,2020.2.10,Win32,60,,,,space,0.05504,2,1,1.08226,,0,297,297,397,1,2b,55,3,43,
,,,,,,,,,,,,,,,,,,,,,,,,,images/exp2c_trial_9_colour2_distractors19_r.png,r,2,010,001,2021-04-16_17h46.13.046,searchDisc4,2020.2.10,Win32,60,,,,space,0.01635,2,1,0.756895,,0,298,298,465,1,2c,9,2,19,
,,,,,,,,,,,,,,,,,,,,,,,,,images/exp2c_trial_30_colour3_distractors1_l.png,l,1,010,001,2021-04-16_17h46.13.046,searchDisc4,2020.2.10,Win32,60,,,,space,0.084965,2,0,0.650785,space,0,299,299,486,1,2c,30,3,1,0.02903
,,,,,,,,,,,,,,,,,,,,,,,,,images/exp2a_trial_32_colour3_distractors9_l.png,l,1,010,001,2021-04-16_17h46.13.046,searchDisc4,2020.2.10,Win32,60,,,,space,0.845985,2,0,0.634205,,0,300,300,260,1,2a,32,3,9,
,,,,,,,,,,,,,,,,,,,,,,,,,images/exp1a_trial_84_colour2_distractors9_r.png,r,2,010,001,2021-04-16_17h46.13.046,searchDisc4,2020.2.10,Win32,60,,,,space,0.084155,2,1,0.723725,,0,301,301,84,1,1a,84,2,9,
,,,,,,,,,,,,,,,,,,,,,,,,,images/exp2a_trial_94_colour1_distractors1_l.png,l,1,010,001,2021-04-16_17h46.13.046,searchDisc4,2020.2.10,Win32,60,,,,space,0.082445,1,1,1.1589,,0,302,302,322,1,2a,94,1,1,
,,,,,,,,,,,,,,,,,,,,,,,,,images/exp1b_trial_0_colour1_distractors1_r.png,r,2,010,001,2021-04-16_17h46.13.046,searchDisc4,2020.2.10,Win32,60,,,,space,0.051275,2,1,1.11168,,0,303,303,114,1,1b,0,1,1,
,,,,,,,,,,,,,,,,,,,,,,,,,images/exp1b_trial_21_colour1_distractors19_l.png,l,1,010,001,2021-04-16_17h46.13.046,searchDisc4,2020.2.10,Win32,60,,,,space,0.1052,1,1,1.199775,,0,304,304,135,1,1b,21,1,19,
,,,,,,,,,,,,,,,,,,,,,,,,,images/exp1b_trial_66_colour2_distractors31_l.png,l,1,010,001,2021-04-16_17h46.13.046,searchDisc4,2020.2.10,Win32,60,,,,space,0.04961,2,0,1.273345,,0,305,305,180,1,1b,66,2,31,
,,,,,,,,,,,,,,,,,,,,,,,,,images/exp2c_trial_44_colour2_distractors1_r.png,r,2,010,001,2021-04-16_17h46.13.046,searchDisc4,2020.2.10,Win32,60,,,,space,0.021425,1,0,1.11311,,0,306,306,500,1,2c,44,2,1,
,,,,,,,,,,,,,,,,,,,,,,,,,images/exp2c_trial_49_colour2_distractors43_r.png,r,2,010,001,2021-04-16_17h46.13.046,searchDisc4,2020.2.10,Win32,60,,,,space,0.067325,2,1,1.04044,,0,307,307,505,1,2c,49,2,43,
,,,,,,,,,,,,,,,,,,,,,,,,,images/exp2a_trial_89_colour3_distractors4_r.png,r,2,010,001,2021-04-16_17h46.13.046,searchDisc4,2020.2.10,Win32,60,,,,space,0.099125,2,1,0.81135,,0,308,308,317,1,2a,89,3,4,
,,,,,,,,,,,,,,,,,,,,,,,,,images/exp2c_trial_55_colour3_distractors43_r.png,r,2,010,001,2021-04-16_17h46.13.046,searchDisc4,2020.2.10,Win32,60,,,,space,0.102595,2,1,0.78878,,0,309,309,511,1,2c,55,3,43,
,,,,,,,,,,,,,,,,,,,,,,,,,images/exp1a_trial_110_colour3_distractors31_l.png,l,1,010,001,2021-04-16_17h46.13.046,searchDisc4,2020.2.10,Win32,60,,,,space,0.20006,2,0,0.8356,,0,310,310,110,1,1a,110,3,31,
,,,,,,,,,,,,,,,,,,,,,,,,,images/exp2a_trial_22_colour1_distractors31_l.png,l,1,010,001,2021-04-16_17h46.13.046,searchDisc4,2020.2.10,Win32,60,,,,space,0.132055,1,1,0.933115,,0,311,311,250,1,2a,22,1,31,
,,,,,,,,,,,,,,,,,,,,,,,,,images/exp2b_trial_77_colour1_distractors4_r.png,r,2,010,001,2021-04-16_17h46.13.046,searchDisc4,2020.2.10,Win32,60,,,,space,0.071705,2,1,0.813675,,0,312,312,419,1,2b,77,1,4,
,,,,,,,,,,,,,,,,,,,,,,,,,images/exp2a_trial_53_colour3_distractors19_r.png,r,2,010,001,2021-04-16_17h46.13.046,searchDisc4,2020.2.10,Win32,60,,,,space,0.085235,1,0,0.65392,,0,313,313,281,1,2a,53,3,19,
,,,,,,,,,,,,,,,,,,,,,,,,,images/exp1a_trial_53_colour3_distractors19_r.png,r,2,010,001,2021-04-16_17h46.13.046,searchDisc4,2020.2.10,Win32,60,,,,space,0.133705,2,1,1.706225,,0,314,314,53,1,1a,53,3,19,
,,,,,,,,,,,,,,,,,,,,,,,,,images/exp2c_trial_3_colour1_distractors19_r.png,r,2,010,001,2021-04-16_17h46.13.046,searchDisc4,2020.2.10,Win32,60,,,,space,0.093775,1,0,0.800505,,0,315,315,459,1,2c,3,1,19,
,,,,,,,,,,,,,,,,,,,,,,,,,images/exp1a_trial_17_colour3_distractors43_r.png,r,2,010,001,2021-04-16_17h46.13.046,searchDisc4,2020.2.10,Win32,60,,,,space,0.09918,1,0,1.021405,,0,316,316,17,1,1a,17,3,43,
,,,,,,,,,,,,,,,,,,,,,,,,,images/exp2b_trial_101_colour2_distractors4_l.png,l,1,010,001,2021-04-16_17h46.13.046,searchDisc4,2020.2.10,Win32,60,,,,space,0.10666,1,1,0.863025,,0,317,317,443,1,2b,101,2,4,
,,,,,,,,,,,,,,,,,,,,,,,,,images/exp1b_trial_96_colour1_distractors9_l.png,l,1,010,001,2021-04-16_17h46.13.046,searchDisc4,2020.2.10,Win32,60,,,,space,0.08232,1,1,0.99199,,0,318,318,210,1,1b,96,1,9,
,,,,,,,,,,,,,,,,,,,,,,,,,images/exp1a_trial_52_colour3_distractors9_r.png,r,2,010,001,2021-04-16_17h46.13.046,searchDisc4,2020.2.10,Win32,60,,,,space,0.04938,2,1,0.74705,,0,319,319,52,1,1a,52,3,9,
,,,,,,,,,,,,,,,,,,,,,,,,,images/exp2b_trial_71_colour3_distractors19_l.png,l,1,010,001,2021-04-16_17h46.13.046,searchDisc4,2020.2.10,Win32,60,,,,space,0.13301,1,1,0.92993,,0,320,320,413,1,2b,71,3,19,
,,,,,,,,,,,,,,,,,,,,,,,,,images/exp2a_trial_83_colour2_distractors4_r.png,r,2,010,001,2021-04-16_17h46.13.046,searchDisc4,2020.2.10,Win32,60,,,,space,0.112865,1,0,0.79041,,0,321,321,311,1,2a,83,2,4,
,,,,,,,,,,,,,,,,,,,,,,,,,images/exp2a_trial_96_colour1_distractors9_l.png,l,1,010,001,2021-04-16_17h46.13.046,searchDisc4,2020.2.10,Win32,60,,,,space,0.06322,1,1,0.984385,,0,322,322,324,1,2a,96,1,9,
,,,,,,,,,,,,,,,,,,,,,,,,,images/exp1b_trial_94_colour1_distractors1_l.png,l,1,010,001,2021-04-16_17h46.13.046,searchDisc4,2020.2.10,Win32,60,,,,space,0.08655,1,1,0.935035,,0,323,323,208,1,1b,94,1,1,
,,,,,,,,,,,,,,,,,,,,,,,,,images/exp1a_trial_25_colour2_distractors4_l.png,l,1,010,001,2021-04-16_17h46.13.046,searchDisc4,2020.2.10,Win32,60,,,,space,0.101825,1,1,2.86153,,0,324,324,25,1,1a,25,2,4,
,,,,,,,,,,,,,,,,,,,,,,,,,images/exp1a_trial_101_colour2_distractors4_l.png,l,1,010,001,2021-04-16_17h46.13.046,searchDisc4,2020.2.10,Win32,60,,,,space,0.131555,1,1,0.90752,,0,325,325,101,1,1a,101,2,4,
,,,,,,,,,,,,,,,,,,,,,,,,,images/exp2c_trial_97_colour1_distractors19_l.png,l,1,010,001,2021-04-16_17h46.13.046,searchDisc4,2020.2.10,Win32,60,,,,space,0.10511,2,0,0.63385,,0,326,326,553,1,2c,97,1,19,
,,,,,,,,,,,,,,,,,,,,,,,,,images/exp2c_trial_60_colour1_distractors31_l.png,l,1,010,001,2021-04-16_17h46.13.046,searchDisc4,2020.2.10,Win32,60,,,,space,0.03793,2,0,1.03067,,0,327,327,516,1,2c,60,1,31,
,,,,,,,,,,,,,,,,,,,,,,,,,images/exp1a_trial_3_colour1_distractors19_r.png,r,2,010,001,2021-04-16_17h46.13.046,searchDisc4,2020.2.10,Win32,60,,,,space,0.09909,2,1,0.624065,,0,328,328,3,1,1a,3,1,19,
,,,,,,,,,,,,,,,,,,,,,,,,,images/exp2a_trial_105_colour2_distractors43_l.png,l,1,010,001,2021-04-16_17h46.13.046,searchDisc4,2020.2.10,Win32,60,,,,space,0.065895,2,0,0.765145,,0,329,329,333,1,2a,105,2,43,
,,,,,,,,,,,,,,,,,,,,,,,,,images/exp1a_trial_61_colour1_distractors43_l.png,l,1,010,001,2021-04-16_17h46.13.046,searchDisc4,2020.2.10,Win32,60,,,,space,0.00077,2,0,0.92037,,0,330,330,61,1,1a,61,1,43,
,,,,,,,,,,,,,,,,,,,,,,,,,images/exp2a_trial_5_colour1_distractors43_r.png,r,2,010,001,2021-04-16_17h46.13.046,searchDisc4,2020.2.10,Win32,60,,,,space,0.093195,2,1,0.96604,,0,331,331,233,1,2a,5,1,43,
,,,,,,,,,,,,,,,,,,,,,,,,,images/exp1b_trial_57_colour1_distractors4_l.png,l,1,010,001,2021-04-16_17h46.13.046,searchDisc4,2020.2.10,Win32,60,,,,space,0.10242,2,0,1.236285,,0,332,332,171,1,1b,57,1,4,
,,,,,,,,,,,,,,,,,,,,,,,,,images/exp2a_trial_93_colour3_distractors43_r.png,r,2,010,001,2021-04-16_17h46.13.046,searchDisc4,2020.2.10,Win32,60,,,,space,0.06467,1,0,0.75044,,0,333,333,321,1,2a,93,3,43,
,,,,,,,,,,,,,,,,,,,,,,,,,images/exp1a_trial_72_colour3_distractors31_l.png,l,1,010,001,2021-04-16_17h46.13.046,searchDisc4,2020.2.10,Win32,60,,,,space,0.06686,2,0,0.603885,,0,334,334,72,1,1a,72,3,31,
,,,,,,,,,,,,,,,,,,,,,,,,,images/exp1a_trial_10_colour2_distractors31_r.png,r,2,010,001,2021-04-16_17h46.13.046,searchDisc4,2020.2.10,Win32,60,,,,space,0.064345,2,1,0.97936,,0,335,335,10,1,1a,10,2,31,
,,,,,,,,,,,,,,,,,,,,,,,,,images/exp2c_trial_11_colour2_distractors43_r.png,r,2,010,001,2021-04-16_17h46.13.046,searchDisc4,2020.2.10,Win32,60,,,,space,0.11895,2,1,1.10333,,0,336,336,467,1,2c,11,2,43,
,,,,,,,,,,,,,,,,,,,,,,,,,images/exp2a_trial_74_colour0_distractors0_r.png,r,2,010,001,2021-04-16_17h46.13.046,searchDisc4,2020.2.10,Win32,60,,,,space,0.04947,1,0,0.878425,,0,337,337,302,1,2a,74,0,0,
,,,,,,,,,,,,,,,,,,,,,,,,,images/exp1b_trial_71_colour3_distractors19_l.png,l,1,010,001,2021-04-16_17h46.13.046,searchDisc4,2020.2.10,Win32,60,,,,space,0.09704,2,0,1.440175,,0,338,338,185,1,1b,71,3,19,
,,,,,,,,,,,,,,,,,,,,,,,,,images/exp2c_trial_40_colour1_distractors9_r.png,r,2,010,001,2021-04-16_17h46.13.046,searchDisc4,2020.2.10,Win32,60,,,,space,0.06568,1,0,0.745505,,0,339,339,496,1,2c,40,1,9,
,,,,,,,,,,,,,,,,,,,,,,,,,images/exp2c_trial_25_colour2_distractors4_l.png,l,1,010,001,2021-04-16_17h46.13.046,searchDisc4,2020.2.10,Win32,60,,,,space,0.133215,1,1,1.034335,,0,340,340,481,1,2c,25,2,4,
,,,,,,,,,,,,,,,,,,,,,,,,,images/exp1a_trial_20_colour1_distractors9_l.png,l,1,010,001,2021-04-16_17h46.13.046,searchDisc4,2020.2.10,Win32,60,,,,space,0.06586,2,0,0.797265,,0,341,341,20,1,1a,20,1,9,
,,,,,,,,,,,,,,,,,,,,,,,,,images/exp2c_trial_29_colour2_distractors43_l.png,l,1,010,001,2021-04-16_17h46.13.046,searchDisc4,2020.2.10,Win32,60,,,,space,0.021735,2,0,1.213745,,0,342,342,485,1,2c,29,2,43,
,,,,,,,,,,,,,,,,,,,,,,,,,images/exp1b_trial_88_colour3_distractors1_r.png,r,2,010,001,2021-04-16_17h46.13.046,searchDisc4,2020.2.10,Win32,60,,,,space,0.03242,2,1,0.812705,,0,343,343,202,1,1b,88,3,1,
,,,,,,,,,,,,,,,,,,,,,,,,,images/exp2c_trial_91_colour3_distractors19_r.png,r,2,010,001,2021-04-16_17h46.13.046,searchDisc4,2020.2.10,Win32,60,,,,space,0.964715,2,1,1.01715,,0,344,344,547,1,2c,91,3,19,
,,,,,,,,,,,,,,,,,,,,,,,,,images/exp1a_trial_77_colour1_distractors4_r.png,r,2,010,001,2021-04-16_17h46.13.046,searchDisc4,2020.2.10,Win32,60,,,,space,0.081245,1,0,2.12514,,0,345,345,77,1,1a,77,1,4,
,,,,,,,,,,,,,,,,,,,,,,,,,images/exp2b_trial_5_colour1_distractors43_r.png,r,2,010,001,2021-04-16_17h46.13.046,searchDisc4,2020.2.10,Win32,60,,,,space,0.048935,2,1,0.738935,,0,346,346,347,1,2b,5,1,43,
,,,,,,,,,,,,,,,,,,,,,,,,,images/exp1b_trial_54_colour3_distractors31_r.png,r,2,010,001,2021-04-16_17h46.13.046,searchDisc4,2020.2.10,Win32,60,,,,space,0.01586,2,1,2.60845,,0,347,347,168,1,1b,54,3,31,
,,,,,,,,,,,,,,,,,,,,,,,,,images/exp1b_trial_24_colour2_distractors1_l.png,l,1,010,001,2021-04-16_17h46.13.046,searchDisc4,2020.2.10,Win32,60,,,,space,0.000755,1,1,1.141355,,0,348,348,138,1,1b,24,2,1,
,,,,,,,,,,,,,,,,,,,,,,,,,images/exp2b_trial_88_colour3_distractors1_r.png,r,2,010,001,2021-04-16_17h46.13.046,searchDisc4,2020.2.10,Win32,60,,,,space,0.01598,2,1,1.610985,,0,349,349,430,1,2b,88,3,1,
,,,,,,,,,,,,,,,,,,,,,,,,,images/exp2b_trial_67_colour2_distractors43_l.png,l,1,010,001,2021-04-16_17h46.13.046,searchDisc4,2020.2.10,Win32,60,,,,space,0.76747,1,1,0.79487,,0,350,350,409,1,2b,67,2,43,
,,,,,,,,,,,,,,,,,,,,,,,,,images/exp2b_trial_62_colour2_distractors1_l.png,l,1,010,001,2021-04-16_17h46.13.046,searchDisc4,2020.2.10,Win32,60,,,,space,0.049285,2,0,1.383875,,0,351,351,404,1,2b,62,2,1,
,,,,,,,,,,,,,,,,,,,,,,,,,images/exp1b_trial_28_colour2_distractors31_l.png,l,1,010,001,2021-04-16_17h46.13.046,searchDisc4,2020.2.10,Win32,60,,,,space,0.915145,1,1,0.767275,,0,352,352,142,1,1b,28,2,31,
,,,,,,,,,,,,,,,,,,,,,,,,,images/exp2b_trial_82_colour2_distractors1_r.png,r,2,010,001,2021-04-16_17h46.13.046,searchDisc4,2020.2.10,Win32,60,,,,space,0.01687,2,1,0.707275,,0,353,353,424,1,2b,82,2,1,
,,,,,,,,,,,,,,,,,,,,,,,,,images/exp2a_trial_97_colour1_distractors19_l.png,l,1,010,001,2021-04-16_17h46.13.046,searchDisc4,2020.2.10,Win32,60,,,,space,0.69898,1,1,0.673285,,0,354,354,325,1,2a,97,1,19,
,,,,,,,,,,,,,,,,,,,,,,,,,images/exp1b_trial_17_colour3_distractors43_r.png,r,2,010,001,2021-04-16_17h46.13.046,searchDisc4,2020.2.10,Win32,60,,,,space,0.06601,2,1,2.40079,,0,355,355,131,1,1b,17,3,43,
,,,,,,,,,,,,,,,,,,,,,,,,,images/exp2b_trial_11_colour2_distractors43_r.png,r,2,010,001,2021-04-16_17h46.13.046,searchDisc4,2020.2.10,Win32,60,,,,space,1.383615,1,0,0.707365,,0,356,356,353,1,2b,11,2,43,
,,,,,,,,,,,,,,,,,,,,,,,,,images/exp1a_trial_36_colour0_distractors0_r.png,r,2,010,001,2021-04-16_17h46.13.046,searchDisc4,2020.2.10,Win32,60,,,,space,0.04923,2,1,0.742605,,0,357,357,36,1,1a,36,0,0,
,,,,,,,,,,,,,,,,,,,,,,,,,images/exp2b_trial_33_colour3_distractors19_l.png,l,1,010,001,2021-04-16_17h46.13.046,searchDisc4,2020.2.10,Win32,60,,,,space,0.549645,1,1,0.99011,,0,358,358,375,1,2b,33,3,19,
,,,,,,,,,,,,,,,,,,,,,,,,,images/exp2a_trial_58_colour1_distractors9_l.png,l,1,010,001,2021-04-16_17h46.13.046,searchDisc4,2020.2.10,Win32,60,,,,space,0.116285,2,0,0.809915,space,0,359,359,286,1,2a,58,1,9,0.0547
,,,,,,,,,,,,,,,,,,,,,,,,,images/exp1b_trial_26_colour2_distractors9_l.png,l,1,010,001,2021-04-16_17h46.13.046,searchDisc4,2020.2.10,Win32,60,,,,space,0.91739,1,1,2.311275,,0,360,360,140,1,1b,26,2,9,
,,,,,,,,,,,,,,,,,,,,,,,,,images/exp1a_trial_16_colour3_distractors31_r.png,r,2,010,001,2021-04-16_17h46.13.046,searchDisc4,2020.2.10,Win32,60,,,,space,0.11945,1,0,1.045505,,0,361,361,16,1,1a,16,3,31,
,,,,,,,,,,,,,,,,,,,,,,,,,images/exp2c_trial_32_colour3_distractors9_l.png,l,1,010,001,2021-04-16_17h46.13.046,searchDisc4,2020.2.10,Win32,60,,,,space,0.05055,2,0,1.30779,,0,362,362,488,1,2c,32,3,9,
,,,,,,,,,,,,,,,,,,,,,,,,,images/exp1b_trial_39_colour1_distractors4_r.png,r,2,010,001,2021-04-16_17h46.13.046,searchDisc4,2020.2.10,Win32,60,,,,space,0.00064,1,0,1.598285,,0,363,363,153,1,1b,39,1,4,
,,,,,,,,,,,,,,,,,,,,,,,,,images/exp2c_trial_26_colour2_distractors9_l.png,l,1,010,001,2021-04-16_17h46.13.046,searchDisc4,2020.2.10,Win32,60,,,,space,0.082915,1,1,1.44072,,0,364,364,482,1,2c,26,2,9,
,,,,,,,,,,,,,,,,,,,,,,,,,images/exp1b_trial_70_colour3_distractors9_l.png,l,1,010,001,2021-04-16_17h46.13.046,searchDisc4,2020.2.10,Win32,60,,,,space,0.067205,1,1,2.972305,,0,365,365,184,1,1b,70,3,9,
,,,,,,,,,,,,,,,,,,,,,,,,,images/exp2a_trial_33_colour3_distractors19_l.png,l,1,010,001,2021-04-16_17h46.13.046,searchDisc4,2020.2.10,Win32,60,,,,space,0.05393,1,1,1.11896,,0,366,366,261,1,2a,33,3,19,
,,,,,,,,,,,,,,,,,,,,,,,,,images/exp1b_trial_80_colour1_distractors31_r.png,r,2,010,001,2021-04-16_17h46.13.046,searchDisc4,2020.2.10,Win32,60,,,,space,1.545825,1,0,1.76569,,0,367,367,194,1,1b,80,1,31,
,,,,,,,,,,,,,,,,,,,,,,,,,images/exp2b_trial_41_colour1_distractors19_r.png,r,2,010,001,2021-04-16_17h46.13.046,searchDisc4,2020.2.10,Win32,60,,,,space,0.031775,2,1,0.709625,,0,368,368,383,1,2b,41,1,19,
,,,,,,,,,,,,,,,,,,,,,,,,,images/exp1b_trial_58_colour1_distractors9_l.png,l,1,010,001,2021-04-16_17h46.13.046,searchDisc4,2020.2.10,Win32,60,,,,space,0.543485,2,0,1.44814,,0,369,369,172,1,1b,58,1,9,
,,,,,,,,,,,,,,,,,,,,,,,,,images/exp2c_trial_42_colour1_distractors31_r.png,r,2,010,001,2021-04-16_17h46.13.046,searchDisc4,2020.2.10,Win32,60,,,,space,0.000715,2,1,0.938145,,0,370,370,498,1,2c,42,1,31,
,,,,,,,,,,,,,,,,,,,,,,,,,images/exp1a_trial_81_colour1_distractors43_r.png,r,2,010,001,2021-04-16_17h46.13.046,searchDisc4,2020.2.10,Win32,60,,,,space,0.665865,1,0,0.5881,,0,371,371,81,1,1a,81,1,43,
,,,,,,,,,,,,,,,,,,,,,,,,,images/exp2a_trial_48_colour2_distractors31_r.png,r,2,010,001,2021-04-16_17h46.13.046,searchDisc4,2020.2.10,Win32,60,,,,space,0.080675,2,1,0.936645,,0,372,372,276,1,2a,48,2,31,
,,,,,,,,,,,,,,,,,,,,,,,,,images/exp2b_trial_46_colour2_distractors9_r.png,r,2,010,001,2021-04-16_17h46.13.046,searchDisc4,2020.2.10,Win32,60,,,,space,0.515035,2,1,0.78995,,0,373,373,388,1,2b,46,2,9,
,,,,,,,,,,,,,,,,,,,,,,,,,images/exp1a_trial_95_colour1_distractors4_l.png,l,1,010,001,2021-04-16_17h46.13.046,searchDisc4,2020.2.10,Win32,60,,,,space,1.18534,2,0,0.95122,,0,374,374,95,1,1a,95,1,4,
,,,,,,,,,,,,,,,,,,,,,,,,,images/exp1b_trial_45_colour2_distractors4_r.png,r,2,010,001,2021-04-16_17h46.13.046,searchDisc4,2020.2.10,Win32,60,,,,space,0.050365,2,1,0.806955,,0,375,375,159,1,1b,45,2,4,
,,,,,,,,,,,,,,,,,,,,,,,,,images/exp2a_trial_103_colour2_distractors19_l.png,l,1,010,001,2021-04-16_17h46.13.046,searchDisc4,2020.2.10,Win32,60,,,,space,0.00165,2,0,0.82879,,0,376,376,331,1,2a,103,2,19,
,,,,,,,,,,,,,,,,,,,,,,,,,images/exp2b_trial_52_colour3_distractors9_r.png,r,2,010,001,2021-04-16_17h46.13.046,searchDisc4,2020.2.10,Win32,60,,,,space,0.849175,2,1,0.766615,,0,377,377,394,1,2b,52,3,9,
,,,,,,,,,,,,,,,,,,,,,,,,,images/exp1b_trial_44_colour2_distractors1_r.png,r,2,010,001,2021-04-16_17h46.13.046,searchDisc4,2020.2.10,Win32,60,,,,space,0.06769,2,1,0.727685,,0,378,378,158,1,1b,44,2,1,
,,,,,,,,,,,,,,,,,,,,,,,,,images/exp2c_trial_48_colour2_distractors31_r.png,r,2,010,001,2021-04-16_17h46.13.046,searchDisc4,2020.2.10,Win32,60,,,,space,0.467865,2,1,1.336845,,0,379,379,504,1,2c,48,2,31,
,,,,,,,,,,,,,,,,,,,,,,,,,images/exp1a_trial_23_colour1_distractors43_l.png,l,1,010,001,2021-04-16_17h46.13.046,searchDisc4,2020.2.10,Win32,60,,,,space,0.066395,1,1,0.911285,,0,380,380,23,1,1a,23,1,43,
,,,,,,,,,,,,,,,,,,,,,,,,,images/exp1a_trial_65_colour2_distractors19_l.png,l,1,010,001,2021-04-16_17h46.13.046,searchDisc4,2020.2.10,Win32,60,,,,space,0.132555,2,0,0.71664,,0,381,381,65,1,1a,65,2,19,
,,,,,,,,,,,,,,,,,,,,,,,,,images/exp2a_trial_113_colour0_distractors0_l.png,l,1,010,001,2021-04-16_17h46.13.046,searchDisc4,2020.2.10,Win32,60,,,,space,0.099585,2,0,1.30542,,0,382,382,341,1,2a,113,0,0,
,,,,,,,,,,,,,,,,,,,,,,,,,images/exp2c_trial_57_colour1_distractors4_l.png,l,1,010,001,2021-04-16_17h46.13.046,searchDisc4,2020.2.10,Win32,60,,,,space,0.477905,1,1,0.75032,,0,383,383,513,1,2c,57,1,4,
,,,,,,,,,,,,,,,,,,,,,,,,,images/exp2a_trial_12_colour3_distractors1_r.png,r,2,010,001,2021-04-16_17h46.13.046,searchDisc4,2020.2.10,Win32,60,,,,space,0.03877,2,1,0.86266,,0,384,384,240,1,2a,12,3,1,
,,,,,,,,,,,,,,,,,,,,,,,,,images/exp2a_trial_95_colour1_distractors4_l.png,l,1,010,001,2021-04-16_17h46.13.046,searchDisc4,2020.2.10,Win32,60,,,,space,0.057215,2,0,0.796555,,0,385,385,323,1,2a,95,1,4,
,,,,,,,,,,,,,,,,,,,,,,,,,images/exp2c_trial_43_colour1_distractors43_r.png,r,2,010,001,2021-04-16_17h46.13.046,searchDisc4,2020.2.10,Win32,60,,,,space,0.515645,2,1,0.84561,,0,386,386,499,1,2c,43,1,43,
,,,,,,,,,,,,,,,,,,,,,,,,,images/exp1b_trial_40_colour1_distractors9_r.png,r,2,010,001,2021-04-16_17h46.13.046,searchDisc4,2020.2.10,Win32,60,,,,space,0.000965,1,0,3.240635,,0,387,387,154,1,1b,40,1,9,
,,,,,,,,,,,,,,,,,,,,,,,,,images/exp2c_trial_33_colour3_distractors19_l.png,l,1,010,001,2021-04-16_17h46.13.046,searchDisc4,2020.2.10,Win32,60,,,,space,0.016685,1,1,0.973315,,0,388,388,489,1,2c,33,3,19,
,,,,,,,,,,,,,,,,,,,,,,,,,images/exp2a_trial_49_colour2_distractors43_r.png,r,2,010,001,2021-04-16_17h46.13.046,searchDisc4,2020.2.10,Win32,60,,,,space,0.06644,1,0,0.93573,,0,389,389,277,1,2a,49,2,43,
,,,,,,,,,,,,,,,,,,,,,,,,,images/exp2b_trial_79_colour1_distractors19_r.png,r,2,010,001,2021-04-16_17h46.13.046,searchDisc4,2020.2.10,Win32,60,,,,space,0.065635,2,1,0.76071,,0,390,390,421,1,2b,79,1,19,
,,,,,,,,,,,,,,,,,,,,,,,,,images/exp1b_trial_81_colour1_distractors43_r.png,r,2,010,001,2021-04-16_17h46.13.046,searchDisc4,2020.2.10,Win32,60,,,,space,0.56748,2,1,4.089275,,0,391,391,195,1,1b,81,1,43,
,,,,,,,,,,,,,,,,,,,,,,,,,images/exp1b_trial_18_colour1_distractors1_l.png,l,1,010,001,2021-04-16_17h46.13.046,searchDisc4,2020.2.10,Win32,60,,,,space,0.116665,1,1,1.60721,,0,392,392,132,1,1b,18,1,1,
,,,,,,,,,,,,,,,,,,,,,,,,,images/exp2a_trial_88_colour3_distractors1_r.png,r,2,010,001,2021-04-16_17h46.13.046,searchDisc4,2020.2.10,Win32,60,,,,space,0.116225,1,0,0.967165,,0,393,393,316,1,2a,88,3,1,
,,,,,,,,,,,,,,,,,,,,,,,,,images/exp1a_trial_1_colour1_distractors4_r.png,r,2,010,001,2021-04-16_17h46.13.046,searchDisc4,2020.2.10,Win32,60,,,,space,0.00078,1,0,0.921225,,0,394,394,1,1,1a,1,1,4,
,,,,,,,,,,,,,,,,,,,,,,,,,images/exp1a_trial_66_colour2_distractors31_l.png,l,1,010,001,2021-04-16_17h46.13.046,searchDisc4,2020.2.10,Win32,60,,,,space,0.032105,2,0,1.191335,,0,395,395,66,1,1a,66,2,31,
,,,,,,,,,,,,,,,,,,,,,,,,,images/exp2b_trial_97_colour1_distractors19_l.png,l,1,010,001,2021-04-16_17h46.13.046,searchDisc4,2020.2.10,Win32,60,,,,space,0.000965,1,1,0.80565,,0,396,396,439,1,2b,97,1,19,
,,,,,,,,,,,,,,,,,,,,,,,,,images/exp2b_trial_108_colour3_distractors9_l.png,l,1,010,001,2021-04-16_17h46.13.046,searchDisc4,2020.2.10,Win32,60,,,,space,0.01559,1,1,1.160635,,0,397,397,450,1,2b,108,3,9,
,,,,,,,,,,,,,,,,,,,,,,,,,images/exp2a_trial_87_colour2_distractors43_r.png,r,2,010,001,2021-04-16_17h46.13.046,searchDisc4,2020.2.10,Win32,60,,,,space,0.53253,2,1,0.799065,,0,398,398,315,1,2a,87,2,43,
,,,,,,,,,,,,,,,,,,,,,,,,,images/exp1a_trial_6_colour2_distractors1_r.png,r,2,010,001,2021-04-16_17h46.13.046,searchDisc4,2020.2.10,Win32,60,,,,space,0.37069,1,0,1.4043,,0,399,399,6,1,1a,6,2,1,
,,,,,,,,,,,,,,,,,,,,,,,,,images/exp2a_trial_84_colour2_distractors9_r.png,r,2,010,001,2021-04-16_17h46.13.046,searchDisc4,2020.2.10,Win32,60,,,,space,0.14912,2,1,0.8088,,0,400,400,312,1,2a,84,2,9,
,,,,,,,,,,,,,,,,,,,,,,,,,images/exp2b_trial_106_colour3_distractors1_l.png,l,1,010,001,2021-04-16_17h46.13.046,searchDisc4,2020.2.10,Win32,60,,,,space,0.126705,1,1,1.733925,,0,401,401,448,1,2b,106,3,1,
,,,,,,,,,,,,,,,,,,,,,,,,,images/exp1b_trial_53_colour3_distractors19_r.png,r,2,010,001,2021-04-16_17h46.13.046,searchDisc4,2020.2.10,Win32,60,,,,space,0.16621,1,0,1.960885,,0,402,402,167,1,1b,53,3,19,
,,,,,,,,,,,,,,,,,,,,,,,,,images/exp1b_trial_75_colour0_distractors0_l.png,l,1,010,001,2021-04-16_17h46.13.046,searchDisc4,2020.2.10,Win32,60,,,,space,0.20532,2,0,1.28447,,0,403,403,189,1,1b,75,0,0,
,,,,,,,,,,,,,,,,,,,,,,,,,images/exp2b_trial_81_colour1_distractors43_r.png,r,2,010,001,2021-04-16_17h46.13.046,searchDisc4,2020.2.10,Win32,60,,,,space,0.23589,1,0,0.880495,,0,404,404,423,1,2b,81,1,43,
,,,,,,,,,,,,,,,,,,,,,,,,,images/exp1a_trial_33_colour3_distractors19_l.png,l,1,010,001,2021-04-16_17h46.13.046,searchDisc4,2020.2.10,Win32,60,,,,space,0.280995,1,1,0.924455,,0,405,405,33,1,1a,33,3,19,
,,,,,,,,,,,,,,,,,,,,,,,,,images/exp1a_trial_64_colour2_distractors9_l.png,l,1,010,001,2021-04-16_17h46.13.046,searchDisc4,2020.2.10,Win32,60,,,,space,0.23065,2,0,1.03855,,0,406,406,64,1,1a,64,2,9,
,,,,,,,,,,,,,,,,,,,,,,,,,images/exp2c_trial_14_colour3_distractors9_r.png,r,2,010,001,2021-04-16_17h46.13.046,searchDisc4,2020.2.10,Win32,60,,,,space,0.25028,2,1,0.828285,,0,407,407,470,1,2c,14,3,9,
,,,,,,,,,,,,,,,,,,,,,,,,,images/exp2b_trial_42_colour1_distractors31_r.png,r,2,010,001,2021-04-16_17h46.13.046,searchDisc4,2020.2.10,Win32,60,,,,space,0.215755,1,0,0.693775,,0,408,408,384,1,2b,42,1,31,
,,,,,,,,,,,,,,,,,,,,,,,,,images/exp2a_trial_46_colour2_distractors9_r.png,r,2,010,001,2021-04-16_17h46.13.046,searchDisc4,2020.2.10,Win32,60,,,,space,0.215175,1,0,0.90529,,0,409,409,274,1,2a,46,2,9,
,,,,,,,,,,,,,,,,,,,,,,,,,images/exp1b_trial_7_colour2_distractors4_r.png,r,2,010,001,2021-04-16_17h46.13.046,searchDisc4,2020.2.10,Win32,60,,,,space,0.26616,1,0,2.040425,,0,410,410,121,1,1b,7,2,4,
,,,,,,,,,,,,,,,,,,,,,,,,,images/exp2a_trial_20_colour1_distractors9_l.png,l,1,010,001,2021-04-16_17h46.13.046,searchDisc4,2020.2.10,Win32,60,,,,space,0.200645,2,0,0.844515,,0,411,411,248,1,2a,20,1,9,
,,,,,,,,,,,,,,,,,,,,,,,,,images/exp2a_trial_31_colour3_distractors4_l.png,l,1,010,001,2021-04-16_17h46.13.046,searchDisc4,2020.2.10,Win32,60,,,,space,0.247425,1,1,0.830875,,0,412,412,259,1,2a,31,3,4,
,,,,,,,,,,,,,,,,,,,,,,,,,images/exp2b_trial_112_colour0_distractors0_r.png,r,2,010,001,2021-04-16_17h46.13.046,searchDisc4,2020.2.10,Win32,60,,,,space,0.165705,1,0,0.707875,,0,413,413,454,1,2b,112,0,0,
,,,,,,,,,,,,,,,,,,,,,,,,,images/exp1b_trial_85_colour2_distractors19_r.png,r,2,010,001,2021-04-16_17h46.13.046,searchDisc4,2020.2.10,Win32,60,,,,space,0.166195,1,0,0.777795,,0,414,414,199,1,1b,85,2,19,
,,,,,,,,,,,,,,,,,,,,,,,,,images/exp2a_trial_17_colour3_distractors43_r.png,r,2,010,001,2021-04-16_17h46.13.046,searchDisc4,2020.2.10,Win32,60,,,,space,0.199045,2,1,0.64693,,0,415,415,245,1,2a,17,3,43,
,,,,,,,,,,,,,,,,,,,,,,,,,images/exp1a_trial_56_colour1_distractors1_l.png,l,1,010,001,2021-04-16_17h46.13.046,searchDisc4,2020.2.10,Win32,60,,,,space,0.216645,1,1,0.544505,,0,416,416,56,1,1a,56,1,1,
,,,,,,,,,,,,,,,,,,,,,,,,,images/exp1b_trial_25_colour2_distractors4_l.png,l,1,010,001,2021-04-16_17h46.13.046,searchDisc4,2020.2.10,Win32,60,,,,space,0.16697,1,1,1.609165,,0,417,417,139,1,1b,25,2,4,
,,,,,,,,,,,,,,,,,,,,,,,,,images/exp2c_trial_16_colour3_distractors31_r.png,r,2,010,001,2021-04-16_17h46.13.046,searchDisc4,2020.2.10,Win32,60,,,,space,0.186235,1,0,0.8805,,0,418,418,472,1,2c,16,3,31,
,,,,,,,,,,,,,,,,,,,,,,,,,images/exp2c_trial_101_colour2_distractors4_l.png,l,1,010,001,2021-04-16_17h46.13.046,searchDisc4,2020.2.10,Win32,60,,,,space,0.682795,1,1,1.20738,space,0,419,419,557,1,2c,101,2,4,0.247675
,,,,,,,,,,,,,,,,,,,,,,,,,images/exp1b_trial_42_colour1_distractors31_r.png,r,2,010,001,2021-04-16_17h46.13.046,searchDisc4,2020.2.10,Win32,60,,,,space,2.31803,2,1,1.6102,,0,420,420,156,1,1b,42,1,31,
,,,,,,,,,,,,,,,,,,,,,,,,,images/exp2c_trial_83_colour2_distractors4_r.png,r,2,010,001,2021-04-16_17h46.13.046,searchDisc4,2020.2.10,Win32,60,,,,space,0.161875,2,1,1.90079,,0,421,421,539,1,2c,83,2,4,
,,,,,,,,,,,,,,,,,,,,,,,,,images/exp2c_trial_47_colour2_distractors19_r.png,r,2,010,001,2021-04-16_17h46.13.046,searchDisc4,2020.2.10,Win32,60,,,,space,0.16567,1,0,2.07892,,0,422,422,503,1,2c,47,2,19,
,,,,,,,,,,,,,,,,,,,,,,,,,images/exp1a_trial_28_colour2_distractors31_l.png,l,1,010,001,2021-04-16_17h46.13.046,searchDisc4,2020.2.10,Win32,60,,,,space,0.33342,2,0,1.099235,,0,423,423,28,1,1a,28,2,31,
,,,,,,,,,,,,,,,,,,,,,,,,,images/exp2c_trial_82_colour2_distractors1_r.png,r,2,010,001,2021-04-16_17h46.13.046,searchDisc4,2020.2.10,Win32,60,,,,space,0.232615,2,1,0.894495,,0,424,424,538,1,2c,82,2,1,
,,,,,,,,,,,,,,,,,,,,,,,,,images/exp2b_trial_23_colour1_distractors43_l.png,l,1,010,001,2021-04-16_17h46.13.046,searchDisc4,2020.2.10,Win32,60,,,,space,0.248925,2,0,0.92298,,0,425,425,365,1,2b,23,1,43,
,,,,,,,,,,,,,,,,,,,,,,,,,images/exp1b_trial_87_colour2_distractors43_r.png,r,2,010,001,2021-04-16_17h46.13.046,searchDisc4,2020.2.10,Win32,60,,,,space,0.235925,1,0,3.48706,,0,426,426,201,1,1b,87,2,43,
,,,,,,,,,,,,,,,,,,,,,,,,,images/exp2a_trial_86_colour2_distractors31_r.png,r,2,010,001,2021-04-16_17h46.13.046,searchDisc4,2020.2.10,Win32,60,,,,space,0.199605,2,1,0.54189,,0,427,427,314,1,2a,86,2,31,
,,,,,,,,,,,,,,,,,,,,,,,,,images/exp2a_trial_3_colour1_distractors19_r.png,r,2,010,001,2021-04-16_17h46.13.046,searchDisc4,2020.2.10,Win32,60,,,,space,0.26552,1,0,1.100345,,0,428,428,231,1,2a,3,1,19,
,,,,,,,,,,,,,,,,,,,,,,,,,images/exp2c_trial_20_colour1_distractors9_l.png,l,1,010,001,2021-04-16_17h46.13.046,searchDisc4,2020.2.10,Win32,60,,,,space,0.2339,1,1,0.71159,,0,429,429,476,1,2c,20,1,9,
,,,,,,,,,,,,,,,,,,,,,,,,,images/exp2c_trial_62_colour2_distractors1_l.png,l,1,010,001,2021-04-16_17h46.13.046,searchDisc4,2020.2.10,Win32,60,,,,space,0.19882,2,0,0.6678,,0,430,430,518,1,2c,62,2,1,
,,,,,,,,,,,,,,,,,,,,,,,,,images/exp2a_trial_59_colour1_distractors19_l.png,l,1,010,001,2021-04-16_17h46.13.046,searchDisc4,2020.2.10,Win32,60,,,,space,0.221295,1,1,1.397575,,0,431,431,287,1,2a,59,1,19,
,,,,,,,,,,,,,,,,,,,,,,,,,images/exp1a_trial_75_colour0_distractors0_l.png,l,1,010,001,2021-04-16_17h46.13.046,searchDisc4,2020.2.10,Win32,60,,,,space,0.199275,2,0,0.559745,,0,432,432,75,1,1a,75,0,0,
,,,,,,,,,,,,,,,,,,,,,,,,,images/exp2c_trial_104_colour2_distractors31_l.png,l,1,010,001,2021-04-16_17h46.13.046,searchDisc4,2020.2.10,Win32,60,,,,space,0.244715,1,1,0.916735,,0,433,433,560,1,2c,104,2,31,
,,,,,,,,,,,,,,,,,,,,,,,,,images/exp2b_trial_32_colour3_distractors9_l.png,l,1,010,001,2021-04-16_17h46.13.046,searchDisc4,2020.2.10,Win32,60,,,,space,0.232445,2,0,0.86284,,0,434,434,374,1,2b,32,3,9,
,,,,,,,,,,,,,,,,,,,,,,,,,images/exp2b_trial_57_colour1_distractors4_l.png,l,1,010,001,2021-04-16_17h46.13.046,searchDisc4,2020.2.10,Win32,60,,,,space,0.16636,1,1,0.670845,,0,435,435,399,1,2b,57,1,4,
,,,,,,,,,,,,,,,,,,,,,,,,,images/exp2c_trial_0_colour1_distractors1_r.png,r,2,010,001,2021-04-16_17h46.13.046,searchDisc4,2020.2.10,Win32,60,,,,space,0.164935,2,1,0.57942,,0,436,436,456,1,2c,0,1,1,
,,,,,,,,,,,,,,,,,,,,,,,,,images/exp1b_trial_100_colour2_distractors1_l.png,l,1,010,001,2021-04-16_17h46.13.046,searchDisc4,2020.2.10,Win32,60,,,,space,0.216695,1,1,0.66871,,0,437,437,214,1,1b,100,2,1,
,,,,,,,,,,,,,,,,,,,,,,,,,images/exp1a_trial_98_colour1_distractors31_l.png,l,1,010,001,2021-04-16_17h46.13.046,searchDisc4,2020.2.10,Win32,60,,,,space,0.214465,2,0,0.51252,,0,438,438,98,1,1a,98,1,31,
,,,,,,,,,,,,,,,,,,,,,,,,,images/exp2c_trial_73_colour3_distractors43_l.png,l,1,010,001,2021-04-16_17h46.13.046,searchDisc4,2020.2.10,Win32,60,,,,space,0.234855,2,0,0.81782,,0,439,439,529,1,2c,73,3,43,
,,,,,,,,,,,,,,,,,,,,,,,,,images/exp1a_trial_62_colour2_distractors1_l.png,l,1,010,001,2021-04-16_17h46.13.046,searchDisc4,2020.2.10,Win32,60,,,,space,0.186715,2,0,0.9468,,0,440,440,62,1,1a,62,2,1,
,,,,,,,,,,,,,,,,,,,,,,,,,images/exp2a_trial_76_colour1_distractors1_r.png,r,2,010,001,2021-04-16_17h46.13.046,searchDisc4,2020.2.10,Win32,60,,,,space,0.182545,2,1,0.67903,,0,441,441,304,1,2a,76,1,1,
,,,,,,,,,,,,,,,,,,,,,,,,,images/exp1a_trial_91_colour3_distractors19_r.png,r,2,010,001,2021-04-16_17h46.13.046,searchDisc4,2020.2.10,Win32,60,,,,space,0.22875,2,1,0.55401,,0,442,442,91,1,1a,91,3,19,
,,,,,,,,,,,,,,,,,,,,,,,,,images/exp2c_trial_36_colour0_distractors0_r.png,r,2,010,001,2021-04-16_17h46.13.046,searchDisc4,2020.2.10,Win32,60,,,,space,0.182255,2,1,0.64036,,0,443,443,492,1,2c,36,0,0,
,,,,,,,,,,,,,,,,,,,,,,,,,images/exp1a_trial_71_colour3_distractors19_l.png,l,1,010,001,2021-04-16_17h46.13.046,searchDisc4,2020.2.10,Win32,60,,,,space,0.18145,1,1,0.97286,,0,444,444,71,1,1a,71,3,19,
,,,,,,,,,,,,,,,,,,,,,,,,,images/exp2c_trial_58_colour1_distractors9_l.png,l,1,010,001,2021-04-16_17h46.13.046,searchDisc4,2020.2.10,Win32,60,,,,space,0.139655,1,1,0.700565,,0,445,445,514,1,2c,58,1,9,
,,,,,,,,,,,,,,,,,,,,,,,,,images/exp2b_trial_20_colour1_distractors9_l.png,l,1,010,001,2021-04-16_17h46.13.046,searchDisc4,2020.2.10,Win32,60,,,,space,0.184815,1,1,0.54767,,0,446,446,362,1,2b,20,1,9,
,,,,,,,,,,,,,,,,,,,,,,,,,images/exp2b_trial_28_colour2_distractors31_l.png,l,1,010,001,2021-04-16_17h46.13.046,searchDisc4,2020.2.10,Win32,60,,,,space,0.132745,1,1,0.562205,,0,447,447,370,1,2b,28,2,31,
,,,,,,,,,,,,,,,,,,,,,,,,,images/exp1a_trial_113_colour0_distractors0_l.png,l,1,010,001,2021-04-16_17h46.13.046,searchDisc4,2020.2.10,Win32,60,,,,space,0.131405,1,1,0.608285,,0,448,448,113,1,1a,113,0,0,
,,,,,,,,,,,,,,,,,,,,,,,,,images/exp1a_trial_103_colour2_distractors19_l.png,l,1,010,001,2021-04-16_17h46.13.046,searchDisc4,2020.2.10,Win32,60,,,,space,0.11536,2,0,0.94026,,0,449,449,103,1,1a,103,2,19,
,,,,,,,,,,,,,,,,,,,,,,,,,images/exp1a_trial_47_colour2_distractors19_r.png,r,2,010,001,2021-04-16_17h46.13.046,searchDisc4,2020.2.10,Win32,60,,,,space,0.24992,2,1,1.415585,,0,450,450,47,1,1a,47,2,19,
,,,,,,,,,,,,,,,,,,,,,,,,,images/exp1b_trial_8_colour2_distractors9_r.png,r,2,010,001,2021-04-16_17h46.13.046,searchDisc4,2020.2.10,Win32,60,,,,space,0.16561,1,0,1.072825,,0,451,451,122,1,1b,8,2,9,
,,,,,,,,,,,,,,,,,,,,,,,,,images/exp1b_trial_51_colour3_distractors4_r.png,r,2,010,001,2021-04-16_17h46.13.046,searchDisc4,2020.2.10,Win32,60,,,,space,0.159945,1,0,1.430485,,0,452,452,165,1,1b,51,3,4,
,,,,,,,,,,,,,,,,,,,,,,,,,images/exp2a_trial_24_colour2_distractors1_l.png,l,1,010,001,2021-04-16_17h46.13.046,searchDisc4,2020.2.10,Win32,60,,,,space,0.166545,1,1,0.62742,,0,453,453,252,1,2a,24,2,1,
,,,,,,,,,,,,,,,,,,,,,,,,,images/exp1a_trial_27_colour2_distractors19_l.png,l,1,010,001,2021-04-16_17h46.13.046,searchDisc4,2020.2.10,Win32,60,,,,space,0.176995,1,1,0.66676,,0,454,454,27,1,1a,27,2,19,
,,,,,,,,,,,,,,,,,,,,,,,,,images/exp1b_trial_6_colour2_distractors1_r.png,r,2,010,001,2021-04-16_17h46.13.046,searchDisc4,2020.2.10,Win32,60,,,,space,0.15,2,1,1.844455,,0,455,455,120,1,1b,6,2,1,
,,,,,,,,,,,,,,,,,,,,,,,,,images/exp2a_trial_18_colour1_distractors1_l.png,l,1,010,001,2021-04-16_17h46.13.046,searchDisc4,2020.2.10,Win32,60,,,,space,0.45068,1,1,0.684095,,0,456,456,246,1,2a,18,1,1,
,,,,,,,,,,,,,,,,,,,,,,,,,images/exp2b_trial_59_colour1_distractors19_l.png,l,1,010,001,2021-04-16_17h46.13.046,searchDisc4,2020.2.10,Win32,60,,,,space,0.208495,2,0,0.610045,,0,457,457,401,1,2b,59,1,19,
,,,,,,,,,,,,,,,,,,,,,,,,,images/exp2c_trial_37_colour0_distractors0_l.png,l,1,010,001,2021-04-16_17h46.13.046,searchDisc4,2020.2.10,Win32,60,,,,space,0.16746,1,1,0.50574,,0,458,458,493,1,2c,37,0,0,
,,,,,,,,,,,,,,,,,,,,,,,,,images/exp2a_trial_63_colour2_distractors4_l.png,l,1,010,001,2021-04-16_17h46.13.046,searchDisc4,2020.2.10,Win32,60,,,,space,0.11607,2,0,0.81595,,0,459,459,291,1,2a,63,2,4,
,,,,,,,,,,,,,,,,,,,,,,,,,images/exp2a_trial_4_colour1_distractors31_r.png,r,2,010,001,2021-04-16_17h46.13.046,searchDisc4,2020.2.10,Win32,60,,,,space,0.182415,2,1,1.4227,,0,460,460,232,1,2a,4,1,31,
,,,,,,,,,,,,,,,,,,,,,,,,,images/exp1b_trial_73_colour3_distractors43_l.png,l,1,010,001,2021-04-16_17h46.13.046,searchDisc4,2020.2.10,Win32,60,,,,space,0.149165,1,1,3.711405,,0,461,461,187,1,1b,73,3,43,
,,,,,,,,,,,,,,,,,,,,,,,,,images/exp2c_trial_113_colour0_distractors0_l.png,l,1,010,001,2021-04-16_17h46.13.046,searchDisc4,2020.2.10,Win32,60,,,,space,0.40953,1,1,0.749575,,0,462,462,569,1,2c,113,0,0,
,,,,,,,,,,,,,,,,,,,,,,,,,images/exp2a_trial_61_colour1_distractors43_l.png,l,1,010,001,2021-04-16_17h46.13.046,searchDisc4,2020.2.10,Win32,60,,,,space,0.166615,2,0,0.610565,,0,463,463,289,1,2a,61,1,43,
,,,,,,,,,,,,,,,,,,,,,,,,,images/exp2b_trial_0_colour1_distractors1_r.png,r,2,010,001,2021-04-16_17h46.13.046,searchDisc4,2020.2.10,Win32,60,,,,space,0.166005,2,1,1.184665,,0,464,464,342,1,2b,0,1,1,
,,,,,,,,,,,,,,,,,,,,,,,,,images/exp2b_trial_99_colour1_distractors43_l.png,l,1,010,001,2021-04-16_17h46.13.046,searchDisc4,2020.2.10,Win32,60,,,,space,0.133,2,0,0.822845,,0,465,465,441,1,2b,99,1,43,
,,,,,,,,,,,,,,,,,,,,,,,,,images/exp2a_trial_81_colour1_distractors43_r.png,r,2,010,001,2021-04-16_17h46.13.046,searchDisc4,2020.2.10,Win32,60,,,,space,0.15107,,0,,,0,466,466,309,1,2a,81,1,43,
,,,,,,,,,,,,,,,,,,,,,,,,,images/exp2a_trial_102_colour2_distractors9_l.png,l,1,010,001,2021-04-16_17h46.13.046,searchDisc4,2020.2.10,Win32,60,,,,space,0.742655,2,0,0.899665,,0,467,467,330,1,2a,102,2,9,
,,,,,,,,,,,,,,,,,,,,,,,,,images/exp1b_trial_95_colour1_distractors4_l.png,l,1,010,001,2021-04-16_17h46.13.046,searchDisc4,2020.2.10,Win32,60,,,,space,0.150015,2,0,1.43786,,0,468,468,209,1,1b,95,1,4,
,,,,,,,,,,,,,,,,,,,,,,,,,images/exp1a_trial_107_colour3_distractors4_l.png,l,1,010,001,2021-04-16_17h46.13.046,searchDisc4,2020.2.10,Win32,60,,,,space,0.418315,1,1,1.245665,,0,469,469,107,1,1a,107,3,4,
,,,,,,,,,,,,,,,,,,,,,,,,,images/exp1b_trial_72_colour3_distractors31_l.png,l,1,010,001,2021-04-16_17h46.13.046,searchDisc4,2020.2.10,Win32,60,,,,space,0.13832,1,1,2.079265,,0,470,470,186,1,1b,72,3,31,
,,,,,,,,,,,,,,,,,,,,,,,,,images/exp2a_trial_16_colour3_distractors31_r.png,r,2,010,001,2021-04-16_17h46.13.046,searchDisc4,2020.2.10,Win32,60,,,,space,0.152355,1,0,0.891845,,0,471,471,244,1,2a,16,3,31,
,,,,,,,,,,,,,,,,,,,,,,,,,images/exp2b_trial_65_colour2_distractors19_l.png,l,1,010,001,2021-04-16_17h46.13.046,searchDisc4,2020.2.10,Win32,60,,,,space,0.148735,1,1,0.81246,,0,472,472,407,1,2b,65,2,19,
,,,,,,,,,,,,,,,,,,,,,,,,,images/exp1b_trial_10_colour2_distractors31_r.png,r,2,010,001,2021-04-16_17h46.13.046,searchDisc4,2020.2.10,Win32,60,,,,space,0.098865,1,0,2.15114,,0,473,473,124,1,1b,10,2,31,
,,,,,,,,,,,,,,,,,,,,,,,,,images/exp2b_trial_94_colour1_distractors1_l.png,l,1,010,001,2021-04-16_17h46.13.046,searchDisc4,2020.2.10,Win32,60,,,,space,0.11644,1,1,0.92632,,0,474,474,436,1,2b,94,1,1,
,,,,,,,,,,,,,,,,,,,,,,,,,images/exp2a_trial_56_colour1_distractors1_l.png,l,1,010,001,2021-04-16_17h46.13.046,searchDisc4,2020.2.10,Win32,60,,,,space,0.099,1,1,0.950375,,0,475,475,284,1,2a,56,1,1,
,,,,,,,,,,,,,,,,,,,,,,,,,images/exp2a_trial_57_colour1_distractors4_l.png,l,1,010,001,2021-04-16_17h46.13.046,searchDisc4,2020.2.10,Win32,60,,,,space,0.132545,2,0,1.373935,,0,476,476,285,1,2a,57,1,4,
