X Scale,Y Scale,key_resp_10.keys,key_resp_10.rt,key_resp_11.keys,key_resp_11.rt,key_resp_12.keys,key_resp_12.rt,key_resp_13.keys,key_resp_13.rt,key_resp_5.keys,key_resp_5.rt,key_resp_8.keys,key_resp_8.rt,key_resp_6.keys,key_resp_6.rt,key_resp_7.keys,key_resp_7.rt,key_resp_4.keys,key_resp_4.corr,key_resp_4.rt,trials_2.thisRepN,trials_2.thisTrialN,trials_2.thisN,trials_2.thisIndex,trials_2.ran,ImageFile,targ_side,correctAnswer,participant,session,date,expName,psychopyVersion,OS,frameRate,key_resp_3.keys,key_resp_3.rt,key_resp_9.keys,key_resp_9.rt,key_resp_2.keys,key_resp_2.corr,key_resp_2.rt,key_resp.keys,trials.thisRepN,trials.thisTrialN,trials.thisN,trials.thisIndex,trials.ran,exp,trial,colour,distNo,key_resp.rt
20,19.7,space,9.09773,space,0.81494,space,0.630375,space,0.5512,space,0.07066,space,14.98162,space,1.53366,space,0.9457,2,1,0.64007,0,0,0,1,1,Practice arrays/exp1a_trial_3_colour1_distractors19_r.png,r,2,011,001,2021-04-19_17h58.15.204,searchDisc4,2020.2.10,Win32,60,,,,,,,,,,,,,,,,,,
,,,,,,,,,,,,,,,,space,0.10659,1,0,0.503785,0,1,1,8,1,Practice arrays/exp1a_trial_16_colour3_distractors31_r.png,r,2,011,001,2021-04-19_17h58.15.204,searchDisc4,2020.2.10,Win32,60,,,,,,,,,,,,,,,,,,
,,,,,,,,,,,,,,,,space,0.66779,1,1,0.925605,0,2,2,14,1,Practice arrays/exp1a_trial_29_colour2_distractors43_l.png,l,1,011,001,2021-04-19_17h58.15.204,searchDisc4,2020.2.10,Win32,60,,,,,,,,,,,,,,,,,,
,,,,,,,,,,,,,,,,space,1.51748,1,1,0.792795,0,3,3,11,1,Practice arrays/exp1a_trial_21_colour1_distractors19_l.png,l,1,011,001,2021-04-19_17h58.15.204,searchDisc4,2020.2.10,Win32,60,,,,,,,,,,,,,,,,,,
,,,,,,,,,,,,,,,,space,0.34324,1,0,0.5487,0,4,4,6,1,Practice arrays/exp1a_trial_12_colour3_distractors1_r.png,r,2,011,001,2021-04-19_17h58.15.204,searchDisc4,2020.2.10,Win32,60,,,,,,,,,,,,,,,,,,
,,,,,,,,,,,,,,,,space,0.443255,2,1,2.103765,0,5,5,3,1,Practice arrays/exp1a_trial_7_colour2_distractors4_r.png,r,2,011,001,2021-04-19_17h58.15.204,searchDisc4,2020.2.10,Win32,60,,,,,,,,,,,,,,,,,,
,,,,,,,,,,,,,,,,space,0.57883,1,1,0.59742,0,6,6,9,1,Practice arrays/exp1a_trial_19_colour1_distractors4_l.png,l,1,011,001,2021-04-19_17h58.15.204,searchDisc4,2020.2.10,Win32,60,,,,,,,,,,,,,,,,,,
,,,,,,,,,,,,,,,,space,0.396,1,1,0.624005,0,7,7,12,1,Practice arrays/exp1a_trial_25_colour2_distractors4_l.png,l,1,011,001,2021-04-19_17h58.15.204,searchDisc4,2020.2.10,Win32,60,,,,,,,,,,,,,,,,,,
,,,,,,,,,,,,,,,,space,0.59986,1,1,0.75311,0,8,8,10,1,Practice arrays/exp1a_trial_20_colour1_distractors9_l.png,l,1,011,001,2021-04-19_17h58.15.204,searchDisc4,2020.2.10,Win32,60,,,,,,,,,,,,,,,,,,
,,,,,,,,,,,,,,,,space,0.40604,1,1,0.599605,0,9,9,16,1,Practice arrays/exp1a_trial_33_colour3_distractors19_l.png,l,1,011,001,2021-04-19_17h58.15.204,searchDisc4,2020.2.10,Win32,60,,,,,,,,,,,,,,,,,,
,,,,,,,,,,,,,,,,space,0.13523,2,1,0.622035,0,10,10,18,1,Practice arrays/exp1a_trial_36_colour0_distractors0_r.png,r,2,011,001,2021-04-19_17h58.15.204,searchDisc4,2020.2.10,Win32,60,,,,,,,,,,,,,,,,,,
,,,,,,,,,,,,,,,,space,0.314845,1,0,0.789365,0,11,11,2,1,Practice arrays/exp1a_trial_5_colour1_distractors43_r.png,r,2,011,001,2021-04-19_17h58.15.204,searchDisc4,2020.2.10,Win32,60,,,,,,,,,,,,,,,,,,
,,,,,,,,,,,,,,,,space,0.446405,2,1,1.37362,0,12,12,5,1,Practice arrays/exp1a_trial_10_colour2_distractors31_r.png,r,2,011,001,2021-04-19_17h58.15.204,searchDisc4,2020.2.10,Win32,60,,,,,,,,,,,,,,,,,,
,,,,,,,,,,,,,,,,space,0.05005,1,1,1.11261,0,13,13,13,1,Practice arrays/exp1a_trial_28_colour2_distractors31_l.png,l,1,011,001,2021-04-19_17h58.15.204,searchDisc4,2020.2.10,Win32,60,,,,,,,,,,,,,,,,,,
,,,,,,,,,,,,,,,,space,0.12419,2,1,0.6629,0,14,14,0,1,Practice arrays/exp1a_trial_0_colour1_distractors1_r.png,r,2,011,001,2021-04-19_17h58.15.204,searchDisc4,2020.2.10,Win32,60,,,,,,,,,,,,,,,,,,
,,,,,,,,,,,,,,,,space,0.525465,2,1,0.635435,0,15,15,7,1,Practice arrays/exp1a_trial_13_colour3_distractors4_r.png,r,2,011,001,2021-04-19_17h58.15.204,searchDisc4,2020.2.10,Win32,60,,,,,,,,,,,,,,,,,,
,,,,,,,,,,,,,,,,space,0.68665,2,1,0.623225,0,16,16,4,1,Practice arrays/exp1a_trial_8_colour2_distractors9_r.png,r,2,011,001,2021-04-19_17h58.15.204,searchDisc4,2020.2.10,Win32,60,,,,,,,,,,,,,,,,,,
,,,,,,,,,,,,,,,,space,0.60091,1,1,0.65288,0,17,17,19,1,Practice arrays/exp1a_trial_37_colour0_distractors0_l.png,l,1,011,001,2021-04-19_17h58.15.204,searchDisc4,2020.2.10,Win32,60,,,,,,,,,,,,,,,,,,
,,,,,,,,,,,,,,,,space,0.96904,1,1,0.642185,0,18,18,17,1,Practice arrays/exp1a_trial_35_colour3_distractors43_l.png,l,1,011,001,2021-04-19_17h58.15.204,searchDisc4,2020.2.10,Win32,60,,,,,,,,,,,,,,,,,,
,,,,,,,,,,,,,,,,space,0.490205,1,1,0.56466,0,19,19,15,1,Practice arrays/exp1a_trial_32_colour3_distractors9_l.png,l,1,011,001,2021-04-19_17h58.15.204,searchDisc4,2020.2.10,Win32,60,,,,,,,,,,,,,,,,,,
,,,,,,,,,,,,,,,,,,,,,,,,,,images/exp2b_trial_75_colour0_distractors0_l.png,l,1,011,001,2021-04-19_17h58.15.204,searchDisc4,2020.2.10,Win32,60,space,1.751745,space,0.798135,1,1,0.48765,,0,0,0,417,1,2b,75,0,0,
,,,,,,,,,,,,,,,,,,,,,,,,,,images/exp2a_trial_94_colour1_distractors1_l.png,l,1,011,001,2021-04-19_17h58.15.204,searchDisc4,2020.2.10,Win32,60,,,space,0.532955,1,1,0.50791,,0,1,1,322,1,2a,94,1,1,
,,,,,,,,,,,,,,,,,,,,,,,,,,images/exp2a_trial_5_colour1_distractors43_r.png,r,2,011,001,2021-04-19_17h58.15.204,searchDisc4,2020.2.10,Win32,60,,,space,0.667555,2,1,1.23954,,0,2,2,233,1,2a,5,1,43,
,,,,,,,,,,,,,,,,,,,,,,,,,,images/exp1b_trial_73_colour3_distractors43_l.png,l,1,011,001,2021-04-19_17h58.15.204,searchDisc4,2020.2.10,Win32,60,,,space,0.43581,1,1,2.614375,,0,3,3,187,1,1b,73,3,43,
,,,,,,,,,,,,,,,,,,,,,,,,,,images/exp2c_trial_46_colour2_distractors9_r.png,r,2,011,001,2021-04-19_17h58.15.204,searchDisc4,2020.2.10,Win32,60,,,space,3.36823,2,1,0.8484,,0,4,4,502,1,2c,46,2,9,
,,,,,,,,,,,,,,,,,,,,,,,,,,images/exp1a_trial_82_colour2_distractors1_r.png,r,2,011,001,2021-04-19_17h58.15.204,searchDisc4,2020.2.10,Win32,60,,,space,0.58301,2,1,0.72287,,0,5,5,82,1,1a,82,2,1,
,,,,,,,,,,,,,,,,,,,,,,,,,,images/exp2c_trial_85_colour2_distractors19_r.png,r,2,011,001,2021-04-19_17h58.15.204,searchDisc4,2020.2.10,Win32,60,,,space,0.545615,2,1,0.81387,,0,6,6,541,1,2c,85,2,19,
,,,,,,,,,,,,,,,,,,,,,,,,,,images/exp2c_trial_42_colour1_distractors31_r.png,r,2,011,001,2021-04-19_17h58.15.204,searchDisc4,2020.2.10,Win32,60,,,space,0.47434,2,1,0.62251,,0,7,7,498,1,2c,42,1,31,
,,,,,,,,,,,,,,,,,,,,,,,,,,images/exp2b_trial_68_colour3_distractors1_l.png,l,1,011,001,2021-04-19_17h58.15.204,searchDisc4,2020.2.10,Win32,60,,,space,0.52481,1,1,0.70153,,0,8,8,410,1,2b,68,3,1,
,,,,,,,,,,,,,,,,,,,,,,,,,,images/exp2a_trial_15_colour3_distractors19_r.png,r,2,011,001,2021-04-19_17h58.15.204,searchDisc4,2020.2.10,Win32,60,,,space,0.46711,2,1,0.66721,,0,9,9,243,1,2a,15,3,19,
,,,,,,,,,,,,,,,,,,,,,,,,,,images/exp1b_trial_48_colour2_distractors31_r.png,r,2,011,001,2021-04-19_17h58.15.204,searchDisc4,2020.2.10,Win32,60,,,space,0.4694,2,1,0.612405,,0,10,10,162,1,1b,48,2,31,
,,,,,,,,,,,,,,,,,,,,,,,,,,images/exp2c_trial_104_colour2_distractors31_l.png,l,1,011,001,2021-04-19_17h58.15.204,searchDisc4,2020.2.10,Win32,60,,,space,0.45009,1,1,0.64704,,0,11,11,560,1,2c,104,2,31,
,,,,,,,,,,,,,,,,,,,,,,,,,,images/exp1a_trial_51_colour3_distractors4_r.png,r,2,011,001,2021-04-19_17h58.15.204,searchDisc4,2020.2.10,Win32,60,,,space,0.451405,2,1,0.458395,,0,12,12,51,1,1a,51,3,4,
,,,,,,,,,,,,,,,,,,,,,,,,,,images/exp1b_trial_103_colour2_distractors19_l.png,l,1,011,001,2021-04-19_17h58.15.204,searchDisc4,2020.2.10,Win32,60,,,space,0.438065,1,1,1.0047,,0,13,13,217,1,1b,103,2,19,
,,,,,,,,,,,,,,,,,,,,,,,,,,images/exp1a_trial_55_colour3_distractors43_r.png,r,2,011,001,2021-04-19_17h58.15.204,searchDisc4,2020.2.10,Win32,60,,,space,0.41711,2,1,0.63882,,0,14,14,55,1,1a,55,3,43,
,,,,,,,,,,,,,,,,,,,,,,,,,,images/exp2a_trial_61_colour1_distractors43_l.png,l,1,011,001,2021-04-19_17h58.15.204,searchDisc4,2020.2.10,Win32,60,,,space,0.349735,1,1,0.931055,,0,15,15,289,1,2a,61,1,43,
,,,,,,,,,,,,,,,,,,,,,,,,,,images/exp2b_trial_52_colour3_distractors9_r.png,r,2,011,001,2021-04-19_17h58.15.204,searchDisc4,2020.2.10,Win32,60,,,space,0.401995,2,1,0.69887,,0,16,16,394,1,2b,52,3,9,
,,,,,,,,,,,,,,,,,,,,,,,,,,images/exp2c_trial_30_colour3_distractors1_l.png,l,1,011,001,2021-04-19_17h58.15.204,searchDisc4,2020.2.10,Win32,60,,,space,0.377915,1,1,0.84889,,0,17,17,486,1,2c,30,3,1,
,,,,,,,,,,,,,,,,,,,,,,,,,,images/exp1a_trial_77_colour1_distractors4_r.png,r,2,011,001,2021-04-19_17h58.15.204,searchDisc4,2020.2.10,Win32,60,,,space,0.35331,2,1,0.577585,,0,18,18,77,1,1a,77,1,4,
,,,,,,,,,,,,,,,,,,,,,,,,,,images/exp2b_trial_35_colour3_distractors43_l.png,l,1,011,001,2021-04-19_17h58.15.204,searchDisc4,2020.2.10,Win32,60,,,space,0.3387,1,1,0.613505,,0,19,19,377,1,2b,35,3,43,
,,,,,,,,,,,,,,,,,,,,,,,,,,images/exp2c_trial_72_colour3_distractors31_l.png,l,1,011,001,2021-04-19_17h58.15.204,searchDisc4,2020.2.10,Win32,60,,,space,0.35928,1,1,0.567805,,0,20,20,528,1,2c,72,3,31,
,,,,,,,,,,,,,,,,,,,,,,,,,,images/exp1b_trial_51_colour3_distractors4_r.png,r,2,011,001,2021-04-19_17h58.15.204,searchDisc4,2020.2.10,Win32,60,,,space,0.34289,2,1,0.783005,,0,21,21,165,1,1b,51,3,4,
,,,,,,,,,,,,,,,,,,,,,,,,,,images/exp2c_trial_74_colour0_distractors0_r.png,r,2,011,001,2021-04-19_17h58.15.204,searchDisc4,2020.2.10,Win32,60,,,space,0.31165,2,1,0.645625,,0,22,22,530,1,2c,74,0,0,
,,,,,,,,,,,,,,,,,,,,,,,,,,images/exp2a_trial_11_colour2_distractors43_r.png,r,2,011,001,2021-04-19_17h58.15.204,searchDisc4,2020.2.10,Win32,60,,,space,0.3334,2,1,0.569445,,0,23,23,239,1,2a,11,2,43,
,,,,,,,,,,,,,,,,,,,,,,,,,,images/exp2b_trial_51_colour3_distractors4_r.png,r,2,011,001,2021-04-19_17h58.15.204,searchDisc4,2020.2.10,Win32,60,,,space,0.37187,2,1,0.75848,,0,24,24,393,1,2b,51,3,4,
,,,,,,,,,,,,,,,,,,,,,,,,,,images/exp1b_trial_95_colour1_distractors4_l.png,l,1,011,001,2021-04-19_17h58.15.204,searchDisc4,2020.2.10,Win32,60,,,space,0.33655,1,1,0.86358,,0,25,25,209,1,1b,95,1,4,
,,,,,,,,,,,,,,,,,,,,,,,,,,images/exp2c_trial_105_colour2_distractors43_l.png,l,1,011,001,2021-04-19_17h58.15.204,searchDisc4,2020.2.10,Win32,60,,,space,0.325085,1,1,1.181075,,0,26,26,561,1,2c,105,2,43,
,,,,,,,,,,,,,,,,,,,,,,,,,,images/exp2a_trial_31_colour3_distractors4_l.png,l,1,011,001,2021-04-19_17h58.15.204,searchDisc4,2020.2.10,Win32,60,,,space,0.28319,1,1,0.795565,,0,27,27,259,1,2a,31,3,4,
,,,,,,,,,,,,,,,,,,,,,,,,,,images/exp2c_trial_87_colour2_distractors43_r.png,r,2,011,001,2021-04-19_17h58.15.204,searchDisc4,2020.2.10,Win32,60,,,space,0.270905,2,1,1.129605,,0,28,28,543,1,2c,87,2,43,
,,,,,,,,,,,,,,,,,,,,,,,,,,images/exp1b_trial_52_colour3_distractors9_r.png,r,2,011,001,2021-04-19_17h58.15.204,searchDisc4,2020.2.10,Win32,60,,,space,0.26332,2,1,1.217155,,0,29,29,166,1,1b,52,3,9,
,,,,,,,,,,,,,,,,,,,,,,,,,,images/exp1a_trial_28_colour2_distractors31_l.png,l,1,011,001,2021-04-19_17h58.15.204,searchDisc4,2020.2.10,Win32,60,,,space,0.41738,1,1,0.815985,,0,30,30,28,1,1a,28,2,31,
,,,,,,,,,,,,,,,,,,,,,,,,,,images/exp1a_trial_43_colour1_distractors43_r.png,r,2,011,001,2021-04-19_17h58.15.204,searchDisc4,2020.2.10,Win32,60,,,space,0.320705,2,1,0.63304,,0,31,31,43,1,1a,43,1,43,
,,,,,,,,,,,,,,,,,,,,,,,,,,images/exp2c_trial_62_colour2_distractors1_l.png,l,1,011,001,2021-04-19_17h58.15.204,searchDisc4,2020.2.10,Win32,60,,,space,0.32466,1,1,0.57043,,0,32,32,518,1,2c,62,2,1,
,,,,,,,,,,,,,,,,,,,,,,,,,,images/exp2c_trial_12_colour3_distractors1_r.png,r,2,011,001,2021-04-19_17h58.15.204,searchDisc4,2020.2.10,Win32,60,,,space,0.335745,2,1,0.56639,,0,33,33,468,1,2c,12,3,1,
,,,,,,,,,,,,,,,,,,,,,,,,,,images/exp2b_trial_78_colour1_distractors9_r.png,r,2,011,001,2021-04-19_17h58.15.204,searchDisc4,2020.2.10,Win32,60,,,space,0.345595,2,1,0.640265,,0,34,34,420,1,2b,78,1,9,
,,,,,,,,,,,,,,,,,,,,,,,,,,images/exp1b_trial_6_colour2_distractors1_r.png,r,2,011,001,2021-04-19_17h58.15.204,searchDisc4,2020.2.10,Win32,60,,,space,0.28882,2,1,1.389615,,0,35,35,120,1,1b,6,2,1,
,,,,,,,,,,,,,,,,,,,,,,,,,,images/exp2c_trial_52_colour3_distractors9_r.png,r,2,011,001,2021-04-19_17h58.15.204,searchDisc4,2020.2.10,Win32,60,,,space,0.224265,2,1,1.056635,,0,36,36,508,1,2c,52,3,9,
,,,,,,,,,,,,,,,,,,,,,,,,,,images/exp1a_trial_6_colour2_distractors1_r.png,r,2,011,001,2021-04-19_17h58.15.204,searchDisc4,2020.2.10,Win32,60,,,space,0.33609,2,1,0.658775,,0,37,37,6,1,1a,6,2,1,
,,,,,,,,,,,,,,,,,,,,,,,,,,images/exp2a_trial_67_colour2_distractors43_l.png,l,1,011,001,2021-04-19_17h58.15.204,searchDisc4,2020.2.10,Win32,60,,,space,0.31474,1,1,0.727145,,0,38,38,295,1,2a,67,2,43,
,,,,,,,,,,,,,,,,,,,,,,,,,,images/exp2c_trial_71_colour3_distractors19_l.png,l,1,011,001,2021-04-19_17h58.15.204,searchDisc4,2020.2.10,Win32,60,,,space,0.33474,2,0,0.57732,,0,39,39,527,1,2c,71,3,19,
,,,,,,,,,,,,,,,,,,,,,,,,,,images/exp1a_trial_113_colour0_distractors0_l.png,l,1,011,001,2021-04-19_17h58.15.204,searchDisc4,2020.2.10,Win32,60,,,space,0.59851,1,1,0.4885,,0,40,40,113,1,1a,113,0,0,
,,,,,,,,,,,,,,,,,,,,,,,,,,images/exp1b_trial_111_colour3_distractors43_l.png,l,1,011,001,2021-04-19_17h58.15.204,searchDisc4,2020.2.10,Win32,60,,,space,0.360265,1,1,1.71311,,0,41,41,225,1,1b,111,3,43,
,,,,,,,,,,,,,,,,,,,,,,,,,,images/exp2c_trial_107_colour3_distractors4_l.png,l,1,011,001,2021-04-19_17h58.15.204,searchDisc4,2020.2.10,Win32,60,,,space,0.270345,1,1,0.618975,,0,42,42,563,1,2c,107,3,4,
,,,,,,,,,,,,,,,,,,,,,,,,,,images/exp2a_trial_19_colour1_distractors4_l.png,l,1,011,001,2021-04-19_17h58.15.204,searchDisc4,2020.2.10,Win32,60,,,space,0.35148,1,1,0.547255,,0,43,43,247,1,2a,19,1,4,
,,,,,,,,,,,,,,,,,,,,,,,,,,images/exp1a_trial_93_colour3_distractors43_r.png,r,2,011,001,2021-04-19_17h58.15.204,searchDisc4,2020.2.10,Win32,60,,,space,0.321075,2,1,0.569775,,0,44,44,93,1,1a,93,3,43,
,,,,,,,,,,,,,,,,,,,,,,,,,,images/exp2c_trial_84_colour2_distractors9_r.png,r,2,011,001,2021-04-19_17h58.15.204,searchDisc4,2020.2.10,Win32,60,,,space,0.29513,2,1,0.72475,,0,45,45,540,1,2c,84,2,9,
,,,,,,,,,,,,,,,,,,,,,,,,,,images/exp2c_trial_49_colour2_distractors43_r.png,r,2,011,001,2021-04-19_17h58.15.204,searchDisc4,2020.2.10,Win32,60,,,space,0.302635,2,1,0.605875,,0,46,46,505,1,2c,49,2,43,
,,,,,,,,,,,,,,,,,,,,,,,,,,images/exp2b_trial_60_colour1_distractors31_l.png,l,1,011,001,2021-04-19_17h58.15.204,searchDisc4,2020.2.10,Win32,60,,,space,0.324425,1,1,0.68592,,0,47,47,402,1,2b,60,1,31,
,,,,,,,,,,,,,,,,,,,,,,,,,,images/exp2c_trial_4_colour1_distractors31_r.png,r,2,011,001,2021-04-19_17h58.15.204,searchDisc4,2020.2.10,Win32,60,,,space,0.27834,2,1,0.566735,,0,48,48,460,1,2c,4,1,31,
,,,,,,,,,,,,,,,,,,,,,,,,,,images/exp1b_trial_15_colour3_distractors19_r.png,r,2,011,001,2021-04-19_17h58.15.204,searchDisc4,2020.2.10,Win32,60,,,space,0.32385,2,1,0.840375,,0,49,49,129,1,1b,15,3,19,
,,,,,,,,,,,,,,,,,,,,,,,,,,images/exp1a_trial_76_colour1_distractors1_r.png,r,2,011,001,2021-04-19_17h58.15.204,searchDisc4,2020.2.10,Win32,60,,,space,0.289175,1,0,1.1155,,0,50,50,76,1,1a,76,1,1,
,,,,,,,,,,,,,,,,,,,,,,,,,,images/exp2c_trial_112_colour0_distractors0_r.png,r,2,011,001,2021-04-19_17h58.15.204,searchDisc4,2020.2.10,Win32,60,,,space,0.566815,2,1,0.581615,,0,51,51,568,1,2c,112,0,0,
,,,,,,,,,,,,,,,,,,,,,,,,,,images/exp1a_trial_72_colour3_distractors31_l.png,l,1,011,001,2021-04-19_17h58.15.204,searchDisc4,2020.2.10,Win32,60,,,space,0.31962,1,1,0.688225,,0,52,52,72,1,1a,72,3,31,
,,,,,,,,,,,,,,,,,,,,,,,,,,images/exp1a_trial_68_colour3_distractors1_l.png,l,1,011,001,2021-04-19_17h58.15.204,searchDisc4,2020.2.10,Win32,60,,,space,0.33698,1,1,1.03374,,0,53,53,68,1,1a,68,3,1,
,,,,,,,,,,,,,,,,,,,,,,,,,,images/exp1b_trial_64_colour2_distractors9_l.png,l,1,011,001,2021-04-19_17h58.15.204,searchDisc4,2020.2.10,Win32,60,,,space,0.322115,1,1,0.877375,,0,54,54,178,1,1b,64,2,9,
,,,,,,,,,,,,,,,,,,,,,,,,,,images/exp1a_trial_53_colour3_distractors19_r.png,r,2,011,001,2021-04-19_17h58.15.204,searchDisc4,2020.2.10,Win32,60,,,space,0.321295,2,1,0.735645,,0,55,55,53,1,1a,53,3,19,
,,,,,,,,,,,,,,,,,,,,,,,,,,images/exp1b_trial_24_colour2_distractors1_l.png,l,1,011,001,2021-04-19_17h58.15.204,searchDisc4,2020.2.10,Win32,60,,,space,0.412875,1,1,0.64526,,0,56,56,138,1,1b,24,2,1,
,,,,,,,,,,,,,,,,,,,,,,,,,,images/exp2c_trial_64_colour2_distractors9_l.png,l,1,011,001,2021-04-19_17h58.15.204,searchDisc4,2020.2.10,Win32,60,,,space,0.332485,1,1,0.73957,,0,57,57,520,1,2c,64,2,9,
,,,,,,,,,,,,,,,,,,,,,,,,,,images/exp2b_trial_32_colour3_distractors9_l.png,l,1,011,001,2021-04-19_17h58.15.204,searchDisc4,2020.2.10,Win32,60,,,space,0.356885,1,1,1.05774,,0,58,58,374,1,2b,32,3,9,
,,,,,,,,,,,,,,,,,,,,,,,,,,images/exp1a_trial_44_colour2_distractors1_r.png,r,2,011,001,2021-04-19_17h58.15.204,searchDisc4,2020.2.10,Win32,60,,,space,0.37136,2,1,0.84515,space,0,59,59,44,1,1a,44,2,1,0.356345
,,,,,,,,,,,,,,,,,,,,,,,,,,images/exp1a_trial_109_colour3_distractors19_l.png,l,1,011,001,2021-04-19_17h58.15.204,searchDisc4,2020.2.10,Win32,60,,,space,18.22879,1,1,1.27408,,0,60,60,109,1,1a,109,3,19,
,,,,,,,,,,,,,,,,,,,,,,,,,,images/exp1b_trial_78_colour1_distractors9_r.png,r,2,011,001,2021-04-19_17h58.15.204,searchDisc4,2020.2.10,Win32,60,,,space,0.2927,2,1,0.898205,,0,61,61,192,1,1b,78,1,9,
,,,,,,,,,,,,,,,,,,,,,,,,,,images/exp1a_trial_22_colour1_distractors31_l.png,l,1,011,001,2021-04-19_17h58.15.204,searchDisc4,2020.2.10,Win32,60,,,space,0.343375,1,1,0.83939,,0,62,62,22,1,1a,22,1,31,
,,,,,,,,,,,,,,,,,,,,,,,,,,images/exp1b_trial_26_colour2_distractors9_l.png,l,1,011,001,2021-04-19_17h58.15.204,searchDisc4,2020.2.10,Win32,60,,,space,0.341985,1,1,0.781515,,0,63,63,140,1,1b,26,2,9,
,,,,,,,,,,,,,,,,,,,,,,,,,,images/exp1a_trial_41_colour1_distractors19_r.png,r,2,011,001,2021-04-19_17h58.15.204,searchDisc4,2020.2.10,Win32,60,,,space,0.36949,2,1,0.56421,,0,64,64,41,1,1a,41,1,19,
,,,,,,,,,,,,,,,,,,,,,,,,,,images/exp2b_trial_82_colour2_distractors1_r.png,r,2,011,001,2021-04-19_17h58.15.204,searchDisc4,2020.2.10,Win32,60,,,space,0.360635,2,1,0.48252,,0,65,65,424,1,2b,82,2,1,
,,,,,,,,,,,,,,,,,,,,,,,,,,images/exp2b_trial_76_colour1_distractors1_r.png,r,2,011,001,2021-04-19_17h58.15.204,searchDisc4,2020.2.10,Win32,60,,,space,0.355385,2,1,0.469865,,0,66,66,418,1,2b,76,1,1,
,,,,,,,,,,,,,,,,,,,,,,,,,,images/exp1a_trial_7_colour2_distractors4_r.png,r,2,011,001,2021-04-19_17h58.15.204,searchDisc4,2020.2.10,Win32,60,,,space,0.35961,2,1,0.555705,,0,67,67,7,1,1a,7,2,4,
,,,,,,,,,,,,,,,,,,,,,,,,,,images/exp2a_trial_18_colour1_distractors1_l.png,l,1,011,001,2021-04-19_17h58.15.204,searchDisc4,2020.2.10,Win32,60,,,space,0.36297,1,1,0.495975,,0,68,68,246,1,2a,18,1,1,
,,,,,,,,,,,,,,,,,,,,,,,,,,images/exp1a_trial_85_colour2_distractors19_r.png,r,2,011,001,2021-04-19_17h58.15.204,searchDisc4,2020.2.10,Win32,60,,,space,0.40383,2,1,0.92507,,0,69,69,85,1,1a,85,2,19,
,,,,,,,,,,,,,,,,,,,,,,,,,,images/exp2b_trial_39_colour1_distractors4_r.png,r,2,011,001,2021-04-19_17h58.15.204,searchDisc4,2020.2.10,Win32,60,,,space,0.36316,2,1,0.52622,,0,70,70,381,1,2b,39,1,4,
,,,,,,,,,,,,,,,,,,,,,,,,,,images/exp2b_trial_62_colour2_distractors1_l.png,l,1,011,001,2021-04-19_17h58.15.204,searchDisc4,2020.2.10,Win32,60,,,space,0.31631,1,1,0.608895,,0,71,71,404,1,2b,62,2,1,
,,,,,,,,,,,,,,,,,,,,,,,,,,images/exp1a_trial_58_colour1_distractors9_l.png,l,1,011,001,2021-04-19_17h58.15.204,searchDisc4,2020.2.10,Win32,60,,,space,0.32928,1,1,0.57055,,0,72,72,58,1,1a,58,1,9,
,,,,,,,,,,,,,,,,,,,,,,,,,,images/exp1b_trial_22_colour1_distractors31_l.png,l,1,011,001,2021-04-19_17h58.15.204,searchDisc4,2020.2.10,Win32,60,,,space,0.368695,1,1,0.937845,,0,73,73,136,1,1b,22,1,31,
,,,,,,,,,,,,,,,,,,,,,,,,,,images/exp2c_trial_48_colour2_distractors31_r.png,r,2,011,001,2021-04-19_17h58.15.204,searchDisc4,2020.2.10,Win32,60,,,space,0.3618,2,1,0.90998,,0,74,74,504,1,2c,48,2,31,
,,,,,,,,,,,,,,,,,,,,,,,,,,images/exp2a_trial_41_colour1_distractors19_r.png,r,2,011,001,2021-04-19_17h58.15.204,searchDisc4,2020.2.10,Win32,60,,,space,0.32534,2,1,0.70107,,0,75,75,269,1,2a,41,1,19,
,,,,,,,,,,,,,,,,,,,,,,,,,,images/exp1a_trial_99_colour1_distractors43_l.png,l,1,011,001,2021-04-19_17h58.15.204,searchDisc4,2020.2.10,Win32,60,,,space,0.407735,1,1,0.54618,,0,76,76,99,1,1a,99,1,43,
,,,,,,,,,,,,,,,,,,,,,,,,,,images/exp2c_trial_5_colour1_distractors43_r.png,r,2,011,001,2021-04-19_17h58.15.204,searchDisc4,2020.2.10,Win32,60,,,space,0.3576,2,1,0.627495,,0,77,77,461,1,2c,5,1,43,
,,,,,,,,,,,,,,,,,,,,,,,,,,images/exp2a_trial_111_colour3_distractors43_l.png,l,1,011,001,2021-04-19_17h58.15.204,searchDisc4,2020.2.10,Win32,60,,,space,0.356075,1,1,0.503665,,0,78,78,339,1,2a,111,3,43,
,,,,,,,,,,,,,,,,,,,,,,,,,,images/exp2a_trial_71_colour3_distractors19_l.png,l,1,011,001,2021-04-19_17h58.15.204,searchDisc4,2020.2.10,Win32,60,,,space,0.373295,1,1,0.617045,,0,79,79,299,1,2a,71,3,19,
,,,,,,,,,,,,,,,,,,,,,,,,,,images/exp2b_trial_73_colour3_distractors43_l.png,l,1,011,001,2021-04-19_17h58.15.204,searchDisc4,2020.2.10,Win32,60,,,space,0.411875,1,1,0.6491,,0,80,80,415,1,2b,73,3,43,
,,,,,,,,,,,,,,,,,,,,,,,,,,images/exp2a_trial_75_colour0_distractors0_l.png,l,1,011,001,2021-04-19_17h58.15.204,searchDisc4,2020.2.10,Win32,60,,,space,0.37545,1,1,0.66545,,0,81,81,303,1,2a,75,0,0,
,,,,,,,,,,,,,,,,,,,,,,,,,,images/exp1a_trial_23_colour1_distractors43_l.png,l,1,011,001,2021-04-19_17h58.15.204,searchDisc4,2020.2.10,Win32,60,,,space,0.419615,1,1,0.53862,,0,82,82,23,1,1a,23,1,43,
,,,,,,,,,,,,,,,,,,,,,,,,,,images/exp1a_trial_1_colour1_distractors4_r.png,r,2,011,001,2021-04-19_17h58.15.204,searchDisc4,2020.2.10,Win32,60,,,space,0.456715,2,1,0.528155,,0,83,83,1,1,1a,1,1,4,
,,,,,,,,,,,,,,,,,,,,,,,,,,images/exp2c_trial_63_colour2_distractors4_l.png,l,1,011,001,2021-04-19_17h58.15.204,searchDisc4,2020.2.10,Win32,60,,,space,0.371775,1,1,0.716145,,0,84,84,519,1,2c,63,2,4,
,,,,,,,,,,,,,,,,,,,,,,,,,,images/exp1a_trial_27_colour2_distractors19_l.png,l,1,011,001,2021-04-19_17h58.15.204,searchDisc4,2020.2.10,Win32,60,,,space,0.32344,1,1,1.09828,,0,85,85,27,1,1a,27,2,19,
,,,,,,,,,,,,,,,,,,,,,,,,,,images/exp2c_trial_60_colour1_distractors31_l.png,l,1,011,001,2021-04-19_17h58.15.204,searchDisc4,2020.2.10,Win32,60,,,space,0.420715,1,1,0.639545,,0,86,86,516,1,2c,60,1,31,
,,,,,,,,,,,,,,,,,,,,,,,,,,images/exp2b_trial_53_colour3_distractors19_r.png,r,2,011,001,2021-04-19_17h58.15.204,searchDisc4,2020.2.10,Win32,60,,,space,0.37021,2,1,0.864465,,0,87,87,395,1,2b,53,3,19,
,,,,,,,,,,,,,,,,,,,,,,,,,,images/exp1a_trial_112_colour0_distractors0_r.png,r,2,011,001,2021-04-19_17h58.15.204,searchDisc4,2020.2.10,Win32,60,,,space,0.28895,2,1,0.541645,,0,88,88,112,1,1a,112,0,0,
,,,,,,,,,,,,,,,,,,,,,,,,,,images/exp2c_trial_103_colour2_distractors19_l.png,l,1,011,001,2021-04-19_17h58.15.204,searchDisc4,2020.2.10,Win32,60,,,space,0.35084,1,1,1.05344,,0,89,89,559,1,2c,103,2,19,
,,,,,,,,,,,,,,,,,,,,,,,,,,images/exp2b_trial_109_colour3_distractors19_l.png,l,1,011,001,2021-04-19_17h58.15.204,searchDisc4,2020.2.10,Win32,60,,,space,0.32129,1,1,0.64683,,0,90,90,451,1,2b,109,3,19,
,,,,,,,,,,,,,,,,,,,,,,,,,,images/exp2c_trial_78_colour1_distractors9_r.png,r,2,011,001,2021-04-19_17h58.15.204,searchDisc4,2020.2.10,Win32,60,,,space,0.321375,2,1,0.70303,,0,91,91,534,1,2c,78,1,9,
,,,,,,,,,,,,,,,,,,,,,,,,,,images/exp2b_trial_24_colour2_distractors1_l.png,l,1,011,001,2021-04-19_17h58.15.204,searchDisc4,2020.2.10,Win32,60,,,space,0.31134,1,1,0.631225,,0,92,92,366,1,2b,24,2,1,
,,,,,,,,,,,,,,,,,,,,,,,,,,images/exp2c_trial_97_colour1_distractors19_l.png,l,1,011,001,2021-04-19_17h58.15.204,searchDisc4,2020.2.10,Win32,60,,,space,0.33301,1,1,0.587855,,0,93,93,553,1,2c,97,1,19,
,,,,,,,,,,,,,,,,,,,,,,,,,,images/exp1a_trial_20_colour1_distractors9_l.png,l,1,011,001,2021-04-19_17h58.15.204,searchDisc4,2020.2.10,Win32,60,,,space,0.36265,1,1,0.633075,,0,94,94,20,1,1a,20,1,9,
,,,,,,,,,,,,,,,,,,,,,,,,,,images/exp1b_trial_43_colour1_distractors43_r.png,r,2,011,001,2021-04-19_17h58.15.204,searchDisc4,2020.2.10,Win32,60,,,space,0.333135,2,1,1.768055,,0,95,95,157,1,1b,43,1,43,
,,,,,,,,,,,,,,,,,,,,,,,,,,images/exp1a_trial_61_colour1_distractors43_l.png,l,1,011,001,2021-04-19_17h58.15.204,searchDisc4,2020.2.10,Win32,60,,,space,0.27388,1,1,0.6349,,0,96,96,61,1,1a,61,1,43,
,,,,,,,,,,,,,,,,,,,,,,,,,,images/exp1a_trial_3_colour1_distractors19_r.png,r,2,011,001,2021-04-19_17h58.15.204,searchDisc4,2020.2.10,Win32,60,,,space,0.34242,2,1,0.61274,,0,97,97,3,1,1a,3,1,19,
,,,,,,,,,,,,,,,,,,,,,,,,,,images/exp1b_trial_98_colour1_distractors31_l.png,l,1,011,001,2021-04-19_17h58.15.204,searchDisc4,2020.2.10,Win32,60,,,space,0.34256,1,1,0.896075,,0,98,98,212,1,1b,98,1,31,
,,,,,,,,,,,,,,,,,,,,,,,,,,images/exp1b_trial_105_colour2_distractors43_l.png,l,1,011,001,2021-04-19_17h58.15.204,searchDisc4,2020.2.10,Win32,60,,,space,0.302845,1,1,1.234575,,0,99,99,219,1,1b,105,2,43,
,,,,,,,,,,,,,,,,,,,,,,,,,,images/exp2a_trial_88_colour3_distractors1_r.png,r,2,011,001,2021-04-19_17h58.15.204,searchDisc4,2020.2.10,Win32,60,,,space,0.310165,2,1,1.005645,,0,100,100,316,1,2a,88,3,1,
,,,,,,,,,,,,,,,,,,,,,,,,,,images/exp2b_trial_106_colour3_distractors1_l.png,l,1,011,001,2021-04-19_17h58.15.204,searchDisc4,2020.2.10,Win32,60,,,space,0.31595,1,1,0.622065,,0,101,101,448,1,2b,106,3,1,
,,,,,,,,,,,,,,,,,,,,,,,,,,images/exp1b_trial_72_colour3_distractors31_l.png,l,1,011,001,2021-04-19_17h58.15.204,searchDisc4,2020.2.10,Win32,60,,,space,0.366995,1,1,1.6402,,0,102,102,186,1,1b,72,3,31,
,,,,,,,,,,,,,,,,,,,,,,,,,,images/exp2a_trial_37_colour0_distractors0_l.png,l,1,011,001,2021-04-19_17h58.15.204,searchDisc4,2020.2.10,Win32,60,,,space,0.322995,1,1,0.50018,,0,103,103,265,1,2a,37,0,0,
,,,,,,,,,,,,,,,,,,,,,,,,,,images/exp2c_trial_35_colour3_distractors43_l.png,l,1,011,001,2021-04-19_17h58.15.204,searchDisc4,2020.2.10,Win32,60,,,space,0.40475,1,1,0.59895,,0,104,104,491,1,2c,35,3,43,
,,,,,,,,,,,,,,,,,,,,,,,,,,images/exp1b_trial_17_colour3_distractors43_r.png,r,2,011,001,2021-04-19_17h58.15.204,searchDisc4,2020.2.10,Win32,60,,,space,0.49188,2,1,2.9853,,0,105,105,131,1,1b,17,3,43,
,,,,,,,,,,,,,,,,,,,,,,,,,,images/exp1a_trial_17_colour3_distractors43_r.png,r,2,011,001,2021-04-19_17h58.15.204,searchDisc4,2020.2.10,Win32,60,,,space,0.27572,2,1,0.689355,,0,106,106,17,1,1a,17,3,43,
,,,,,,,,,,,,,,,,,,,,,,,,,,images/exp2b_trial_25_colour2_distractors4_l.png,l,1,011,001,2021-04-19_17h58.15.204,searchDisc4,2020.2.10,Win32,60,,,space,0.350425,1,1,0.68649,,0,107,107,367,1,2b,25,2,4,
,,,,,,,,,,,,,,,,,,,,,,,,,,images/exp2c_trial_91_colour3_distractors19_r.png,r,2,011,001,2021-04-19_17h58.15.204,searchDisc4,2020.2.10,Win32,60,,,space,0.34394,2,1,0.7623,,0,108,108,547,1,2c,91,3,19,
,,,,,,,,,,,,,,,,,,,,,,,,,,images/exp2a_trial_107_colour3_distractors4_l.png,l,1,011,001,2021-04-19_17h58.15.204,searchDisc4,2020.2.10,Win32,60,,,space,0.33441,1,1,0.620225,,0,109,109,335,1,2a,107,3,4,
,,,,,,,,,,,,,,,,,,,,,,,,,,images/exp1a_trial_10_colour2_distractors31_r.png,r,2,011,001,2021-04-19_17h58.15.204,searchDisc4,2020.2.10,Win32,60,,,space,0.36714,2,1,0.753105,,0,110,110,10,1,1a,10,2,31,
,,,,,,,,,,,,,,,,,,,,,,,,,,images/exp2a_trial_112_colour0_distractors0_r.png,r,2,011,001,2021-04-19_17h58.15.204,searchDisc4,2020.2.10,Win32,60,,,space,0.318835,2,1,0.613995,,0,111,111,340,1,2a,112,0,0,
,,,,,,,,,,,,,,,,,,,,,,,,,,images/exp1a_trial_83_colour2_distractors4_r.png,r,2,011,001,2021-04-19_17h58.15.204,searchDisc4,2020.2.10,Win32,60,,,space,0.32829,2,1,0.54949,,0,112,112,83,1,1a,83,2,4,
,,,,,,,,,,,,,,,,,,,,,,,,,,images/exp1a_trial_97_colour1_distractors19_l.png,l,1,011,001,2021-04-19_17h58.15.204,searchDisc4,2020.2.10,Win32,60,,,space,0.32397,1,1,0.601875,,0,113,113,97,1,1a,97,1,19,
,,,,,,,,,,,,,,,,,,,,,,,,,,images/exp2a_trial_26_colour2_distractors9_l.png,l,1,011,001,2021-04-19_17h58.15.204,searchDisc4,2020.2.10,Win32,60,,,space,0.332625,1,1,0.59507,,0,114,114,254,1,2a,26,2,9,
,,,,,,,,,,,,,,,,,,,,,,,,,,images/exp2c_trial_15_colour3_distractors19_r.png,r,2,011,001,2021-04-19_17h58.15.204,searchDisc4,2020.2.10,Win32,60,,,space,0.398495,2,1,0.486035,,0,115,115,471,1,2c,15,3,19,
,,,,,,,,,,,,,,,,,,,,,,,,,,images/exp2b_trial_0_colour1_distractors1_r.png,r,2,011,001,2021-04-19_17h58.15.204,searchDisc4,2020.2.10,Win32,60,,,space,0.352115,2,1,0.667,,0,116,116,342,1,2b,0,1,1,
,,,,,,,,,,,,,,,,,,,,,,,,,,images/exp1a_trial_60_colour1_distractors31_l.png,l,1,011,001,2021-04-19_17h58.15.204,searchDisc4,2020.2.10,Win32,60,,,space,0.406095,1,1,0.571665,,0,117,117,60,1,1a,60,1,31,
,,,,,,,,,,,,,,,,,,,,,,,,,,images/exp1b_trial_71_colour3_distractors19_l.png,l,1,011,001,2021-04-19_17h58.15.204,searchDisc4,2020.2.10,Win32,60,,,space,0.365625,1,1,1.259485,,0,118,118,185,1,1b,71,3,19,
,,,,,,,,,,,,,,,,,,,,,,,,,,images/exp2b_trial_54_colour3_distractors31_r.png,r,2,011,001,2021-04-19_17h58.15.204,searchDisc4,2020.2.10,Win32,60,,,space,0.366835,2,1,0.820855,space,0,119,119,396,1,2b,54,3,31,2.183425
,,,,,,,,,,,,,,,,,,,,,,,,,,images/exp1a_trial_18_colour1_distractors1_l.png,l,1,011,001,2021-04-19_17h58.15.204,searchDisc4,2020.2.10,Win32,60,,,space,0.942735,1,1,0.73476,,0,120,120,18,1,1a,18,1,1,
,,,,,,,,,,,,,,,,,,,,,,,,,,images/exp2c_trial_2_colour1_distractors9_r.png,r,2,011,001,2021-04-19_17h58.15.204,searchDisc4,2020.2.10,Win32,60,,,space,0.329115,2,1,0.56296,,0,121,121,458,1,2c,2,1,9,
,,,,,,,,,,,,,,,,,,,,,,,,,,images/exp2b_trial_63_colour2_distractors4_l.png,l,1,011,001,2021-04-19_17h58.15.204,searchDisc4,2020.2.10,Win32,60,,,space,0.30018,1,1,0.49268,,0,122,122,405,1,2b,63,2,4,
,,,,,,,,,,,,,,,,,,,,,,,,,,images/exp1a_trial_65_colour2_distractors19_l.png,l,1,011,001,2021-04-19_17h58.15.204,searchDisc4,2020.2.10,Win32,60,,,space,0.331205,1,1,1.021825,,0,123,123,65,1,1a,65,2,19,
,,,,,,,,,,,,,,,,,,,,,,,,,,images/exp2a_trial_39_colour1_distractors4_r.png,r,2,011,001,2021-04-19_17h58.15.204,searchDisc4,2020.2.10,Win32,60,,,space,0.312405,2,1,0.81162,,0,124,124,267,1,2a,39,1,4,
,,,,,,,,,,,,,,,,,,,,,,,,,,images/exp2c_trial_51_colour3_distractors4_r.png,r,2,011,001,2021-04-19_17h58.15.204,searchDisc4,2020.2.10,Win32,60,,,space,0.29206,2,1,0.61453,,0,125,125,507,1,2c,51,3,4,
,,,,,,,,,,,,,,,,,,,,,,,,,,images/exp2b_trial_95_colour1_distractors4_l.png,l,1,011,001,2021-04-19_17h58.15.204,searchDisc4,2020.2.10,Win32,60,,,space,0.278555,1,1,0.539095,,0,126,126,437,1,2b,95,1,4,
,,,,,,,,,,,,,,,,,,,,,,,,,,images/exp2b_trial_85_colour2_distractors19_r.png,r,2,011,001,2021-04-19_17h58.15.204,searchDisc4,2020.2.10,Win32,60,,,space,0.36681,2,1,0.54669,,0,127,127,427,1,2b,85,2,19,
,,,,,,,,,,,,,,,,,,,,,,,,,,images/exp2c_trial_1_colour1_distractors4_r.png,r,2,011,001,2021-04-19_17h58.15.204,searchDisc4,2020.2.10,Win32,60,,,space,0.321315,2,1,0.6338,,0,128,128,457,1,2c,1,1,4,
,,,,,,,,,,,,,,,,,,,,,,,,,,images/exp2a_trial_74_colour0_distractors0_r.png,r,2,011,001,2021-04-19_17h58.15.204,searchDisc4,2020.2.10,Win32,60,,,space,0.316915,2,1,0.53103,,0,129,129,302,1,2a,74,0,0,
,,,,,,,,,,,,,,,,,,,,,,,,,,images/exp1b_trial_74_colour0_distractors0_r.png,r,2,011,001,2021-04-19_17h58.15.204,searchDisc4,2020.2.10,Win32,60,,,space,0.401605,2,1,0.64225,,0,130,130,188,1,1b,74,0,0,
,,,,,,,,,,,,,,,,,,,,,,,,,,images/exp1b_trial_42_colour1_distractors31_r.png,r,2,011,001,2021-04-19_17h58.15.204,searchDisc4,2020.2.10,Win32,60,,,space,0.31775,2,1,0.79177,,0,131,131,156,1,1b,42,1,31,
,,,,,,,,,,,,,,,,,,,,,,,,,,images/exp1a_trial_24_colour2_distractors1_l.png,l,1,011,001,2021-04-19_17h58.15.204,searchDisc4,2020.2.10,Win32,60,,,space,0.283635,1,1,0.606215,,0,132,132,24,1,1a,24,2,1,
,,,,,,,,,,,,,,,,,,,,,,,,,,images/exp2b_trial_100_colour2_distractors1_l.png,l,1,011,001,2021-04-19_17h58.15.204,searchDisc4,2020.2.10,Win32,60,,,space,0.428755,1,1,0.559395,,0,133,133,442,1,2b,100,2,1,
,,,,,,,,,,,,,,,,,,,,,,,,,,images/exp1a_trial_52_colour3_distractors9_r.png,r,2,011,001,2021-04-19_17h58.15.204,searchDisc4,2020.2.10,Win32,60,,,space,0.36683,2,1,0.58858,,0,134,134,52,1,1a,52,3,9,
,,,,,,,,,,,,,,,,,,,,,,,,,,images/exp1a_trial_78_colour1_distractors9_r.png,r,2,011,001,2021-04-19_17h58.15.204,searchDisc4,2020.2.10,Win32,60,,,space,0.3169,2,1,0.50663,,0,135,135,78,1,1a,78,1,9,
,,,,,,,,,,,,,,,,,,,,,,,,,,images/exp1b_trial_100_colour2_distractors1_l.png,l,1,011,001,2021-04-19_17h58.15.204,searchDisc4,2020.2.10,Win32,60,,,space,0.333695,1,1,0.56868,,0,136,136,214,1,1b,100,2,1,
,,,,,,,,,,,,,,,,,,,,,,,,,,images/exp1b_trial_9_colour2_distractors19_r.png,r,2,011,001,2021-04-19_17h58.15.204,searchDisc4,2020.2.10,Win32,60,,,space,0.350645,2,1,1.160655,,0,137,137,123,1,1b,9,2,19,
,,,,,,,,,,,,,,,,,,,,,,,,,,images/exp2c_trial_75_colour0_distractors0_l.png,l,1,011,001,2021-04-19_17h58.15.204,searchDisc4,2020.2.10,Win32,60,,,space,0.31971,1,1,0.62485,,0,138,138,531,1,2c,75,0,0,
,,,,,,,,,,,,,,,,,,,,,,,,,,images/exp2c_trial_108_colour3_distractors9_l.png,l,1,011,001,2021-04-19_17h58.15.204,searchDisc4,2020.2.10,Win32,60,,,space,0.353745,1,1,0.583675,,0,139,139,564,1,2c,108,3,9,
,,,,,,,,,,,,,,,,,,,,,,,,,,images/exp1a_trial_100_colour2_distractors1_l.png,l,1,011,001,2021-04-19_17h58.15.204,searchDisc4,2020.2.10,Win32,60,,,space,0.40023,2,0,0.58854,,0,140,140,100,1,1a,100,2,1,
,,,,,,,,,,,,,,,,,,,,,,,,,,images/exp2c_trial_33_colour3_distractors19_l.png,l,1,011,001,2021-04-19_17h58.15.204,searchDisc4,2020.2.10,Win32,60,,,space,0.50352,1,1,0.548635,,0,141,141,489,1,2c,33,3,19,
,,,,,,,,,,,,,,,,,,,,,,,,,,images/exp2b_trial_5_colour1_distractors43_r.png,r,2,011,001,2021-04-19_17h58.15.204,searchDisc4,2020.2.10,Win32,60,,,space,0.322035,2,1,0.73803,,0,142,142,347,1,2b,5,1,43,
,,,,,,,,,,,,,,,,,,,,,,,,,,images/exp2b_trial_70_colour3_distractors9_l.png,l,1,011,001,2021-04-19_17h58.15.204,searchDisc4,2020.2.10,Win32,60,,,space,0.4004,1,1,0.647985,,0,143,143,412,1,2b,70,3,9,
,,,,,,,,,,,,,,,,,,,,,,,,,,images/exp2a_trial_103_colour2_distractors19_l.png,l,1,011,001,2021-04-19_17h58.15.204,searchDisc4,2020.2.10,Win32,60,,,space,0.37147,1,1,0.74581,,0,144,144,331,1,2a,103,2,19,
,,,,,,,,,,,,,,,,,,,,,,,,,,images/exp1a_trial_70_colour3_distractors9_l.png,l,1,011,001,2021-04-19_17h58.15.204,searchDisc4,2020.2.10,Win32,60,,,space,0.350355,1,1,0.590735,,0,145,145,70,1,1a,70,3,9,
,,,,,,,,,,,,,,,,,,,,,,,,,,images/exp2c_trial_13_colour3_distractors4_r.png,r,2,011,001,2021-04-19_17h58.15.204,searchDisc4,2020.2.10,Win32,60,,,space,0.399855,2,1,0.793895,,0,146,146,469,1,2c,13,3,4,
,,,,,,,,,,,,,,,,,,,,,,,,,,images/exp1b_trial_3_colour1_distractors19_r.png,r,2,011,001,2021-04-19_17h58.15.204,searchDisc4,2020.2.10,Win32,60,,,space,0.316945,2,1,0.75083,,0,147,147,117,1,1b,3,1,19,
,,,,,,,,,,,,,,,,,,,,,,,,,,images/exp2c_trial_57_colour1_distractors4_l.png,l,1,011,001,2021-04-19_17h58.15.204,searchDisc4,2020.2.10,Win32,60,,,space,0.366965,1,1,0.50836,,0,148,148,513,1,2c,57,1,4,
,,,,,,,,,,,,,,,,,,,,,,,,,,images/exp1b_trial_79_colour1_distractors19_r.png,r,2,011,001,2021-04-19_17h58.15.204,searchDisc4,2020.2.10,Win32,60,,,space,0.32411,2,1,0.6253,,0,149,149,193,1,1b,79,1,19,
,,,,,,,,,,,,,,,,,,,,,,,,,,images/exp2a_trial_83_colour2_distractors4_r.png,r,2,011,001,2021-04-19_17h58.15.204,searchDisc4,2020.2.10,Win32,60,,,space,0.29333,2,1,0.547995,,0,150,150,311,1,2a,83,2,4,
,,,,,,,,,,,,,,,,,,,,,,,,,,images/exp2c_trial_54_colour3_distractors31_r.png,r,2,011,001,2021-04-19_17h58.15.204,searchDisc4,2020.2.10,Win32,60,,,space,0.383545,2,1,0.519485,,0,151,151,510,1,2c,54,3,31,
,,,,,,,,,,,,,,,,,,,,,,,,,,images/exp2b_trial_93_colour3_distractors43_r.png,r,2,011,001,2021-04-19_17h58.15.204,searchDisc4,2020.2.10,Win32,60,,,space,0.4503,2,1,0.87521,,0,152,152,435,1,2b,93,3,43,
,,,,,,,,,,,,,,,,,,,,,,,,,,images/exp2a_trial_35_colour3_distractors43_l.png,l,1,011,001,2021-04-19_17h58.15.204,searchDisc4,2020.2.10,Win32,60,,,space,0.33487,1,1,0.60756,,0,153,153,263,1,2a,35,3,43,
,,,,,,,,,,,,,,,,,,,,,,,,,,images/exp1a_trial_104_colour2_distractors31_l.png,l,1,011,001,2021-04-19_17h58.15.204,searchDisc4,2020.2.10,Win32,60,,,space,0.327995,1,1,1.134695,,0,154,154,104,1,1a,104,2,31,
,,,,,,,,,,,,,,,,,,,,,,,,,,images/exp2a_trial_84_colour2_distractors9_r.png,r,2,011,001,2021-04-19_17h58.15.204,searchDisc4,2020.2.10,Win32,60,,,space,0.34739,2,1,0.546565,,0,155,155,312,1,2a,84,2,9,
,,,,,,,,,,,,,,,,,,,,,,,,,,images/exp1a_trial_64_colour2_distractors9_l.png,l,1,011,001,2021-04-19_17h58.15.204,searchDisc4,2020.2.10,Win32,60,,,space,0.350175,1,1,0.78843,,0,156,156,64,1,1a,64,2,9,
,,,,,,,,,,,,,,,,,,,,,,,,,,images/exp2a_trial_77_colour1_distractors4_r.png,r,2,011,001,2021-04-19_17h58.15.204,searchDisc4,2020.2.10,Win32,60,,,space,0.333595,2,1,0.70732,,0,157,157,305,1,2a,77,1,4,
,,,,,,,,,,,,,,,,,,,,,,,,,,images/exp2a_trial_2_colour1_distractors9_r.png,r,2,011,001,2021-04-19_17h58.15.204,searchDisc4,2020.2.10,Win32,60,,,space,0.380215,2,1,0.91715,,0,158,158,230,1,2a,2,1,9,
,,,,,,,,,,,,,,,,,,,,,,,,,,images/exp1b_trial_53_colour3_distractors19_r.png,r,2,011,001,2021-04-19_17h58.15.204,searchDisc4,2020.2.10,Win32,60,,,space,0.386335,2,1,1.57784,,0,159,159,167,1,1b,53,3,19,
,,,,,,,,,,,,,,,,,,,,,,,,,,images/exp2b_trial_50_colour3_distractors1_r.png,r,2,011,001,2021-04-19_17h58.15.204,searchDisc4,2020.2.10,Win32,60,,,space,0.31697,2,1,0.67375,,0,160,160,392,1,2b,50,3,1,
,,,,,,,,,,,,,,,,,,,,,,,,,,images/exp2b_trial_38_colour1_distractors1_r.png,r,2,011,001,2021-04-19_17h58.15.204,searchDisc4,2020.2.10,Win32,60,,,space,0.30253,2,1,0.5719,,0,161,161,380,1,2b,38,1,1,
,,,,,,,,,,,,,,,,,,,,,,,,,,images/exp1a_trial_38_colour1_distractors1_r.png,r,2,011,001,2021-04-19_17h58.15.204,searchDisc4,2020.2.10,Win32,60,,,space,0.55051,2,1,0.49082,,0,162,162,38,1,1a,38,1,1,
,,,,,,,,,,,,,,,,,,,,,,,,,,images/exp2b_trial_36_colour0_distractors0_r.png,r,2,011,001,2021-04-19_17h58.15.204,searchDisc4,2020.2.10,Win32,60,,,space,0.450245,2,1,0.65016,,0,163,163,378,1,2b,36,0,0,
,,,,,,,,,,,,,,,,,,,,,,,,,,images/exp2c_trial_16_colour3_distractors31_r.png,r,2,011,001,2021-04-19_17h58.15.204,searchDisc4,2020.2.10,Win32,60,,,space,0.31775,2,1,0.473905,,0,164,164,472,1,2c,16,3,31,
,,,,,,,,,,,,,,,,,,,,,,,,,,images/exp2a_trial_29_colour2_distractors43_l.png,l,1,011,001,2021-04-19_17h58.15.204,searchDisc4,2020.2.10,Win32,60,,,space,0.333705,1,1,0.60616,,0,165,165,257,1,2a,29,2,43,
,,,,,,,,,,,,,,,,,,,,,,,,,,images/exp2b_trial_2_colour1_distractors9_r.png,r,2,011,001,2021-04-19_17h58.15.204,searchDisc4,2020.2.10,Win32,60,,,space,0.30079,2,1,0.485965,,0,166,166,344,1,2b,2,1,9,
,,,,,,,,,,,,,,,,,,,,,,,,,,images/exp2a_trial_96_colour1_distractors9_l.png,l,1,011,001,2021-04-19_17h58.15.204,searchDisc4,2020.2.10,Win32,60,,,space,0.320375,1,1,0.53663,,0,167,167,324,1,2a,96,1,9,
,,,,,,,,,,,,,,,,,,,,,,,,,,images/exp2b_trial_99_colour1_distractors43_l.png,l,1,011,001,2021-04-19_17h58.15.204,searchDisc4,2020.2.10,Win32,60,,,space,0.31692,1,1,0.68879,,0,168,168,441,1,2b,99,1,43,
,,,,,,,,,,,,,,,,,,,,,,,,,,images/exp1b_trial_83_colour2_distractors4_r.png,r,2,011,001,2021-04-19_17h58.15.204,searchDisc4,2020.2.10,Win32,60,,,space,0.356785,2,1,0.676395,,0,169,169,197,1,1b,83,2,4,
,,,,,,,,,,,,,,,,,,,,,,,,,,images/exp2c_trial_100_colour2_distractors1_l.png,l,1,011,001,2021-04-19_17h58.15.204,searchDisc4,2020.2.10,Win32,60,,,space,0.31683,1,1,0.793275,,0,170,170,556,1,2c,100,2,1,
,,,,,,,,,,,,,,,,,,,,,,,,,,images/exp2b_trial_8_colour2_distractors9_r.png,r,2,011,001,2021-04-19_17h58.15.204,searchDisc4,2020.2.10,Win32,60,,,space,0.3169,2,1,0.49085,,0,171,171,350,1,2b,8,2,9,
,,,,,,,,,,,,,,,,,,,,,,,,,,images/exp1a_trial_92_colour3_distractors31_r.png,r,2,011,001,2021-04-19_17h58.15.204,searchDisc4,2020.2.10,Win32,60,,,space,0.366835,2,1,0.54314,,0,172,172,92,1,1a,92,3,31,
,,,,,,,,,,,,,,,,,,,,,,,,,,images/exp1a_trial_110_colour3_distractors31_l.png,l,1,011,001,2021-04-19_17h58.15.204,searchDisc4,2020.2.10,Win32,60,,,space,0.344635,1,1,0.586795,,0,173,173,110,1,1a,110,3,31,
,,,,,,,,,,,,,,,,,,,,,,,,,,images/exp1a_trial_101_colour2_distractors4_l.png,l,1,011,001,2021-04-19_17h58.15.204,searchDisc4,2020.2.10,Win32,60,,,space,0.383615,1,1,0.908745,,0,174,174,101,1,1a,101,2,4,
,,,,,,,,,,,,,,,,,,,,,,,,,,images/exp2c_trial_92_colour3_distractors31_r.png,r,2,011,001,2021-04-19_17h58.15.204,searchDisc4,2020.2.10,Win32,60,,,space,0.383525,2,1,0.642325,,0,175,175,548,1,2c,92,3,31,
,,,,,,,,,,,,,,,,,,,,,,,,,,images/exp1b_trial_67_colour2_distractors43_l.png,l,1,011,001,2021-04-19_17h58.15.204,searchDisc4,2020.2.10,Win32,60,,,space,0.351265,1,1,1.1278,,0,176,176,181,1,1b,67,2,43,
,,,,,,,,,,,,,,,,,,,,,,,,,,images/exp1a_trial_5_colour1_distractors43_r.png,r,2,011,001,2021-04-19_17h58.15.204,searchDisc4,2020.2.10,Win32,60,,,space,0.329495,2,1,0.644565,,0,177,177,5,1,1a,5,1,43,
,,,,,,,,,,,,,,,,,,,,,,,,,,images/exp1b_trial_85_colour2_distractors19_r.png,r,2,011,001,2021-04-19_17h58.15.204,searchDisc4,2020.2.10,Win32,60,,,space,0.40027,2,1,2.80688,,0,178,178,199,1,1b,85,2,19,
,,,,,,,,,,,,,,,,,,,,,,,,,,images/exp2b_trial_49_colour2_distractors43_r.png,r,2,011,001,2021-04-19_17h58.15.204,searchDisc4,2020.2.10,Win32,60,,,space,0.33378,2,1,0.714485,space,0,179,179,391,1,2b,49,2,43,1.174505
,,,,,,,,,,,,,,,,,,,,,,,,,,images/exp1a_trial_36_colour0_distractors0_r.png,r,2,011,001,2021-04-19_17h58.15.204,searchDisc4,2020.2.10,Win32,60,,,space,1.00292,2,1,0.660495,,0,180,180,36,1,1a,36,0,0,
,,,,,,,,,,,,,,,,,,,,,,,,,,images/exp2a_trial_59_colour1_distractors19_l.png,l,1,011,001,2021-04-19_17h58.15.204,searchDisc4,2020.2.10,Win32,60,,,space,0.351955,1,1,0.948705,,0,181,181,287,1,2a,59,1,19,
,,,,,,,,,,,,,,,,,,,,,,,,,,images/exp1b_trial_107_colour3_distractors4_l.png,l,1,011,001,2021-04-19_17h58.15.204,searchDisc4,2020.2.10,Win32,60,,,space,0.346225,1,1,0.90325,,0,182,182,221,1,1b,107,3,4,
,,,,,,,,,,,,,,,,,,,,,,,,,,images/exp2a_trial_45_colour2_distractors4_r.png,r,2,011,001,2021-04-19_17h58.15.204,searchDisc4,2020.2.10,Win32,60,,,space,0.37009,2,1,0.483305,,0,183,183,273,1,2a,45,2,4,
,,,,,,,,,,,,,,,,,,,,,,,,,,images/exp2a_trial_50_colour3_distractors1_r.png,r,2,011,001,2021-04-19_17h58.15.204,searchDisc4,2020.2.10,Win32,60,,,space,0.3637,2,1,0.994945,,0,184,184,278,1,2a,50,3,1,
,,,,,,,,,,,,,,,,,,,,,,,,,,images/exp2a_trial_4_colour1_distractors31_r.png,r,2,011,001,2021-04-19_17h58.15.204,searchDisc4,2020.2.10,Win32,60,,,space,0.35008,2,1,0.8222,,0,185,185,232,1,2a,4,1,31,
,,,,,,,,,,,,,,,,,,,,,,,,,,images/exp1a_trial_91_colour3_distractors19_r.png,r,2,011,001,2021-04-19_17h58.15.204,searchDisc4,2020.2.10,Win32,60,,,space,0.380385,2,1,0.65704,,0,186,186,91,1,1a,91,3,19,
,,,,,,,,,,,,,,,,,,,,,,,,,,images/exp2c_trial_53_colour3_distractors19_r.png,r,2,011,001,2021-04-19_17h58.15.204,searchDisc4,2020.2.10,Win32,60,,,space,0.411375,2,1,0.6786,,0,187,187,509,1,2c,53,3,19,
,,,,,,,,,,,,,,,,,,,,,,,,,,images/exp2b_trial_7_colour2_distractors4_r.png,r,2,011,001,2021-04-19_17h58.15.204,searchDisc4,2020.2.10,Win32,60,,,space,0.386965,2,1,0.55566,,0,188,188,349,1,2b,7,2,4,
,,,,,,,,,,,,,,,,,,,,,,,,,,images/exp2b_trial_42_colour1_distractors31_r.png,r,2,011,001,2021-04-19_17h58.15.204,searchDisc4,2020.2.10,Win32,60,,,space,0.499805,2,1,0.53905,,0,189,189,384,1,2b,42,1,31,
,,,,,,,,,,,,,,,,,,,,,,,,,,images/exp2b_trial_83_colour2_distractors4_r.png,r,2,011,001,2021-04-19_17h58.15.204,searchDisc4,2020.2.10,Win32,60,,,space,0.57134,2,1,0.58333,,0,190,190,425,1,2b,83,2,4,
,,,,,,,,,,,,,,,,,,,,,,,,,,images/exp2c_trial_19_colour1_distractors4_l.png,l,1,011,001,2021-04-19_17h58.15.204,searchDisc4,2020.2.10,Win32,60,,,space,0.4465,1,1,0.59469,,0,191,191,475,1,2c,19,1,4,
,,,,,,,,,,,,,,,,,,,,,,,,,,images/exp2a_trial_56_colour1_distractors1_l.png,l,1,011,001,2021-04-19_17h58.15.204,searchDisc4,2020.2.10,Win32,60,,,space,0.408695,1,1,0.51471,,0,192,192,284,1,2a,56,1,1,
,,,,,,,,,,,,,,,,,,,,,,,,,,images/exp1b_trial_47_colour2_distractors19_r.png,r,2,011,001,2021-04-19_17h58.15.204,searchDisc4,2020.2.10,Win32,60,,,space,0.41663,2,1,0.8187,,0,193,193,161,1,1b,47,2,19,
,,,,,,,,,,,,,,,,,,,,,,,,,,images/exp2b_trial_6_colour2_distractors1_r.png,r,2,011,001,2021-04-19_17h58.15.204,searchDisc4,2020.2.10,Win32,60,,,space,0.366695,2,1,0.503085,,0,194,194,348,1,2b,6,2,1,
,,,,,,,,,,,,,,,,,,,,,,,,,,images/exp2a_trial_98_colour1_distractors31_l.png,l,1,011,001,2021-04-19_17h58.15.204,searchDisc4,2020.2.10,Win32,60,,,space,0.421575,1,1,0.70983,,0,195,195,326,1,2a,98,1,31,
,,,,,,,,,,,,,,,,,,,,,,,,,,images/exp2c_trial_67_colour2_distractors43_l.png,l,1,011,001,2021-04-19_17h58.15.204,searchDisc4,2020.2.10,Win32,60,,,space,0.37053,1,1,1.006525,,0,196,196,523,1,2c,67,2,43,
,,,,,,,,,,,,,,,,,,,,,,,,,,images/exp2a_trial_105_colour2_distractors43_l.png,l,1,011,001,2021-04-19_17h58.15.204,searchDisc4,2020.2.10,Win32,60,,,space,0.40965,1,1,0.56931,,0,197,197,333,1,2a,105,2,43,
,,,,,,,,,,,,,,,,,,,,,,,,,,images/exp1b_trial_2_colour1_distractors9_r.png,r,2,011,001,2021-04-19_17h58.15.204,searchDisc4,2020.2.10,Win32,60,,,space,0.42653,2,1,0.860965,,0,198,198,116,1,1b,2,1,9,
,,,,,,,,,,,,,,,,,,,,,,,,,,images/exp2c_trial_99_colour1_distractors43_l.png,l,1,011,001,2021-04-19_17h58.15.204,searchDisc4,2020.2.10,Win32,60,,,space,0.307885,1,1,0.55104,,0,199,199,555,1,2c,99,1,43,
,,,,,,,,,,,,,,,,,,,,,,,,,,images/exp2a_trial_44_colour2_distractors1_r.png,r,2,011,001,2021-04-19_17h58.15.204,searchDisc4,2020.2.10,Win32,60,,,space,0.3555,2,1,0.533,,0,200,200,272,1,2a,44,2,1,
,,,,,,,,,,,,,,,,,,,,,,,,,,images/exp1a_trial_47_colour2_distractors19_r.png,r,2,011,001,2021-04-19_17h58.15.204,searchDisc4,2020.2.10,Win32,60,,,space,0.32669,2,1,0.66747,,0,201,201,47,1,1a,47,2,19,
,,,,,,,,,,,,,,,,,,,,,,,,,,images/exp1b_trial_31_colour3_distractors4_l.png,l,1,011,001,2021-04-19_17h58.15.204,searchDisc4,2020.2.10,Win32,60,,,space,0.367435,1,1,1.024275,,0,202,202,145,1,1b,31,3,4,
,,,,,,,,,,,,,,,,,,,,,,,,,,images/exp2a_trial_33_colour3_distractors19_l.png,l,1,011,001,2021-04-19_17h58.15.204,searchDisc4,2020.2.10,Win32,60,,,space,0.33958,1,1,0.610635,,0,203,203,261,1,2a,33,3,19,
,,,,,,,,,,,,,,,,,,,,,,,,,,images/exp1a_trial_59_colour1_distractors19_l.png,l,1,011,001,2021-04-19_17h58.15.204,searchDisc4,2020.2.10,Win32,60,,,space,0.364425,1,1,0.574325,,0,204,204,59,1,1a,59,1,19,
,,,,,,,,,,,,,,,,,,,,,,,,,,images/exp1a_trial_98_colour1_distractors31_l.png,l,1,011,001,2021-04-19_17h58.15.204,searchDisc4,2020.2.10,Win32,60,,,space,0.391225,1,1,0.55083,,0,205,205,98,1,1a,98,1,31,
,,,,,,,,,,,,,,,,,,,,,,,,,,images/exp2c_trial_88_colour3_distractors1_r.png,r,2,011,001,2021-04-19_17h58.15.204,searchDisc4,2020.2.10,Win32,60,,,space,0.367,2,1,0.723755,,0,206,206,544,1,2c,88,3,1,
,,,,,,,,,,,,,,,,,,,,,,,,,,images/exp1a_trial_73_colour3_distractors43_l.png,l,1,011,001,2021-04-19_17h58.15.204,searchDisc4,2020.2.10,Win32,60,,,space,0.305365,1,1,0.576055,,0,207,207,73,1,1a,73,3,43,
,,,,,,,,,,,,,,,,,,,,,,,,,,images/exp1a_trial_21_colour1_distractors19_l.png,l,1,011,001,2021-04-19_17h58.15.204,searchDisc4,2020.2.10,Win32,60,,,space,0.460885,1,1,0.51722,,0,208,208,21,1,1a,21,1,19,
,,,,,,,,,,,,,,,,,,,,,,,,,,images/exp2b_trial_87_colour2_distractors43_r.png,r,2,011,001,2021-04-19_17h58.15.204,searchDisc4,2020.2.10,Win32,60,,,space,0.408785,2,1,0.594805,,0,209,209,429,1,2b,87,2,43,
,,,,,,,,,,,,,,,,,,,,,,,,,,images/exp1b_trial_109_colour3_distractors19_l.png,l,1,011,001,2021-04-19_17h58.15.204,searchDisc4,2020.2.10,Win32,60,,,space,0.36031,1,1,2.81582,,0,210,210,223,1,1b,109,3,19,
,,,,,,,,,,,,,,,,,,,,,,,,,,images/exp1a_trial_56_colour1_distractors1_l.png,l,1,011,001,2021-04-19_17h58.15.204,searchDisc4,2020.2.10,Win32,60,,,space,0.310765,1,1,0.47781,,0,211,211,56,1,1a,56,1,1,
,,,,,,,,,,,,,,,,,,,,,,,,,,images/exp1a_trial_4_colour1_distractors31_r.png,r,2,011,001,2021-04-19_17h58.15.204,searchDisc4,2020.2.10,Win32,60,,,space,0.380425,2,1,0.565205,,0,212,212,4,1,1a,4,1,31,
,,,,,,,,,,,,,,,,,,,,,,,,,,images/exp1a_trial_16_colour3_distractors31_r.png,r,2,011,001,2021-04-19_17h58.15.204,searchDisc4,2020.2.10,Win32,60,,,space,0.33021,2,1,0.635315,,0,213,213,16,1,1a,16,3,31,
,,,,,,,,,,,,,,,,,,,,,,,,,,images/exp2a_trial_8_colour2_distractors9_r.png,r,2,011,001,2021-04-19_17h58.15.204,searchDisc4,2020.2.10,Win32,60,,,space,0.36603,2,1,0.576695,,0,214,214,236,1,2a,8,2,9,
,,,,,,,,,,,,,,,,,,,,,,,,,,images/exp2b_trial_110_colour3_distractors31_l.png,l,1,011,001,2021-04-19_17h58.15.204,searchDisc4,2020.2.10,Win32,60,,,space,0.34664,1,1,0.82776,,0,215,215,452,1,2b,110,3,31,
,,,,,,,,,,,,,,,,,,,,,,,,,,images/exp1a_trial_102_colour2_distractors9_l.png,l,1,011,001,2021-04-19_17h58.15.204,searchDisc4,2020.2.10,Win32,60,,,space,0.34381,1,1,0.610255,,0,216,216,102,1,1a,102,2,9,
,,,,,,,,,,,,,,,,,,,,,,,,,,images/exp1b_trial_88_colour3_distractors1_r.png,r,2,011,001,2021-04-19_17h58.15.204,searchDisc4,2020.2.10,Win32,60,,,space,0.368715,2,1,0.622285,,0,217,217,202,1,1b,88,3,1,
,,,,,,,,,,,,,,,,,,,,,,,,,,images/exp2b_trial_58_colour1_distractors9_l.png,l,1,011,001,2021-04-19_17h58.15.204,searchDisc4,2020.2.10,Win32,60,,,space,0.32717,1,1,0.584425,,0,218,218,400,1,2b,58,1,9,
,,,,,,,,,,,,,,,,,,,,,,,,,,images/exp2b_trial_9_colour2_distractors19_r.png,r,2,011,001,2021-04-19_17h58.15.204,searchDisc4,2020.2.10,Win32,60,,,space,0.379085,2,1,0.546315,,0,219,219,351,1,2b,9,2,19,
,,,,,,,,,,,,,,,,,,,,,,,,,,images/exp2c_trial_83_colour2_distractors4_r.png,r,2,011,001,2021-04-19_17h58.15.204,searchDisc4,2020.2.10,Win32,60,,,space,0.4055,2,1,0.58724,,0,220,220,539,1,2c,83,2,4,
,,,,,,,,,,,,,,,,,,,,,,,,,,images/exp2a_trial_54_colour3_distractors31_r.png,r,2,011,001,2021-04-19_17h58.15.204,searchDisc4,2020.2.10,Win32,60,,,space,0.38495,2,1,0.51163,,0,221,221,282,1,2a,54,3,31,
,,,,,,,,,,,,,,,,,,,,,,,,,,images/exp2a_trial_23_colour1_distractors43_l.png,l,1,011,001,2021-04-19_17h58.15.204,searchDisc4,2020.2.10,Win32,60,,,space,0.468685,1,1,0.761185,,0,222,222,251,1,2a,23,1,43,
,,,,,,,,,,,,,,,,,,,,,,,,,,images/exp2b_trial_81_colour1_distractors43_r.png,r,2,011,001,2021-04-19_17h58.15.204,searchDisc4,2020.2.10,Win32,60,,,space,0.30498,2,1,0.63579,,0,223,223,423,1,2b,81,1,43,
,,,,,,,,,,,,,,,,,,,,,,,,,,images/exp1a_trial_63_colour2_distractors4_l.png,l,1,011,001,2021-04-19_17h58.15.204,searchDisc4,2020.2.10,Win32,60,,,space,0.34391,1,1,1.062645,,0,224,224,63,1,1a,63,2,4,
,,,,,,,,,,,,,,,,,,,,,,,,,,images/exp2b_trial_74_colour0_distractors0_r.png,r,2,011,001,2021-04-19_17h58.15.204,searchDisc4,2020.2.10,Win32,60,,,space,0.359265,2,1,0.600005,,0,225,225,416,1,2b,74,0,0,
,,,,,,,,,,,,,,,,,,,,,,,,,,images/exp2a_trial_10_colour2_distractors31_r.png,r,2,011,001,2021-04-19_17h58.15.204,searchDisc4,2020.2.10,Win32,60,,,space,0.39353,2,1,0.526965,,0,226,226,238,1,2a,10,2,31,
,,,,,,,,,,,,,,,,,,,,,,,,,,images/exp2b_trial_4_colour1_distractors31_r.png,r,2,011,001,2021-04-19_17h58.15.204,searchDisc4,2020.2.10,Win32,60,,,space,0.437535,2,1,0.49186,,0,227,227,346,1,2b,4,1,31,
,,,,,,,,,,,,,,,,,,,,,,,,,,images/exp2a_trial_55_colour3_distractors43_r.png,r,2,011,001,2021-04-19_17h58.15.204,searchDisc4,2020.2.10,Win32,60,,,space,1.115695,2,1,0.64306,,0,228,228,283,1,2a,55,3,43,
,,,,,,,,,,,,,,,,,,,,,,,,,,images/exp1b_trial_7_colour2_distractors4_r.png,r,2,011,001,2021-04-19_17h58.15.204,searchDisc4,2020.2.10,Win32,60,,,space,0.279035,2,1,1.12572,,0,229,229,121,1,1b,7,2,4,
,,,,,,,,,,,,,,,,,,,,,,,,,,images/exp1a_trial_111_colour3_distractors43_l.png,l,1,011,001,2021-04-19_17h58.15.204,searchDisc4,2020.2.10,Win32,60,,,space,0.23422,1,1,0.562345,,0,230,230,111,1,1a,111,3,43,
,,,,,,,,,,,,,,,,,,,,,,,,,,images/exp1b_trial_25_colour2_distractors4_l.png,l,1,011,001,2021-04-19_17h58.15.204,searchDisc4,2020.2.10,Win32,60,,,space,0.30234,1,1,0.8843,,0,231,231,139,1,1b,25,2,4,
,,,,,,,,,,,,,,,,,,,,,,,,,,images/exp1b_trial_14_colour3_distractors9_r.png,r,2,011,001,2021-04-19_17h58.15.204,searchDisc4,2020.2.10,Win32,60,,,space,0.30032,2,1,0.87711,,0,232,232,128,1,1b,14,3,9,
,,,,,,,,,,,,,,,,,,,,,,,,,,images/exp1a_trial_49_colour2_distractors43_r.png,r,2,011,001,2021-04-19_17h58.15.204,searchDisc4,2020.2.10,Win32,60,,,space,0.35711,2,1,1.05398,,0,233,233,49,1,1a,49,2,43,
,,,,,,,,,,,,,,,,,,,,,,,,,,images/exp2a_trial_89_colour3_distractors4_r.png,r,2,011,001,2021-04-19_17h58.15.204,searchDisc4,2020.2.10,Win32,60,,,space,0.32693,2,1,0.567055,,0,234,234,317,1,2a,89,3,4,
,,,,,,,,,,,,,,,,,,,,,,,,,,images/exp2c_trial_102_colour2_distractors9_l.png,l,1,011,001,2021-04-19_17h58.15.204,searchDisc4,2020.2.10,Win32,60,,,space,0.339965,1,1,0.57876,,0,235,235,558,1,2c,102,2,9,
,,,,,,,,,,,,,,,,,,,,,,,,,,images/exp2b_trial_80_colour1_distractors31_r.png,r,2,011,001,2021-04-19_17h58.15.204,searchDisc4,2020.2.10,Win32,60,,,space,0.37821,2,1,0.6711,,0,236,236,422,1,2b,80,1,31,
,,,,,,,,,,,,,,,,,,,,,,,,,,images/exp2b_trial_21_colour1_distractors19_l.png,l,1,011,001,2021-04-19_17h58.15.204,searchDisc4,2020.2.10,Win32,60,,,space,0.363595,1,1,0.619965,,0,237,237,363,1,2b,21,1,19,
,,,,,,,,,,,,,,,,,,,,,,,,,,images/exp2b_trial_29_colour2_distractors43_l.png,l,1,011,001,2021-04-19_17h58.15.204,searchDisc4,2020.2.10,Win32,60,,,space,0.40105,1,1,0.7762,,0,238,238,371,1,2b,29,2,43,
,,,,,,,,,,,,,,,,,,,,,,,,,,images/exp2c_trial_109_colour3_distractors19_l.png,l,1,011,001,2021-04-19_17h58.15.204,searchDisc4,2020.2.10,Win32,60,,,space,0.347405,1,1,0.70376,space,0,239,239,565,1,2c,109,3,19,2.999085
,,,,,,,,,,,,,,,,,,,,,,,,,,images/exp2a_trial_24_colour2_distractors1_l.png,l,1,011,001,2021-04-19_17h58.15.204,searchDisc4,2020.2.10,Win32,60,,,space,0.69434,1,1,0.58243,,0,240,240,252,1,2a,24,2,1,
,,,,,,,,,,,,,,,,,,,,,,,,,,images/exp2b_trial_96_colour1_distractors9_l.png,l,1,011,001,2021-04-19_17h58.15.204,searchDisc4,2020.2.10,Win32,60,,,space,0.339005,1,1,0.53286,,0,241,241,438,1,2b,96,1,9,
,,,,,,,,,,,,,,,,,,,,,,,,,,images/exp1a_trial_67_colour2_distractors43_l.png,l,1,011,001,2021-04-19_17h58.15.204,searchDisc4,2020.2.10,Win32,60,,,space,0.317065,1,1,0.551325,,0,242,242,67,1,1a,67,2,43,
,,,,,,,,,,,,,,,,,,,,,,,,,,images/exp1a_trial_40_colour1_distractors9_r.png,r,2,011,001,2021-04-19_17h58.15.204,searchDisc4,2020.2.10,Win32,60,,,space,0.346505,1,0,0.751365,,0,243,243,40,1,1a,40,1,9,
,,,,,,,,,,,,,,,,,,,,,,,,,,images/exp1b_trial_106_colour3_distractors1_l.png,l,1,011,001,2021-04-19_17h58.15.204,searchDisc4,2020.2.10,Win32,60,,,space,0.65813,1,1,0.653045,,0,244,244,220,1,1b,106,3,1,
,,,,,,,,,,,,,,,,,,,,,,,,,,images/exp1b_trial_68_colour3_distractors1_l.png,l,1,011,001,2021-04-19_17h58.15.204,searchDisc4,2020.2.10,Win32,60,,,space,0.557015,1,1,0.59981,,0,245,245,182,1,1b,68,3,1,
,,,,,,,,,,,,,,,,,,,,,,,,,,images/exp2c_trial_41_colour1_distractors19_r.png,r,2,011,001,2021-04-19_17h58.15.204,searchDisc4,2020.2.10,Win32,60,,,space,0.368295,2,1,0.61666,,0,246,246,497,1,2c,41,1,19,
,,,,,,,,,,,,,,,,,,,,,,,,,,images/exp2b_trial_79_colour1_distractors19_r.png,r,2,011,001,2021-04-19_17h58.15.204,searchDisc4,2020.2.10,Win32,60,,,space,0.32408,2,1,0.489165,,0,247,247,421,1,2b,79,1,19,
,,,,,,,,,,,,,,,,,,,,,,,,,,images/exp2a_trial_7_colour2_distractors4_r.png,r,2,011,001,2021-04-19_17h58.15.204,searchDisc4,2020.2.10,Win32,60,,,space,0.34365,2,1,0.50685,,0,248,248,235,1,2a,7,2,4,
,,,,,,,,,,,,,,,,,,,,,,,,,,images/exp2b_trial_10_colour2_distractors31_r.png,r,2,011,001,2021-04-19_17h58.15.204,searchDisc4,2020.2.10,Win32,60,,,space,0.338675,2,1,0.496125,,0,249,249,352,1,2b,10,2,31,
,,,,,,,,,,,,,,,,,,,,,,,,,,images/exp2a_trial_65_colour2_distractors19_l.png,l,1,011,001,2021-04-19_17h58.15.204,searchDisc4,2020.2.10,Win32,60,,,space,0.38289,1,1,0.79916,,0,250,250,293,1,2a,65,2,19,
,,,,,,,,,,,,,,,,,,,,,,,,,,images/exp2c_trial_27_colour2_distractors19_l.png,l,1,011,001,2021-04-19_17h58.15.204,searchDisc4,2020.2.10,Win32,60,,,space,0.35785,1,1,0.767575,,0,251,251,483,1,2c,27,2,19,
,,,,,,,,,,,,,,,,,,,,,,,,,,images/exp1a_trial_71_colour3_distractors19_l.png,l,1,011,001,2021-04-19_17h58.15.204,searchDisc4,2020.2.10,Win32,60,,,space,0.335095,1,1,0.660915,,0,252,252,71,1,1a,71,3,19,
,,,,,,,,,,,,,,,,,,,,,,,,,,images/exp2a_trial_51_colour3_distractors4_r.png,r,2,011,001,2021-04-19_17h58.15.204,searchDisc4,2020.2.10,Win32,60,,,space,0.334985,2,1,0.66523,,0,253,253,279,1,2a,51,3,4,
,,,,,,,,,,,,,,,,,,,,,,,,,,images/exp1b_trial_113_colour0_distractors0_l.png,l,1,011,001,2021-04-19_17h58.15.204,searchDisc4,2020.2.10,Win32,60,,,space,0.33826,1,1,0.53602,,0,254,254,227,1,1b,113,0,0,
,,,,,,,,,,,,,,,,,,,,,,,,,,images/exp2b_trial_31_colour3_distractors4_l.png,l,1,011,001,2021-04-19_17h58.15.204,searchDisc4,2020.2.10,Win32,60,,,space,0.400295,2,0,0.78637,,0,255,255,373,1,2b,31,3,4,
,,,,,,,,,,,,,,,,,,,,,,,,,,images/exp2b_trial_94_colour1_distractors1_l.png,l,1,011,001,2021-04-19_17h58.15.204,searchDisc4,2020.2.10,Win32,60,,,space,0.663425,1,1,0.678465,,0,256,256,436,1,2b,94,1,1,
,,,,,,,,,,,,,,,,,,,,,,,,,,images/exp1a_trial_81_colour1_distractors43_r.png,r,2,011,001,2021-04-19_17h58.15.204,searchDisc4,2020.2.10,Win32,60,,,space,0.299955,2,1,0.573535,,0,257,257,81,1,1a,81,1,43,
,,,,,,,,,,,,,,,,,,,,,,,,,,images/exp2c_trial_24_colour2_distractors1_l.png,l,1,011,001,2021-04-19_17h58.15.204,searchDisc4,2020.2.10,Win32,60,,,space,0.433795,1,1,0.689105,,0,258,258,480,1,2c,24,2,1,
,,,,,,,,,,,,,,,,,,,,,,,,,,images/exp1a_trial_79_colour1_distractors19_r.png,r,2,011,001,2021-04-19_17h58.15.204,searchDisc4,2020.2.10,Win32,60,,,space,0.37652,2,1,0.512655,,0,259,259,79,1,1a,79,1,19,
,,,,,,,,,,,,,,,,,,,,,,,,,,images/exp2b_trial_86_colour2_distractors31_r.png,r,2,011,001,2021-04-19_17h58.15.204,searchDisc4,2020.2.10,Win32,60,,,space,0.44368,2,1,0.49971,,0,260,260,428,1,2b,86,2,31,
,,,,,,,,,,,,,,,,,,,,,,,,,,images/exp1a_trial_19_colour1_distractors4_l.png,l,1,011,001,2021-04-19_17h58.15.204,searchDisc4,2020.2.10,Win32,60,,,space,0.425695,1,1,0.82412,,0,261,261,19,1,1a,19,1,4,
,,,,,,,,,,,,,,,,,,,,,,,,,,images/exp2c_trial_95_colour1_distractors4_l.png,l,1,011,001,2021-04-19_17h58.15.204,searchDisc4,2020.2.10,Win32,60,,,space,0.318125,1,1,0.53948,,0,262,262,551,1,2c,95,1,4,
,,,,,,,,,,,,,,,,,,,,,,,,,,images/exp2c_trial_70_colour3_distractors9_l.png,l,1,011,001,2021-04-19_17h58.15.204,searchDisc4,2020.2.10,Win32,60,,,space,0.35808,1,1,0.452255,,0,263,263,526,1,2c,70,3,9,
,,,,,,,,,,,,,,,,,,,,,,,,,,images/exp1b_trial_0_colour1_distractors1_r.png,r,2,011,001,2021-04-19_17h58.15.204,searchDisc4,2020.2.10,Win32,60,,,space,0.40582,2,1,0.58189,,0,264,264,114,1,1b,0,1,1,
,,,,,,,,,,,,,,,,,,,,,,,,,,images/exp2b_trial_37_colour0_distractors0_l.png,l,1,011,001,2021-04-19_17h58.15.204,searchDisc4,2020.2.10,Win32,60,,,space,0.36665,1,1,0.61915,,0,265,265,379,1,2b,37,0,0,
,,,,,,,,,,,,,,,,,,,,,,,,,,images/exp2a_trial_87_colour2_distractors43_r.png,r,2,011,001,2021-04-19_17h58.15.204,searchDisc4,2020.2.10,Win32,60,,,space,0.33304,2,1,0.651095,,0,266,266,315,1,2a,87,2,43,
,,,,,,,,,,,,,,,,,,,,,,,,,,images/exp2b_trial_64_colour2_distractors9_l.png,l,1,011,001,2021-04-19_17h58.15.204,searchDisc4,2020.2.10,Win32,60,,,space,0.340465,1,1,0.64734,,0,267,267,406,1,2b,64,2,9,
,,,,,,,,,,,,,,,,,,,,,,,,,,images/exp1a_trial_37_colour0_distractors0_l.png,l,1,011,001,2021-04-19_17h58.15.204,searchDisc4,2020.2.10,Win32,60,,,space,0.33975,1,1,0.589335,,0,268,268,37,1,1a,37,0,0,
,,,,,,,,,,,,,,,,,,,,,,,,,,images/exp1a_trial_11_colour2_distractors43_r.png,r,2,011,001,2021-04-19_17h58.15.204,searchDisc4,2020.2.10,Win32,60,,,space,0.37768,2,1,0.88271,,0,269,269,11,1,1a,11,2,43,
,,,,,,,,,,,,,,,,,,,,,,,,,,images/exp1a_trial_33_colour3_distractors19_l.png,l,1,011,001,2021-04-19_17h58.15.204,searchDisc4,2020.2.10,Win32,60,,,space,0.316165,1,1,0.626275,,0,270,270,33,1,1a,33,3,19,
,,,,,,,,,,,,,,,,,,,,,,,,,,images/exp2a_trial_30_colour3_distractors1_l.png,l,1,011,001,2021-04-19_17h58.15.204,searchDisc4,2020.2.10,Win32,60,,,space,0.37722,1,1,0.531255,,0,271,271,258,1,2a,30,3,1,
,,,,,,,,,,,,,,,,,,,,,,,,,,images/exp2b_trial_33_colour3_distractors19_l.png,l,1,011,001,2021-04-19_17h58.15.204,searchDisc4,2020.2.10,Win32,60,,,space,0.40035,1,1,0.6863,,0,272,272,375,1,2b,33,3,19,
,,,,,,,,,,,,,,,,,,,,,,,,,,images/exp2c_trial_82_colour2_distractors1_r.png,r,2,011,001,2021-04-19_17h58.15.204,searchDisc4,2020.2.10,Win32,60,,,space,0.40096,2,1,0.63074,,0,273,273,538,1,2c,82,2,1,
,,,,,,,,,,,,,,,,,,,,,,,,,,images/exp2c_trial_98_colour1_distractors31_l.png,l,1,011,001,2021-04-19_17h58.15.204,searchDisc4,2020.2.10,Win32,60,,,space,0.37393,1,1,0.50467,,0,274,274,554,1,2c,98,1,31,
,,,,,,,,,,,,,,,,,,,,,,,,,,images/exp1b_trial_112_colour0_distractors0_r.png,r,2,011,001,2021-04-19_17h58.15.204,searchDisc4,2020.2.10,Win32,60,,,space,0.374105,2,1,0.59036,,0,275,275,226,1,1b,112,0,0,
,,,,,,,,,,,,,,,,,,,,,,,,,,images/exp2b_trial_88_colour3_distractors1_r.png,r,2,011,001,2021-04-19_17h58.15.204,searchDisc4,2020.2.10,Win32,60,,,space,0.39056,2,1,0.55298,,0,276,276,430,1,2b,88,3,1,
,,,,,,,,,,,,,,,,,,,,,,,,,,images/exp2a_trial_101_colour2_distractors4_l.png,l,1,011,001,2021-04-19_17h58.15.204,searchDisc4,2020.2.10,Win32,60,,,space,0.40011,1,1,0.67358,,0,277,277,329,1,2a,101,2,4,
,,,,,,,,,,,,,,,,,,,,,,,,,,images/exp2b_trial_15_colour3_distractors19_r.png,r,2,011,001,2021-04-19_17h58.15.204,searchDisc4,2020.2.10,Win32,60,,,space,0.34532,2,1,0.988925,,0,278,278,357,1,2b,15,3,19,
,,,,,,,,,,,,,,,,,,,,,,,,,,images/exp2a_trial_92_colour3_distractors31_r.png,r,2,011,001,2021-04-19_17h58.15.204,searchDisc4,2020.2.10,Win32,60,,,space,0.38341,2,1,0.59033,,0,279,279,320,1,2a,92,3,31,
,,,,,,,,,,,,,,,,,,,,,,,,,,images/exp1b_trial_104_colour2_distractors31_l.png,l,1,011,001,2021-04-19_17h58.15.204,searchDisc4,2020.2.10,Win32,60,,,space,0.34998,1,1,2.407835,,0,280,280,218,1,1b,104,2,31,
,,,,,,,,,,,,,,,,,,,,,,,,,,images/exp1a_trial_75_colour0_distractors0_l.png,l,1,011,001,2021-04-19_17h58.15.204,searchDisc4,2020.2.10,Win32,60,,,space,0.320495,1,1,0.704115,,0,281,281,75,1,1a,75,0,0,
,,,,,,,,,,,,,,,,,,,,,,,,,,images/exp2a_trial_79_colour1_distractors19_r.png,r,2,011,001,2021-04-19_17h58.15.204,searchDisc4,2020.2.10,Win32,60,,,space,0.386405,2,1,0.617655,,0,282,282,307,1,2a,79,1,19,
,,,,,,,,,,,,,,,,,,,,,,,,,,images/exp2c_trial_44_colour2_distractors1_r.png,r,2,011,001,2021-04-19_17h58.15.204,searchDisc4,2020.2.10,Win32,60,,,space,0.337315,2,1,0.64499,,0,283,283,500,1,2c,44,2,1,
,,,,,,,,,,,,,,,,,,,,,,,,,,images/exp2b_trial_91_colour3_distractors19_r.png,r,2,011,001,2021-04-19_17h58.15.204,searchDisc4,2020.2.10,Win32,60,,,space,0.362615,2,1,0.54048,,0,284,284,433,1,2b,91,3,19,
,,,,,,,,,,,,,,,,,,,,,,,,,,images/exp2a_trial_97_colour1_distractors19_l.png,l,1,011,001,2021-04-19_17h58.15.204,searchDisc4,2020.2.10,Win32,60,,,space,0.33513,1,1,0.9947,,0,285,285,325,1,2a,97,1,19,
,,,,,,,,,,,,,,,,,,,,,,,,,,images/exp1b_trial_63_colour2_distractors4_l.png,l,1,011,001,2021-04-19_17h58.15.204,searchDisc4,2020.2.10,Win32,60,,,space,0.373925,1,1,0.82943,,0,286,286,177,1,1b,63,2,4,
,,,,,,,,,,,,,,,,,,,,,,,,,,images/exp1b_trial_61_colour1_distractors43_l.png,l,1,011,001,2021-04-19_17h58.15.204,searchDisc4,2020.2.10,Win32,60,,,space,0.33863,1,1,0.755315,,0,287,287,175,1,1b,61,1,43,
,,,,,,,,,,,,,,,,,,,,,,,,,,images/exp2c_trial_21_colour1_distractors19_l.png,l,1,011,001,2021-04-19_17h58.15.204,searchDisc4,2020.2.10,Win32,60,,,space,0.39369,1,1,0.837185,,0,288,288,477,1,2c,21,1,19,
,,,,,,,,,,,,,,,,,,,,,,,,,,images/exp2a_trial_80_colour1_distractors31_r.png,r,2,011,001,2021-04-19_17h58.15.204,searchDisc4,2020.2.10,Win32,60,,,space,0.411145,2,1,1.626625,,0,289,289,308,1,2a,80,1,31,
,,,,,,,,,,,,,,,,,,,,,,,,,,images/exp2c_trial_6_colour2_distractors1_r.png,r,2,011,001,2021-04-19_17h58.15.204,searchDisc4,2020.2.10,Win32,60,,,space,0.39059,2,1,0.535795,,0,290,290,462,1,2c,6,2,1,
,,,,,,,,,,,,,,,,,,,,,,,,,,images/exp2b_trial_67_colour2_distractors43_l.png,l,1,011,001,2021-04-19_17h58.15.204,searchDisc4,2020.2.10,Win32,60,,,space,0.362865,1,1,0.66261,,0,291,291,409,1,2b,67,2,43,
,,,,,,,,,,,,,,,,,,,,,,,,,,images/exp2b_trial_66_colour2_distractors31_l.png,l,1,011,001,2021-04-19_17h58.15.204,searchDisc4,2020.2.10,Win32,60,,,space,0.36359,1,1,0.62882,,0,292,292,408,1,2b,66,2,31,
,,,,,,,,,,,,,,,,,,,,,,,,,,images/exp2c_trial_38_colour1_distractors1_r.png,r,2,011,001,2021-04-19_17h58.15.204,searchDisc4,2020.2.10,Win32,60,,,space,0.37893,2,1,0.554665,,0,293,293,494,1,2c,38,1,1,
,,,,,,,,,,,,,,,,,,,,,,,,,,images/exp2c_trial_18_colour1_distractors1_l.png,l,1,011,001,2021-04-19_17h58.15.204,searchDisc4,2020.2.10,Win32,60,,,space,0.408065,1,1,0.51675,,0,294,294,474,1,2c,18,1,1,
,,,,,,,,,,,,,,,,,,,,,,,,,,images/exp1b_trial_37_colour0_distractors0_l.png,l,1,011,001,2021-04-19_17h58.15.204,searchDisc4,2020.2.10,Win32,60,,,space,0.3292,1,1,0.59971,,0,295,295,151,1,1b,37,0,0,
,,,,,,,,,,,,,,,,,,,,,,,,,,images/exp1b_trial_27_colour2_distractors19_l.png,l,1,011,001,2021-04-19_17h58.15.204,searchDisc4,2020.2.10,Win32,60,,,space,0.329305,1,1,0.62389,,0,296,296,141,1,1b,27,2,19,
,,,,,,,,,,,,,,,,,,,,,,,,,,images/exp2a_trial_17_colour3_distractors43_r.png,r,2,011,001,2021-04-19_17h58.15.204,searchDisc4,2020.2.10,Win32,60,,,space,0.36208,2,1,0.681295,,0,297,297,245,1,2a,17,3,43,
,,,,,,,,,,,,,,,,,,,,,,,,,,images/exp2a_trial_3_colour1_distractors19_r.png,r,2,011,001,2021-04-19_17h58.15.204,searchDisc4,2020.2.10,Win32,60,,,space,0.302925,2,1,0.58001,,0,298,298,231,1,2a,3,1,19,
,,,,,,,,,,,,,,,,,,,,,,,,,,images/exp1a_trial_34_colour3_distractors31_l.png,l,1,011,001,2021-04-19_17h58.15.204,searchDisc4,2020.2.10,Win32,60,,,space,0.295035,1,1,0.47441,space,0,299,299,34,1,1a,34,3,31,2.667375
,,,,,,,,,,,,,,,,,,,,,,,,,,images/exp2a_trial_102_colour2_distractors9_l.png,l,1,011,001,2021-04-19_17h58.15.204,searchDisc4,2020.2.10,Win32,60,,,space,0.582965,1,1,0.638625,,0,300,300,330,1,2a,102,2,9,
,,,,,,,,,,,,,,,,,,,,,,,,,,images/exp2c_trial_20_colour1_distractors9_l.png,l,1,011,001,2021-04-19_17h58.15.204,searchDisc4,2020.2.10,Win32,60,,,space,0.31236,1,1,0.45152,,0,301,301,476,1,2c,20,1,9,
,,,,,,,,,,,,,,,,,,,,,,,,,,images/exp1b_trial_23_colour1_distractors43_l.png,l,1,011,001,2021-04-19_17h58.15.204,searchDisc4,2020.2.10,Win32,60,,,space,0.34577,1,1,0.725635,,0,302,302,137,1,1b,23,1,43,
,,,,,,,,,,,,,,,,,,,,,,,,,,images/exp2c_trial_14_colour3_distractors9_r.png,r,2,011,001,2021-04-19_17h58.15.204,searchDisc4,2020.2.10,Win32,60,,,space,0.30018,2,1,0.6102,,0,303,303,470,1,2c,14,3,9,
,,,,,,,,,,,,,,,,,,,,,,,,,,images/exp1b_trial_35_colour3_distractors43_l.png,l,1,011,001,2021-04-19_17h58.15.204,searchDisc4,2020.2.10,Win32,60,,,space,0.33541,1,1,0.78038,,0,304,304,149,1,1b,35,3,43,
,,,,,,,,,,,,,,,,,,,,,,,,,,images/exp2a_trial_49_colour2_distractors43_r.png,r,2,011,001,2021-04-19_17h58.15.204,searchDisc4,2020.2.10,Win32,60,,,space,0.33318,2,1,0.848895,,0,305,305,277,1,2a,49,2,43,
,,,,,,,,,,,,,,,,,,,,,,,,,,images/exp1b_trial_101_colour2_distractors4_l.png,l,1,011,001,2021-04-19_17h58.15.204,searchDisc4,2020.2.10,Win32,60,,,space,0.284345,1,1,0.8201,,0,306,306,215,1,1b,101,2,4,
,,,,,,,,,,,,,,,,,,,,,,,,,,images/exp1b_trial_70_colour3_distractors9_l.png,l,1,011,001,2021-04-19_17h58.15.204,searchDisc4,2020.2.10,Win32,60,,,space,0.327135,1,1,1.05986,,0,307,307,184,1,1b,70,3,9,
,,,,,,,,,,,,,,,,,,,,,,,,,,images/exp2c_trial_69_colour3_distractors4_l.png,l,1,011,001,2021-04-19_17h58.15.204,searchDisc4,2020.2.10,Win32,60,,,space,0.37183,1,1,0.5207,,0,308,308,525,1,2c,69,3,4,
,,,,,,,,,,,,,,,,,,,,,,,,,,images/exp2c_trial_106_colour3_distractors1_l.png,l,1,011,001,2021-04-19_17h58.15.204,searchDisc4,2020.2.10,Win32,60,,,space,0.41687,1,1,0.553695,,0,309,309,562,1,2c,106,3,1,
,,,,,,,,,,,,,,,,,,,,,,,,,,images/exp1b_trial_57_colour1_distractors4_l.png,l,1,011,001,2021-04-19_17h58.15.204,searchDisc4,2020.2.10,Win32,60,,,space,0.48835,1,1,0.71087,,0,310,310,171,1,1b,57,1,4,
,,,,,,,,,,,,,,,,,,,,,,,,,,images/exp2b_trial_84_colour2_distractors9_r.png,r,2,011,001,2021-04-19_17h58.15.204,searchDisc4,2020.2.10,Win32,60,,,space,0.41729,2,1,0.58112,,0,311,311,426,1,2b,84,2,9,
,,,,,,,,,,,,,,,,,,,,,,,,,,images/exp2c_trial_31_colour3_distractors4_l.png,l,1,011,001,2021-04-19_17h58.15.204,searchDisc4,2020.2.10,Win32,60,,,space,0.34139,1,1,0.48353,,0,312,312,487,1,2c,31,3,4,
,,,,,,,,,,,,,,,,,,,,,,,,,,images/exp1b_trial_56_colour1_distractors1_l.png,l,1,011,001,2021-04-19_17h58.15.204,searchDisc4,2020.2.10,Win32,60,,,space,0.35796,1,1,0.58551,,0,313,313,170,1,1b,56,1,1,
,,,,,,,,,,,,,,,,,,,,,,,,,,images/exp1a_trial_29_colour2_distractors43_l.png,l,1,011,001,2021-04-19_17h58.15.204,searchDisc4,2020.2.10,Win32,60,,,space,0.404715,1,1,1.090165,,0,314,314,29,1,1a,29,2,43,
,,,,,,,,,,,,,,,,,,,,,,,,,,images/exp2b_trial_48_colour2_distractors31_r.png,r,2,011,001,2021-04-19_17h58.15.204,searchDisc4,2020.2.10,Win32,60,,,space,0.483125,2,1,0.531325,,0,315,315,390,1,2b,48,2,31,
,,,,,,,,,,,,,,,,,,,,,,,,,,images/exp2b_trial_103_colour2_distractors19_l.png,l,1,011,001,2021-04-19_17h58.15.204,searchDisc4,2020.2.10,Win32,60,,,space,0.35449,1,1,0.485915,,0,316,316,445,1,2b,103,2,19,
,,,,,,,,,,,,,,,,,,,,,,,,,,images/exp1b_trial_60_colour1_distractors31_l.png,l,1,011,001,2021-04-19_17h58.15.204,searchDisc4,2020.2.10,Win32,60,,,space,0.35746,1,1,0.80735,,0,317,317,174,1,1b,60,1,31,
,,,,,,,,,,,,,,,,,,,,,,,,,,images/exp2a_trial_69_colour3_distractors4_l.png,l,1,011,001,2021-04-19_17h58.15.204,searchDisc4,2020.2.10,Win32,60,,,space,0.486,1,1,0.631025,,0,318,318,297,1,2a,69,3,4,
,,,,,,,,,,,,,,,,,,,,,,,,,,images/exp2b_trial_113_colour0_distractors0_l.png,l,1,011,001,2021-04-19_17h58.15.204,searchDisc4,2020.2.10,Win32,60,,,space,0.42194,1,1,0.46016,,0,319,319,455,1,2b,113,0,0,
,,,,,,,,,,,,,,,,,,,,,,,,,,images/exp1b_trial_32_colour3_distractors9_l.png,l,1,011,001,2021-04-19_17h58.15.204,searchDisc4,2020.2.10,Win32,60,,,space,0.47486,1,1,0.98775,,0,320,320,146,1,1b,32,3,9,
,,,,,,,,,,,,,,,,,,,,,,,,,,images/exp1a_trial_62_colour2_distractors1_l.png,l,1,011,001,2021-04-19_17h58.15.204,searchDisc4,2020.2.10,Win32,60,,,space,0.35038,1,1,0.89224,,0,321,321,62,1,1a,62,2,1,
,,,,,,,,,,,,,,,,,,,,,,,,,,images/exp2a_trial_95_colour1_distractors4_l.png,l,1,011,001,2021-04-19_17h58.15.204,searchDisc4,2020.2.10,Win32,60,,,space,0.37198,1,1,0.6926,,0,322,322,323,1,2a,95,1,4,
,,,,,,,,,,,,,,,,,,,,,,,,,,images/exp2c_trial_32_colour3_distractors9_l.png,l,1,011,001,2021-04-19_17h58.15.204,searchDisc4,2020.2.10,Win32,60,,,space,0.36202,1,1,0.57303,,0,323,323,488,1,2c,32,3,9,
,,,,,,,,,,,,,,,,,,,,,,,,,,images/exp1b_trial_69_colour3_distractors4_l.png,l,1,011,001,2021-04-19_17h58.15.204,searchDisc4,2020.2.10,Win32,60,,,space,0.418675,1,1,0.612815,,0,324,324,183,1,1b,69,3,4,
,,,,,,,,,,,,,,,,,,,,,,,,,,images/exp2c_trial_86_colour2_distractors31_r.png,r,2,011,001,2021-04-19_17h58.15.204,searchDisc4,2020.2.10,Win32,60,,,space,0.4007,2,1,0.74874,,0,325,325,542,1,2c,86,2,31,
,,,,,,,,,,,,,,,,,,,,,,,,,,images/exp2c_trial_26_colour2_distractors9_l.png,l,1,011,001,2021-04-19_17h58.15.204,searchDisc4,2020.2.10,Win32,60,,,space,0.39701,1,1,0.87342,,0,326,326,482,1,2c,26,2,9,
,,,,,,,,,,,,,,,,,,,,,,,,,,images/exp2b_trial_12_colour3_distractors1_r.png,r,2,011,001,2021-04-19_17h58.15.204,searchDisc4,2020.2.10,Win32,60,,,space,0.36234,2,1,0.544205,,0,327,327,354,1,2b,12,3,1,
,,,,,,,,,,,,,,,,,,,,,,,,,,images/exp2a_trial_86_colour2_distractors31_r.png,r,2,011,001,2021-04-19_17h58.15.204,searchDisc4,2020.2.10,Win32,60,,,space,0.416615,2,1,0.59837,,0,328,328,314,1,2a,86,2,31,
,,,,,,,,,,,,,,,,,,,,,,,,,,images/exp1b_trial_91_colour3_distractors19_r.png,r,2,011,001,2021-04-19_17h58.15.204,searchDisc4,2020.2.10,Win32,60,,,space,0.360195,2,1,1.99955,,0,329,329,205,1,1b,91,3,19,
,,,,,,,,,,,,,,,,,,,,,,,,,,images/exp2b_trial_43_colour1_distractors43_r.png,r,2,011,001,2021-04-19_17h58.15.204,searchDisc4,2020.2.10,Win32,60,,,space,0.35083,2,1,0.665545,,0,330,330,385,1,2b,43,1,43,
,,,,,,,,,,,,,,,,,,,,,,,,,,images/exp2a_trial_46_colour2_distractors9_r.png,r,2,011,001,2021-04-19_17h58.15.204,searchDisc4,2020.2.10,Win32,60,,,space,0.36766,2,1,0.5437,,0,331,331,274,1,2a,46,2,9,
,,,,,,,,,,,,,,,,,,,,,,,,,,images/exp2b_trial_112_colour0_distractors0_r.png,r,2,011,001,2021-04-19_17h58.15.204,searchDisc4,2020.2.10,Win32,60,,,space,0.33424,2,1,0.475645,,0,332,332,454,1,2b,112,0,0,
,,,,,,,,,,,,,,,,,,,,,,,,,,images/exp2b_trial_14_colour3_distractors9_r.png,r,2,011,001,2021-04-19_17h58.15.204,searchDisc4,2020.2.10,Win32,60,,,space,0.367045,2,1,0.79693,,0,333,333,356,1,2b,14,3,9,
,,,,,,,,,,,,,,,,,,,,,,,,,,images/exp2a_trial_58_colour1_distractors9_l.png,l,1,011,001,2021-04-19_17h58.15.204,searchDisc4,2020.2.10,Win32,60,,,space,0.36685,1,1,0.827555,,0,334,334,286,1,2a,58,1,9,
,,,,,,,,,,,,,,,,,,,,,,,,,,images/exp2c_trial_17_colour3_distractors43_r.png,r,2,011,001,2021-04-19_17h58.15.204,searchDisc4,2020.2.10,Win32,60,,,space,0.340415,2,1,0.653265,,0,335,335,473,1,2c,17,3,43,
,,,,,,,,,,,,,,,,,,,,,,,,,,images/exp2c_trial_113_colour0_distractors0_l.png,l,1,011,001,2021-04-19_17h58.15.204,searchDisc4,2020.2.10,Win32,60,,,space,0.308995,1,1,0.61682,,0,336,336,569,1,2c,113,0,0,
,,,,,,,,,,,,,,,,,,,,,,,,,,images/exp2a_trial_14_colour3_distractors9_r.png,r,2,011,001,2021-04-19_17h58.15.204,searchDisc4,2020.2.10,Win32,60,,,space,0.37752,2,1,0.57048,,0,337,337,242,1,2a,14,3,9,
,,,,,,,,,,,,,,,,,,,,,,,,,,images/exp1a_trial_86_colour2_distractors31_r.png,r,2,011,001,2021-04-19_17h58.15.204,searchDisc4,2020.2.10,Win32,60,,,space,0.319765,1,0,0.87663,,0,338,338,86,1,1a,86,2,31,
,,,,,,,,,,,,,,,,,,,,,,,,,,images/exp2a_trial_1_colour1_distractors4_r.png,r,2,011,001,2021-04-19_17h58.15.204,searchDisc4,2020.2.10,Win32,60,,,space,0.57902,2,1,1.35902,,0,339,339,229,1,2a,1,1,4,
,,,,,,,,,,,,,,,,,,,,,,,,,,images/exp2c_trial_56_colour1_distractors1_l.png,l,1,011,001,2021-04-19_17h58.15.204,searchDisc4,2020.2.10,Win32,60,,,space,0.280185,1,1,0.652615,,0,340,340,512,1,2c,56,1,1,
,,,,,,,,,,,,,,,,,,,,,,,,,,images/exp1b_trial_84_colour2_distractors9_r.png,r,2,011,001,2021-04-19_17h58.15.204,searchDisc4,2020.2.10,Win32,60,,,space,0.3107,2,1,0.84959,,0,341,341,198,1,1b,84,2,9,
,,,,,,,,,,,,,,,,,,,,,,,,,,images/exp1a_trial_106_colour3_distractors1_l.png,l,1,011,001,2021-04-19_17h58.15.204,searchDisc4,2020.2.10,Win32,60,,,space,0.3779,1,1,0.508315,,0,342,342,106,1,1a,106,3,1,
,,,,,,,,,,,,,,,,,,,,,,,,,,images/exp1a_trial_89_colour3_distractors4_r.png,r,2,011,001,2021-04-19_17h58.15.204,searchDisc4,2020.2.10,Win32,60,,,space,0.369305,2,1,0.55133,,0,343,343,89,1,1a,89,3,4,
,,,,,,,,,,,,,,,,,,,,,,,,,,images/exp2b_trial_19_colour1_distractors4_l.png,l,1,011,001,2021-04-19_17h58.15.204,searchDisc4,2020.2.10,Win32,60,,,space,0.33547,1,1,0.52624,,0,344,344,361,1,2b,19,1,4,
,,,,,,,,,,,,,,,,,,,,,,,,,,images/exp2b_trial_104_colour2_distractors31_l.png,l,1,011,001,2021-04-19_17h58.15.204,searchDisc4,2020.2.10,Win32,60,,,space,0.362825,1,1,0.48675,,0,345,345,446,1,2b,104,2,31,
,,,,,,,,,,,,,,,,,,,,,,,,,,images/exp1b_trial_80_colour1_distractors31_r.png,r,2,011,001,2021-04-19_17h58.15.204,searchDisc4,2020.2.10,Win32,60,,,space,0.38334,2,1,0.75792,,0,346,346,194,1,1b,80,1,31,
,,,,,,,,,,,,,,,,,,,,,,,,,,images/exp1a_trial_42_colour1_distractors31_r.png,r,2,011,001,2021-04-19_17h58.15.204,searchDisc4,2020.2.10,Win32,60,,,space,0.30411,2,1,0.65657,,0,347,347,42,1,1a,42,1,31,
,,,,,,,,,,,,,,,,,,,,,,,,,,images/exp2c_trial_55_colour3_distractors43_r.png,r,2,011,001,2021-04-19_17h58.15.204,searchDisc4,2020.2.10,Win32,60,,,space,0.308715,2,1,0.490475,,0,348,348,511,1,2c,55,3,43,
,,,,,,,,,,,,,,,,,,,,,,,,,,images/exp1a_trial_2_colour1_distractors9_r.png,r,2,011,001,2021-04-19_17h58.15.204,searchDisc4,2020.2.10,Win32,60,,,space,0.28889,2,1,0.56282,,0,349,349,2,1,1a,2,1,9,
,,,,,,,,,,,,,,,,,,,,,,,,,,images/exp2a_trial_52_colour3_distractors9_r.png,r,2,011,001,2021-04-19_17h58.15.204,searchDisc4,2020.2.10,Win32,60,,,space,0.290175,2,1,0.517685,,0,350,350,280,1,2a,52,3,9,
,,,,,,,,,,,,,,,,,,,,,,,,,,images/exp2b_trial_71_colour3_distractors19_l.png,l,1,011,001,2021-04-19_17h58.15.204,searchDisc4,2020.2.10,Win32,60,,,space,0.264305,1,1,0.46946,,0,351,351,413,1,2b,71,3,19,
,,,,,,,,,,,,,,,,,,,,,,,,,,images/exp1a_trial_8_colour2_distractors9_r.png,r,2,011,001,2021-04-19_17h58.15.204,searchDisc4,2020.2.10,Win32,60,,,space,0.25026,2,1,0.71567,,0,352,352,8,1,1a,8,2,9,
,,,,,,,,,,,,,,,,,,,,,,,,,,images/exp2a_trial_53_colour3_distractors19_r.png,r,2,011,001,2021-04-19_17h58.15.204,searchDisc4,2020.2.10,Win32,60,,,space,0.250125,2,1,0.526095,,0,353,353,281,1,2a,53,3,19,
,,,,,,,,,,,,,,,,,,,,,,,,,,images/exp1b_trial_12_colour3_distractors1_r.png,r,2,011,001,2021-04-19_17h58.15.204,searchDisc4,2020.2.10,Win32,60,,,space,0.233645,2,1,1.092055,,0,354,354,126,1,1b,12,3,1,
,,,,,,,,,,,,,,,,,,,,,,,,,,images/exp2b_trial_102_colour2_distractors9_l.png,l,1,011,001,2021-04-19_17h58.15.204,searchDisc4,2020.2.10,Win32,60,,,space,0.255655,1,1,0.81225,,0,355,355,444,1,2b,102,2,9,
,,,,,,,,,,,,,,,,,,,,,,,,,,images/exp2b_trial_45_colour2_distractors4_r.png,r,2,011,001,2021-04-19_17h58.15.204,searchDisc4,2020.2.10,Win32,60,,,space,0.22123,2,1,0.70627,,0,356,356,387,1,2b,45,2,4,
,,,,,,,,,,,,,,,,,,,,,,,,,,images/exp2b_trial_101_colour2_distractors4_l.png,l,1,011,001,2021-04-19_17h58.15.204,searchDisc4,2020.2.10,Win32,60,,,space,0.23328,1,1,0.86,,0,357,357,443,1,2b,101,2,4,
,,,,,,,,,,,,,,,,,,,,,,,,,,images/exp2a_trial_108_colour3_distractors9_l.png,l,1,011,001,2021-04-19_17h58.15.204,searchDisc4,2020.2.10,Win32,60,,,space,0.30014,2,0,0.783385,,0,358,358,336,1,2a,108,3,9,
,,,,,,,,,,,,,,,,,,,,,,,,,,images/exp2c_trial_80_colour1_distractors31_r.png,r,2,011,001,2021-04-19_17h58.15.204,searchDisc4,2020.2.10,Win32,60,,,space,0.491295,2,1,0.679245,space,0,359,359,536,1,2c,80,1,31,2.12843
,,,,,,,,,,,,,,,,,,,,,,,,,,images/exp2b_trial_111_colour3_distractors43_l.png,l,1,011,001,2021-04-19_17h58.15.204,searchDisc4,2020.2.10,Win32,60,,,space,0.62184,1,1,0.60954,,0,360,360,453,1,2b,111,3,43,
,,,,,,,,,,,,,,,,,,,,,,,,,,images/exp1a_trial_84_colour2_distractors9_r.png,r,2,011,001,2021-04-19_17h58.15.204,searchDisc4,2020.2.10,Win32,60,,,space,0.29747,2,1,0.74315,,0,361,361,84,1,1a,84,2,9,
,,,,,,,,,,,,,,,,,,,,,,,,,,images/exp2c_trial_34_colour3_distractors31_l.png,l,1,011,001,2021-04-19_17h58.15.204,searchDisc4,2020.2.10,Win32,60,,,space,0.286825,1,1,0.49384,,0,362,362,490,1,2c,34,3,31,
,,,,,,,,,,,,,,,,,,,,,,,,,,images/exp2a_trial_32_colour3_distractors9_l.png,l,1,011,001,2021-04-19_17h58.15.204,searchDisc4,2020.2.10,Win32,60,,,space,0.343845,1,1,0.653025,,0,363,363,260,1,2a,32,3,9,
,,,,,,,,,,,,,,,,,,,,,,,,,,images/exp1b_trial_11_colour2_distractors43_r.png,r,2,011,001,2021-04-19_17h58.15.204,searchDisc4,2020.2.10,Win32,60,,,space,0.349725,2,1,0.55174,,0,364,364,125,1,1b,11,2,43,
,,,,,,,,,,,,,,,,,,,,,,,,,,images/exp2b_trial_17_colour3_distractors43_r.png,r,2,011,001,2021-04-19_17h58.15.204,searchDisc4,2020.2.10,Win32,60,,,space,0.31943,2,1,0.704675,,0,365,365,359,1,2b,17,3,43,
,,,,,,,,,,,,,,,,,,,,,,,,,,images/exp1b_trial_81_colour1_distractors43_r.png,r,2,011,001,2021-04-19_17h58.15.204,searchDisc4,2020.2.10,Win32,60,,,space,0.29337,2,1,0.99348,,0,366,366,195,1,1b,81,1,43,
,,,,,,,,,,,,,,,,,,,,,,,,,,images/exp1b_trial_50_colour3_distractors1_r.png,r,2,011,001,2021-04-19_17h58.15.204,searchDisc4,2020.2.10,Win32,60,,,space,0.279965,2,1,0.571085,,0,367,367,164,1,1b,50,3,1,
,,,,,,,,,,,,,,,,,,,,,,,,,,images/exp1a_trial_87_colour2_distractors43_r.png,r,2,011,001,2021-04-19_17h58.15.204,searchDisc4,2020.2.10,Win32,60,,,space,0.30314,2,1,0.97221,,0,368,368,87,1,1a,87,2,43,
,,,,,,,,,,,,,,,,,,,,,,,,,,images/exp2b_trial_77_colour1_distractors4_r.png,r,2,011,001,2021-04-19_17h58.15.204,searchDisc4,2020.2.10,Win32,60,,,space,0.314575,2,1,0.545425,,0,369,369,419,1,2b,77,1,4,
,,,,,,,,,,,,,,,,,,,,,,,,,,images/exp2b_trial_69_colour3_distractors4_l.png,l,1,011,001,2021-04-19_17h58.15.204,searchDisc4,2020.2.10,Win32,60,,,space,0.31689,2,0,0.55368,,0,370,370,411,1,2b,69,3,4,
,,,,,,,,,,,,,,,,,,,,,,,,,,images/exp2a_trial_6_colour2_distractors1_r.png,r,2,011,001,2021-04-19_17h58.15.204,searchDisc4,2020.2.10,Win32,60,,,space,0.447965,2,1,0.54501,,0,371,371,234,1,2a,6,2,1,
,,,,,,,,,,,,,,,,,,,,,,,,,,images/exp2a_trial_25_colour2_distractors4_l.png,l,1,011,001,2021-04-19_17h58.15.204,searchDisc4,2020.2.10,Win32,60,,,space,0.29601,1,1,0.588105,,0,372,372,253,1,2a,25,2,4,
,,,,,,,,,,,,,,,,,,,,,,,,,,images/exp2c_trial_90_colour3_distractors9_r.png,r,2,011,001,2021-04-19_17h58.15.204,searchDisc4,2020.2.10,Win32,60,,,space,0.274175,2,1,0.63733,,0,373,373,546,1,2c,90,3,9,
,,,,,,,,,,,,,,,,,,,,,,,,,,images/exp2b_trial_23_colour1_distractors43_l.png,l,1,011,001,2021-04-19_17h58.15.204,searchDisc4,2020.2.10,Win32,60,,,space,0.30615,1,1,0.61964,,0,374,374,365,1,2b,23,1,43,
,,,,,,,,,,,,,,,,,,,,,,,,,,images/exp2a_trial_38_colour1_distractors1_r.png,r,2,011,001,2021-04-19_17h58.15.204,searchDisc4,2020.2.10,Win32,60,,,space,0.370975,2,1,0.738525,,0,375,375,266,1,2a,38,1,1,
,,,,,,,,,,,,,,,,,,,,,,,,,,images/exp1b_trial_77_colour1_distractors4_r.png,r,2,011,001,2021-04-19_17h58.15.204,searchDisc4,2020.2.10,Win32,60,,,space,0.288705,2,1,0.68177,,0,376,376,191,1,1b,77,1,4,
,,,,,,,,,,,,,,,,,,,,,,,,,,images/exp1a_trial_45_colour2_distractors4_r.png,r,2,011,001,2021-04-19_17h58.15.204,searchDisc4,2020.2.10,Win32,60,,,space,0.310995,2,1,0.825005,,0,377,377,45,1,1a,45,2,4,
,,,,,,,,,,,,,,,,,,,,,,,,,,images/exp1b_trial_10_colour2_distractors31_r.png,r,2,011,001,2021-04-19_17h58.15.204,searchDisc4,2020.2.10,Win32,60,,,space,0.29565,2,1,0.73075,,0,378,378,124,1,1b,10,2,31,
,,,,,,,,,,,,,,,,,,,,,,,,,,images/exp1b_trial_108_colour3_distractors9_l.png,l,1,011,001,2021-04-19_17h58.15.204,searchDisc4,2020.2.10,Win32,60,,,space,0.274995,1,1,0.765455,,0,379,379,222,1,1b,108,3,9,
,,,,,,,,,,,,,,,,,,,,,,,,,,images/exp1b_trial_93_colour3_distractors43_r.png,r,2,011,001,2021-04-19_17h58.15.204,searchDisc4,2020.2.10,Win32,60,,,space,0.33743,2,1,0.537765,,0,380,380,207,1,1b,93,3,43,
,,,,,,,,,,,,,,,,,,,,,,,,,,images/exp1b_trial_45_colour2_distractors4_r.png,r,2,011,001,2021-04-19_17h58.15.204,searchDisc4,2020.2.10,Win32,60,,,space,0.30194,2,1,0.54782,,0,381,381,159,1,1b,45,2,4,
,,,,,,,,,,,,,,,,,,,,,,,,,,images/exp1a_trial_90_colour3_distractors9_r.png,r,2,011,001,2021-04-19_17h58.15.204,searchDisc4,2020.2.10,Win32,60,,,space,0.32859,2,1,0.79899,,0,382,382,90,1,1a,90,3,9,
,,,,,,,,,,,,,,,,,,,,,,,,,,images/exp2a_trial_9_colour2_distractors19_r.png,r,2,011,001,2021-04-19_17h58.15.204,searchDisc4,2020.2.10,Win32,60,,,space,0.296125,2,1,0.591985,,0,383,383,237,1,2a,9,2,19,
,,,,,,,,,,,,,,,,,,,,,,,,,,images/exp1b_trial_20_colour1_distractors9_l.png,l,1,011,001,2021-04-19_17h58.15.204,searchDisc4,2020.2.10,Win32,60,,,space,0.31805,1,1,0.7624,,0,384,384,134,1,1b,20,1,9,
,,,,,,,,,,,,,,,,,,,,,,,,,,images/exp1b_trial_90_colour3_distractors9_r.png,r,2,011,001,2021-04-19_17h58.15.204,searchDisc4,2020.2.10,Win32,60,,,space,0.31933,2,1,0.704555,,0,385,385,204,1,1b,90,3,9,
,,,,,,,,,,,,,,,,,,,,,,,,,,images/exp1a_trial_96_colour1_distractors9_l.png,l,1,011,001,2021-04-19_17h58.15.204,searchDisc4,2020.2.10,Win32,60,,,space,0.362705,1,1,0.599135,,0,386,386,96,1,1a,96,1,9,
,,,,,,,,,,,,,,,,,,,,,,,,,,images/exp2b_trial_98_colour1_distractors31_l.png,l,1,011,001,2021-04-19_17h58.15.204,searchDisc4,2020.2.10,Win32,60,,,space,0.385575,1,1,0.617955,,0,387,387,440,1,2b,98,1,31,
,,,,,,,,,,,,,,,,,,,,,,,,,,images/exp1b_trial_1_colour1_distractors4_r.png,r,2,011,001,2021-04-19_17h58.15.204,searchDisc4,2020.2.10,Win32,60,,,space,0.36347,2,1,0.740105,,0,388,388,115,1,1b,1,1,4,
,,,,,,,,,,,,,,,,,,,,,,,,,,images/exp2c_trial_93_colour3_distractors43_r.png,r,2,011,001,2021-04-19_17h58.15.204,searchDisc4,2020.2.10,Win32,60,,,space,0.279135,2,1,0.57105,,0,389,389,549,1,2c,93,3,43,
,,,,,,,,,,,,,,,,,,,,,,,,,,images/exp2c_trial_11_colour2_distractors43_r.png,r,2,011,001,2021-04-19_17h58.15.204,searchDisc4,2020.2.10,Win32,60,,,space,0.295305,2,1,0.518325,,0,390,390,467,1,2c,11,2,43,
,,,,,,,,,,,,,,,,,,,,,,,,,,images/exp2c_trial_96_colour1_distractors9_l.png,l,1,011,001,2021-04-19_17h58.15.204,searchDisc4,2020.2.10,Win32,60,,,space,0.35598,1,1,0.822255,,0,391,391,552,1,2c,96,1,9,
,,,,,,,,,,,,,,,,,,,,,,,,,,images/exp1a_trial_31_colour3_distractors4_l.png,l,1,011,001,2021-04-19_17h58.15.204,searchDisc4,2020.2.10,Win32,60,,,space,0.300305,1,1,0.64762,,0,392,392,31,1,1a,31,3,4,
,,,,,,,,,,,,,,,,,,,,,,,,,,images/exp2c_trial_10_colour2_distractors31_r.png,r,2,011,001,2021-04-19_17h58.15.204,searchDisc4,2020.2.10,Win32,60,,,space,0.423,2,1,0.652435,,0,393,393,466,1,2c,10,2,31,
,,,,,,,,,,,,,,,,,,,,,,,,,,images/exp2a_trial_47_colour2_distractors19_r.png,r,2,011,001,2021-04-19_17h58.15.204,searchDisc4,2020.2.10,Win32,60,,,space,0.401195,2,1,0.527535,,0,394,394,275,1,2a,47,2,19,
,,,,,,,,,,,,,,,,,,,,,,,,,,images/exp1b_trial_8_colour2_distractors9_r.png,r,2,011,001,2021-04-19_17h58.15.204,searchDisc4,2020.2.10,Win32,60,,,space,0.295795,2,1,0.641835,,0,395,395,122,1,1b,8,2,9,
,,,,,,,,,,,,,,,,,,,,,,,,,,images/exp2b_trial_56_colour1_distractors1_l.png,l,1,011,001,2021-04-19_17h58.15.204,searchDisc4,2020.2.10,Win32,60,,,space,0.30323,1,1,0.468345,,0,396,396,398,1,2b,56,1,1,
,,,,,,,,,,,,,,,,,,,,,,,,,,images/exp2b_trial_65_colour2_distractors19_l.png,l,1,011,001,2021-04-19_17h58.15.204,searchDisc4,2020.2.10,Win32,60,,,space,0.31155,1,1,0.56115,,0,397,397,407,1,2b,65,2,19,
,,,,,,,,,,,,,,,,,,,,,,,,,,images/exp2b_trial_1_colour1_distractors4_r.png,r,2,011,001,2021-04-19_17h58.15.204,searchDisc4,2020.2.10,Win32,60,,,space,0.327085,2,1,0.68206,,0,398,398,343,1,2b,1,1,4,
,,,,,,,,,,,,,,,,,,,,,,,,,,images/exp2c_trial_22_colour1_distractors31_l.png,l,1,011,001,2021-04-19_17h58.15.204,searchDisc4,2020.2.10,Win32,60,,,space,0.321785,1,1,0.683325,,0,399,399,478,1,2c,22,1,31,
,,,,,,,,,,,,,,,,,,,,,,,,,,images/exp1b_trial_46_colour2_distractors9_r.png,r,2,011,001,2021-04-19_17h58.15.204,searchDisc4,2020.2.10,Win32,60,,,space,0.312795,2,1,0.785555,,0,400,400,160,1,1b,46,2,9,
,,,,,,,,,,,,,,,,,,,,,,,,,,images/exp2a_trial_72_colour3_distractors31_l.png,l,1,011,001,2021-04-19_17h58.15.204,searchDisc4,2020.2.10,Win32,60,,,space,0.36826,1,1,0.73441,,0,401,401,300,1,2a,72,3,31,
,,,,,,,,,,,,,,,,,,,,,,,,,,images/exp2a_trial_12_colour3_distractors1_r.png,r,2,011,001,2021-04-19_17h58.15.204,searchDisc4,2020.2.10,Win32,60,,,space,0.327675,2,1,0.55444,,0,402,402,240,1,2a,12,3,1,
,,,,,,,,,,,,,,,,,,,,,,,,,,images/exp2a_trial_85_colour2_distractors19_r.png,r,2,011,001,2021-04-19_17h58.15.204,searchDisc4,2020.2.10,Win32,60,,,space,0.33549,2,1,0.653485,,0,403,403,313,1,2a,85,2,19,
,,,,,,,,,,,,,,,,,,,,,,,,,,images/exp1a_trial_103_colour2_distractors19_l.png,l,1,011,001,2021-04-19_17h58.15.204,searchDisc4,2020.2.10,Win32,60,,,space,0.339405,1,1,1.34121,,0,404,404,103,1,1a,103,2,19,
,,,,,,,,,,,,,,,,,,,,,,,,,,images/exp2c_trial_111_colour3_distractors43_l.png,l,1,011,001,2021-04-19_17h58.15.204,searchDisc4,2020.2.10,Win32,60,,,space,0.302595,2,0,0.553275,,0,405,405,567,1,2c,111,3,43,
,,,,,,,,,,,,,,,,,,,,,,,,,,images/exp1b_trial_4_colour1_distractors31_r.png,r,2,011,001,2021-04-19_17h58.15.204,searchDisc4,2020.2.10,Win32,60,,,space,0.655985,2,1,0.837125,,0,406,406,118,1,1b,4,1,31,
,,,,,,,,,,,,,,,,,,,,,,,,,,images/exp2a_trial_66_colour2_distractors31_l.png,l,1,011,001,2021-04-19_17h58.15.204,searchDisc4,2020.2.10,Win32,60,,,space,0.44435,1,1,0.579495,,0,407,407,294,1,2a,66,2,31,
,,,,,,,,,,,,,,,,,,,,,,,,,,images/exp2c_trial_23_colour1_distractors43_l.png,l,1,011,001,2021-04-19_17h58.15.204,searchDisc4,2020.2.10,Win32,60,,,space,0.28189,1,1,0.569645,,0,408,408,479,1,2c,23,1,43,
,,,,,,,,,,,,,,,,,,,,,,,,,,images/exp1b_trial_29_colour2_distractors43_l.png,l,1,011,001,2021-04-19_17h58.15.204,searchDisc4,2020.2.10,Win32,60,,,space,0.311095,1,1,0.826075,,0,409,409,143,1,1b,29,2,43,
,,,,,,,,,,,,,,,,,,,,,,,,,,images/exp2a_trial_48_colour2_distractors31_r.png,r,2,011,001,2021-04-19_17h58.15.204,searchDisc4,2020.2.10,Win32,60,,,space,0.357385,2,1,0.50985,,0,410,410,276,1,2a,48,2,31,
,,,,,,,,,,,,,,,,,,,,,,,,,,images/exp1b_trial_41_colour1_distractors19_r.png,r,2,011,001,2021-04-19_17h58.15.204,searchDisc4,2020.2.10,Win32,60,,,space,0.32471,2,1,0.624725,,0,411,411,155,1,1b,41,1,19,
,,,,,,,,,,,,,,,,,,,,,,,,,,images/exp2a_trial_68_colour3_distractors1_l.png,l,1,011,001,2021-04-19_17h58.15.204,searchDisc4,2020.2.10,Win32,60,,,space,0.309755,1,1,0.53202,,0,412,412,296,1,2a,68,3,1,
,,,,,,,,,,,,,,,,,,,,,,,,,,images/exp1b_trial_65_colour2_distractors19_l.png,l,1,011,001,2021-04-19_17h58.15.204,searchDisc4,2020.2.10,Win32,60,,,space,0.323475,1,1,1.28539,,0,413,413,179,1,1b,65,2,19,
,,,,,,,,,,,,,,,,,,,,,,,,,,images/exp2b_trial_55_colour3_distractors43_r.png,r,2,011,001,2021-04-19_17h58.15.204,searchDisc4,2020.2.10,Win32,60,,,space,0.297105,2,1,0.8727,,0,414,414,397,1,2b,55,3,43,
,,,,,,,,,,,,,,,,,,,,,,,,,,images/exp2b_trial_40_colour1_distractors9_r.png,r,2,011,001,2021-04-19_17h58.15.204,searchDisc4,2020.2.10,Win32,60,,,space,0.34027,2,1,0.67726,,0,415,415,382,1,2b,40,1,9,
,,,,,,,,,,,,,,,,,,,,,,,,,,images/exp2b_trial_107_colour3_distractors4_l.png,l,1,011,001,2021-04-19_17h58.15.204,searchDisc4,2020.2.10,Win32,60,,,space,0.29334,1,1,0.669205,,0,416,416,449,1,2b,107,3,4,
,,,,,,,,,,,,,,,,,,,,,,,,,,images/exp1b_trial_44_colour2_distractors1_r.png,r,2,011,001,2021-04-19_17h58.15.204,searchDisc4,2020.2.10,Win32,60,,,space,0.334535,2,1,0.67159,,0,417,417,158,1,1b,44,2,1,
,,,,,,,,,,,,,,,,,,,,,,,,,,images/exp1a_trial_48_colour2_distractors31_r.png,r,2,011,001,2021-04-19_17h58.15.204,searchDisc4,2020.2.10,Win32,60,,,space,0.351565,2,1,0.53894,,0,418,418,48,1,1a,48,2,31,
,,,,,,,,,,,,,,,,,,,,,,,,,,images/exp2c_trial_59_colour1_distractors19_l.png,l,1,011,001,2021-04-19_17h58.15.204,searchDisc4,2020.2.10,Win32,60,,,space,0.31011,1,1,0.499465,space,0,419,419,515,1,2c,59,1,19,2.41003
,,,,,,,,,,,,,,,,,,,,,,,,,,images/exp2b_trial_105_colour2_distractors43_l.png,l,1,011,001,2021-04-19_17h58.15.204,searchDisc4,2020.2.10,Win32,60,,,space,1.287575,1,1,0.57204,,0,420,420,447,1,2b,105,2,43,
,,,,,,,,,,,,,,,,,,,,,,,,,,images/exp1b_trial_36_colour0_distractors0_r.png,r,2,011,001,2021-04-19_17h58.15.204,searchDisc4,2020.2.10,Win32,60,,,space,0.26714,2,1,0.46192,,0,421,421,150,1,1b,36,0,0,
,,,,,,,,,,,,,,,,,,,,,,,,,,images/exp2a_trial_42_colour1_distractors31_r.png,r,2,011,001,2021-04-19_17h58.15.204,searchDisc4,2020.2.10,Win32,60,,,space,0.30032,2,1,0.69695,,0,422,422,270,1,2a,42,1,31,
,,,,,,,,,,,,,,,,,,,,,,,,,,images/exp1b_trial_33_colour3_distractors19_l.png,l,1,011,001,2021-04-19_17h58.15.204,searchDisc4,2020.2.10,Win32,60,,,space,0.273715,1,1,1.10964,,0,423,423,147,1,1b,33,3,19,
,,,,,,,,,,,,,,,,,,,,,,,,,,images/exp2c_trial_37_colour0_distractors0_l.png,l,1,011,001,2021-04-19_17h58.15.204,searchDisc4,2020.2.10,Win32,60,,,space,0.303845,1,1,0.524225,,0,424,424,493,1,2c,37,0,0,
,,,,,,,,,,,,,,,,,,,,,,,,,,images/exp1b_trial_102_colour2_distractors9_l.png,l,1,011,001,2021-04-19_17h58.15.204,searchDisc4,2020.2.10,Win32,60,,,space,0.383535,1,1,0.518255,,0,425,425,216,1,1b,102,2,9,
,,,,,,,,,,,,,,,,,,,,,,,,,,images/exp1a_trial_25_colour2_distractors4_l.png,l,1,011,001,2021-04-19_17h58.15.204,searchDisc4,2020.2.10,Win32,60,,,space,0.363705,1,1,0.579075,,0,426,426,25,1,1a,25,2,4,
,,,,,,,,,,,,,,,,,,,,,,,,,,images/exp2c_trial_68_colour3_distractors1_l.png,l,1,011,001,2021-04-19_17h58.15.204,searchDisc4,2020.2.10,Win32,60,,,space,0.37135,1,1,0.67589,,0,427,427,524,1,2c,68,3,1,
,,,,,,,,,,,,,,,,,,,,,,,,,,images/exp2a_trial_34_colour3_distractors31_l.png,l,1,011,001,2021-04-19_17h58.15.204,searchDisc4,2020.2.10,Win32,60,,,space,0.34517,1,1,0.643015,,0,428,428,262,1,2a,34,3,31,
,,,,,,,,,,,,,,,,,,,,,,,,,,images/exp2a_trial_93_colour3_distractors43_r.png,r,2,011,001,2021-04-19_17h58.15.204,searchDisc4,2020.2.10,Win32,60,,,space,0.348415,2,1,0.73041,,0,429,429,321,1,2a,93,3,43,
,,,,,,,,,,,,,,,,,,,,,,,,,,images/exp1a_trial_74_colour0_distractors0_r.png,r,2,011,001,2021-04-19_17h58.15.204,searchDisc4,2020.2.10,Win32,60,,,space,0.384005,2,1,0.45227,,0,430,430,74,1,1a,74,0,0,
,,,,,,,,,,,,,,,,,,,,,,,,,,images/exp2c_trial_89_colour3_distractors4_r.png,r,2,011,001,2021-04-19_17h58.15.204,searchDisc4,2020.2.10,Win32,60,,,space,0.335125,2,1,0.43521,,0,431,431,545,1,2c,89,3,4,
,,,,,,,,,,,,,,,,,,,,,,,,,,images/exp2c_trial_7_colour2_distractors4_r.png,r,2,011,001,2021-04-19_17h58.15.204,searchDisc4,2020.2.10,Win32,60,,,space,0.30138,2,1,0.67531,,0,432,432,463,1,2c,7,2,4,
,,,,,,,,,,,,,,,,,,,,,,,,,,images/exp1b_trial_54_colour3_distractors31_r.png,r,2,011,001,2021-04-19_17h58.15.204,searchDisc4,2020.2.10,Win32,60,,,space,0.239735,2,1,2.78871,,0,433,433,168,1,1b,54,3,31,
,,,,,,,,,,,,,,,,,,,,,,,,,,images/exp2c_trial_39_colour1_distractors4_r.png,r,2,011,001,2021-04-19_17h58.15.204,searchDisc4,2020.2.10,Win32,60,,,space,0.322125,2,1,0.74097,,0,434,434,495,1,2c,39,1,4,
,,,,,,,,,,,,,,,,,,,,,,,,,,images/exp1b_trial_76_colour1_distractors1_r.png,r,2,011,001,2021-04-19_17h58.15.204,searchDisc4,2020.2.10,Win32,60,,,space,0.298785,2,1,0.62247,,0,435,435,190,1,1b,76,1,1,
,,,,,,,,,,,,,,,,,,,,,,,,,,images/exp1b_trial_16_colour3_distractors31_r.png,r,2,011,001,2021-04-19_17h58.15.204,searchDisc4,2020.2.10,Win32,60,,,space,0.335015,2,1,0.92463,,0,436,436,130,1,1b,16,3,31,
,,,,,,,,,,,,,,,,,,,,,,,,,,images/exp1a_trial_66_colour2_distractors31_l.png,l,1,011,001,2021-04-19_17h58.15.204,searchDisc4,2020.2.10,Win32,60,,,space,0.331925,1,1,0.554355,,0,437,437,66,1,1a,66,2,31,
,,,,,,,,,,,,,,,,,,,,,,,,,,images/exp2c_trial_81_colour1_distractors43_r.png,r,2,011,001,2021-04-19_17h58.15.204,searchDisc4,2020.2.10,Win32,60,,,space,0.36396,2,1,0.49571,,0,438,438,537,1,2c,81,1,43,
,,,,,,,,,,,,,,,,,,,,,,,,,,images/exp2a_trial_99_colour1_distractors43_l.png,l,1,011,001,2021-04-19_17h58.15.204,searchDisc4,2020.2.10,Win32,60,,,space,0.3281,1,1,0.99591,,0,439,439,327,1,2a,99,1,43,
,,,,,,,,,,,,,,,,,,,,,,,,,,images/exp2b_trial_41_colour1_distractors19_r.png,r,2,011,001,2021-04-19_17h58.15.204,searchDisc4,2020.2.10,Win32,60,,,space,0.408305,2,1,0.5494,,0,440,440,383,1,2b,41,1,19,
,,,,,,,,,,,,,,,,,,,,,,,,,,images/exp2a_trial_64_colour2_distractors9_l.png,l,1,011,001,2021-04-19_17h58.15.204,searchDisc4,2020.2.10,Win32,60,,,space,0.374165,1,1,0.586295,,0,441,441,292,1,2a,64,2,9,
,,,,,,,,,,,,,,,,,,,,,,,,,,images/exp2a_trial_110_colour3_distractors31_l.png,l,1,011,001,2021-04-19_17h58.15.204,searchDisc4,2020.2.10,Win32,60,,,space,0.354945,1,1,0.70012,,0,442,442,338,1,2a,110,3,31,
,,,,,,,,,,,,,,,,,,,,,,,,,,images/exp1a_trial_0_colour1_distractors1_r.png,r,2,011,001,2021-04-19_17h58.15.204,searchDisc4,2020.2.10,Win32,60,,,space,0.373955,2,1,1.83124,,0,443,443,0,1,1a,0,1,1,
,,,,,,,,,,,,,,,,,,,,,,,,,,images/exp2a_trial_76_colour1_distractors1_r.png,r,2,011,001,2021-04-19_17h58.15.204,searchDisc4,2020.2.10,Win32,60,,,space,0.3396,2,1,0.484195,,0,444,444,304,1,2a,76,1,1,
,,,,,,,,,,,,,,,,,,,,,,,,,,images/exp2c_trial_3_colour1_distractors19_r.png,r,2,011,001,2021-04-19_17h58.15.204,searchDisc4,2020.2.10,Win32,60,,,space,0.41017,2,1,0.77717,,0,445,445,459,1,2c,3,1,19,
,,,,,,,,,,,,,,,,,,,,,,,,,,images/exp2c_trial_110_colour3_distractors31_l.png,l,1,011,001,2021-04-19_17h58.15.204,searchDisc4,2020.2.10,Win32,60,,,space,0.345485,1,1,0.51605,,0,446,446,566,1,2c,110,3,31,
,,,,,,,,,,,,,,,,,,,,,,,,,,images/exp2b_trial_30_colour3_distractors1_l.png,l,1,011,001,2021-04-19_17h58.15.204,searchDisc4,2020.2.10,Win32,60,,,space,0.346185,1,1,0.600465,,0,447,447,372,1,2b,30,3,1,
,,,,,,,,,,,,,,,,,,,,,,,,,,images/exp1b_trial_62_colour2_distractors1_l.png,l,1,011,001,2021-04-19_17h58.15.204,searchDisc4,2020.2.10,Win32,60,,,space,0.397565,1,1,0.641025,,0,448,448,176,1,1b,62,2,1,
,,,,,,,,,,,,,,,,,,,,,,,,,,images/exp1b_trial_86_colour2_distractors31_r.png,r,2,011,001,2021-04-19_17h58.15.204,searchDisc4,2020.2.10,Win32,60,,,space,0.40739,2,1,1.052415,,0,449,449,200,1,1b,86,2,31,
,,,,,,,,,,,,,,,,,,,,,,,,,,images/exp2c_trial_36_colour0_distractors0_r.png,r,2,011,001,2021-04-19_17h58.15.204,searchDisc4,2020.2.10,Win32,60,,,space,0.36547,2,1,0.891425,,0,450,450,492,1,2c,36,0,0,
,,,,,,,,,,,,,,,,,,,,,,,,,,images/exp2a_trial_22_colour1_distractors31_l.png,l,1,011,001,2021-04-19_17h58.15.204,searchDisc4,2020.2.10,Win32,60,,,space,0.404715,1,1,0.699875,,0,451,451,250,1,2a,22,1,31,
,,,,,,,,,,,,,,,,,,,,,,,,,,images/exp2a_trial_21_colour1_distractors19_l.png,l,1,011,001,2021-04-19_17h58.15.204,searchDisc4,2020.2.10,Win32,60,,,space,0.353995,1,1,0.8822,,0,452,452,249,1,2a,21,1,19,
,,,,,,,,,,,,,,,,,,,,,,,,,,images/exp1a_trial_26_colour2_distractors9_l.png,l,1,011,001,2021-04-19_17h58.15.204,searchDisc4,2020.2.10,Win32,60,,,space,0.364215,1,1,0.753605,,0,453,453,26,1,1a,26,2,9,
,,,,,,,,,,,,,,,,,,,,,,,,,,images/exp1a_trial_69_colour3_distractors4_l.png,l,1,011,001,2021-04-19_17h58.15.204,searchDisc4,2020.2.10,Win32,60,,,space,0.380765,1,1,4.02231,,0,454,454,69,1,1a,69,3,4,
,,,,,,,,,,,,,,,,,,,,,,,,,,images/exp1b_trial_30_colour3_distractors1_l.png,l,1,011,001,2021-04-19_17h58.15.204,searchDisc4,2020.2.10,Win32,60,,,space,0.36593,1,1,0.942195,,0,455,455,144,1,1b,30,3,1,
,,,,,,,,,,,,,,,,,,,,,,,,,,images/exp1b_trial_19_colour1_distractors4_l.png,l,1,011,001,2021-04-19_17h58.15.204,searchDisc4,2020.2.10,Win32,60,,,space,0.380025,1,1,0.983055,,0,456,456,133,1,1b,19,1,4,
,,,,,,,,,,,,,,,,,,,,,,,,,,images/exp2a_trial_20_colour1_distractors9_l.png,l,1,011,001,2021-04-19_17h58.15.204,searchDisc4,2020.2.10,Win32,60,,,space,0.380805,1,1,0.759455,,0,457,457,248,1,2a,20,1,9,
,,,,,,,,,,,,,,,,,,,,,,,,,,images/exp1a_trial_107_colour3_distractors4_l.png,l,1,011,001,2021-04-19_17h58.15.204,searchDisc4,2020.2.10,Win32,60,,,space,0.339295,1,1,0.601155,,0,458,458,107,1,1a,107,3,4,
,,,,,,,,,,,,,,,,,,,,,,,,,,images/exp2a_trial_90_colour3_distractors9_r.png,r,2,011,001,2021-04-19_17h58.15.204,searchDisc4,2020.2.10,Win32,60,,,space,0.39657,2,1,0.697145,,0,459,459,318,1,2a,90,3,9,
,,,,,,,,,,,,,,,,,,,,,,,,,,images/exp2a_trial_28_colour2_distractors31_l.png,l,1,011,001,2021-04-19_17h58.15.204,searchDisc4,2020.2.10,Win32,60,,,space,0.312035,1,1,0.497135,,0,460,460,256,1,2a,28,2,31,
,,,,,,,,,,,,,,,,,,,,,,,,,,images/exp2a_trial_63_colour2_distractors4_l.png,l,1,011,001,2021-04-19_17h58.15.204,searchDisc4,2020.2.10,Win32,60,,,space,0.357985,1,1,0.6519,,0,461,461,291,1,2a,63,2,4,
,,,,,,,,,,,,,,,,,,,,,,,,,,images/exp2c_trial_77_colour1_distractors4_r.png,r,2,011,001,2021-04-19_17h58.15.204,searchDisc4,2020.2.10,Win32,60,,,space,0.36989,2,1,0.57484,,0,462,462,533,1,2c,77,1,4,
,,,,,,,,,,,,,,,,,,,,,,,,,,images/exp1a_trial_30_colour3_distractors1_l.png,l,1,011,001,2021-04-19_17h58.15.204,searchDisc4,2020.2.10,Win32,60,,,space,0.3261,1,1,0.63848,,0,463,463,30,1,1a,30,3,1,
,,,,,,,,,,,,,,,,,,,,,,,,,,images/exp1a_trial_32_colour3_distractors9_l.png,l,1,011,001,2021-04-19_17h58.15.204,searchDisc4,2020.2.10,Win32,60,,,space,0.345965,1,1,0.545565,,0,464,464,32,1,1a,32,3,9,
,,,,,,,,,,,,,,,,,,,,,,,,,,images/exp2b_trial_72_colour3_distractors31_l.png,l,1,011,001,2021-04-19_17h58.15.204,searchDisc4,2020.2.10,Win32,60,,,space,0.445505,1,1,1.001265,,0,465,465,414,1,2b,72,3,31,
,,,,,,,,,,,,,,,,,,,,,,,,,,images/exp2a_trial_27_colour2_distractors19_l.png,l,1,011,001,2021-04-19_17h58.15.204,searchDisc4,2020.2.10,Win32,60,,,space,0.35859,1,1,0.59143,,0,466,466,255,1,2a,27,2,19,
,,,,,,,,,,,,,,,,,,,,,,,,,,images/exp2a_trial_16_colour3_distractors31_r.png,r,2,011,001,2021-04-19_17h58.15.204,searchDisc4,2020.2.10,Win32,60,,,space,0.338075,2,1,0.72041,,0,467,467,244,1,2a,16,3,31,
,,,,,,,,,,,,,,,,,,,,,,,,,,images/exp1b_trial_110_colour3_distractors31_l.png,l,1,011,001,2021-04-19_17h58.15.204,searchDisc4,2020.2.10,Win32,60,,,space,0.331085,1,1,3.386115,,0,468,468,224,1,1b,110,3,31,
,,,,,,,,,,,,,,,,,,,,,,,,,,images/exp2b_trial_3_colour1_distractors19_r.png,r,2,011,001,2021-04-19_17h58.15.204,searchDisc4,2020.2.10,Win32,60,,,space,0.38076,2,1,0.597745,,0,469,469,345,1,2b,3,1,19,
,,,,,,,,,,,,,,,,,,,,,,,,,,images/exp1b_trial_34_colour3_distractors31_l.png,l,1,011,001,2021-04-19_17h58.15.204,searchDisc4,2020.2.10,Win32,60,,,space,0.34526,1,1,0.786995,,0,470,470,148,1,1b,34,3,31,
,,,,,,,,,,,,,,,,,,,,,,,,,,images/exp2c_trial_40_colour1_distractors9_r.png,r,2,011,001,2021-04-19_17h58.15.204,searchDisc4,2020.2.10,Win32,60,,,space,0.350215,2,1,0.660365,,0,471,471,496,1,2c,40,1,9,
,,,,,,,,,,,,,,,,,,,,,,,,,,images/exp2c_trial_79_colour1_distractors19_r.png,r,2,011,001,2021-04-19_17h58.15.204,searchDisc4,2020.2.10,Win32,60,,,space,0.30468,2,1,0.54022,,0,472,472,535,1,2c,79,1,19,
,,,,,,,,,,,,,,,,,,,,,,,,,,images/exp2b_trial_57_colour1_distractors4_l.png,l,1,011,001,2021-04-19_17h58.15.204,searchDisc4,2020.2.10,Win32,60,,,space,0.34424,1,1,0.499705,,0,473,473,399,1,2b,57,1,4,
,,,,,,,,,,,,,,,,,,,,,,,,,,images/exp1a_trial_15_colour3_distractors19_r.png,r,2,011,001,2021-04-19_17h58.15.204,searchDisc4,2020.2.10,Win32,60,,,space,0.31856,2,1,0.796305,,0,474,474,15,1,1a,15,3,19,
,,,,,,,,,,,,,,,,,,,,,,,,,,images/exp2a_trial_100_colour2_distractors1_l.png,l,1,011,001,2021-04-19_17h58.15.204,searchDisc4,2020.2.10,Win32,60,,,space,0.36462,1,1,0.629275,,0,475,475,328,1,2a,100,2,1,
,,,,,,,,,,,,,,,,,,,,,,,,,,images/exp2b_trial_16_colour3_distractors31_r.png,r,2,011,001,2021-04-19_17h58.15.204,searchDisc4,2020.2.10,Win32,60,,,space,0.33373,2,1,1.188685,,0,476,476,358,1,2b,16,3,31,
