X Scale,Y Scale,key_resp_10.keys,key_resp_10.rt,key_resp_11.keys,key_resp_11.rt,key_resp_12.keys,key_resp_12.rt,key_resp_13.keys,key_resp_13.rt,key_resp_5.keys,key_resp_5.rt,key_resp_8.keys,key_resp_8.rt,key_resp_6.keys,key_resp_6.rt,key_resp_7.keys,key_resp_7.rt,key_resp_4.keys,key_resp_4.corr,key_resp_4.rt,trials_2.thisRepN,trials_2.thisTrialN,trials_2.thisN,trials_2.thisIndex,trials_2.ran,ImageFile,targ_side,correctAnswer,participant,session,date,expName,psychopyVersion,OS,frameRate,key_resp_3.keys,key_resp_3.rt,key_resp_9.keys,key_resp_9.rt,key_resp_2.keys,key_resp_2.corr,key_resp_2.rt,key_resp.keys,trials.thisRepN,trials.thisTrialN,trials.thisN,trials.thisIndex,trials.ran,exp,trial,colour,distNo,key_resp.rt
39.1,39.8,space,4.359,space,0.58,space,0.475,space,0.391,space,2.004,space,0.623,space,0.867,space,1.218,1,1,2.703,0,0,0,16,1,Practice arrays/exp1a_trial_33_colour3_distractors19_l.png,l,1,013,001,2021-04-20_14h47.49.917,searchDisc4,2020.2.10,MacIntel,60,,,,,,,,,,,,,,,,,,
,,,,,,,,,,,,,,,,space,0.51,2,1,0.547,0,1,1,7,1,Practice arrays/exp1a_trial_13_colour3_distractors4_r.png,r,2,013,001,2021-04-20_14h47.49.917,searchDisc4,2020.2.10,MacIntel,60,,,,,,,,,,,,,,,,,,
,,,,,,,,,,,,,,,,space,0.666,1,1,0.581,0,2,2,11,1,Practice arrays/exp1a_trial_21_colour1_distractors19_l.png,l,1,013,001,2021-04-20_14h47.49.917,searchDisc4,2020.2.10,MacIntel,60,,,,,,,,,,,,,,,,,,
,,,,,,,,,,,,,,,,space,0.41,2,1,0.545,0,3,3,18,1,Practice arrays/exp1a_trial_36_colour0_distractors0_r.png,r,2,013,001,2021-04-20_14h47.49.917,searchDisc4,2020.2.10,MacIntel,60,,,,,,,,,,,,,,,,,,
,,,,,,,,,,,,,,,,space,0.401,2,1,0.647,0,4,4,1,1,Practice arrays/exp1a_trial_3_colour1_distractors19_r.png,r,2,013,001,2021-04-20_14h47.49.917,searchDisc4,2020.2.10,MacIntel,60,,,,,,,,,,,,,,,,,,
,,,,,,,,,,,,,,,,space,0.378,2,1,0.647,0,5,5,0,1,Practice arrays/exp1a_trial_0_colour1_distractors1_r.png,r,2,013,001,2021-04-20_14h47.49.917,searchDisc4,2020.2.10,MacIntel,60,,,,,,,,,,,,,,,,,,
,,,,,,,,,,,,,,,,space,0.34,2,1,0.514,0,6,6,4,1,Practice arrays/exp1a_trial_8_colour2_distractors9_r.png,r,2,013,001,2021-04-20_14h47.49.917,searchDisc4,2020.2.10,MacIntel,60,,,,,,,,,,,,,,,,,,
,,,,,,,,,,,,,,,,space,0.372,2,1,0.485,0,7,7,6,1,Practice arrays/exp1a_trial_12_colour3_distractors1_r.png,r,2,013,001,2021-04-20_14h47.49.917,searchDisc4,2020.2.10,MacIntel,60,,,,,,,,,,,,,,,,,,
,,,,,,,,,,,,,,,,space,0.367,1,1,0.61,0,8,8,17,1,Practice arrays/exp1a_trial_35_colour3_distractors43_l.png,l,1,013,001,2021-04-20_14h47.49.917,searchDisc4,2020.2.10,MacIntel,60,,,,,,,,,,,,,,,,,,
,,,,,,,,,,,,,,,,space,0.336,2,1,0.644,0,9,9,2,1,Practice arrays/exp1a_trial_5_colour1_distractors43_r.png,r,2,013,001,2021-04-20_14h47.49.917,searchDisc4,2020.2.10,MacIntel,60,,,,,,,,,,,,,,,,,,
,,,,,,,,,,,,,,,,space,0.204,1,1,0.713,0,10,10,12,1,Practice arrays/exp1a_trial_25_colour2_distractors4_l.png,l,1,013,001,2021-04-20_14h47.49.917,searchDisc4,2020.2.10,MacIntel,60,,,,,,,,,,,,,,,,,,
,,,,,,,,,,,,,,,,space,0.334,1,1,0.643,0,11,11,15,1,Practice arrays/exp1a_trial_32_colour3_distractors9_l.png,l,1,013,001,2021-04-20_14h47.49.917,searchDisc4,2020.2.10,MacIntel,60,,,,,,,,,,,,,,,,,,
,,,,,,,,,,,,,,,,space,0.335,2,0,0.51,0,12,12,10,1,Practice arrays/exp1a_trial_20_colour1_distractors9_l.png,l,1,013,001,2021-04-20_14h47.49.917,searchDisc4,2020.2.10,MacIntel,60,,,,,,,,,,,,,,,,,,
,,,,,,,,,,,,,,,,space,0.471,1,1,0.549,0,13,13,9,1,Practice arrays/exp1a_trial_19_colour1_distractors4_l.png,l,1,013,001,2021-04-20_14h47.49.917,searchDisc4,2020.2.10,MacIntel,60,,,,,,,,,,,,,,,,,,
,,,,,,,,,,,,,,,,space,0.467,1,1,0.548,0,14,14,14,1,Practice arrays/exp1a_trial_29_colour2_distractors43_l.png,l,1,013,001,2021-04-20_14h47.49.917,searchDisc4,2020.2.10,MacIntel,60,,,,,,,,,,,,,,,,,,
,,,,,,,,,,,,,,,,space,0.971,2,1,0.645,0,15,15,5,1,Practice arrays/exp1a_trial_10_colour2_distractors31_r.png,r,2,013,001,2021-04-20_14h47.49.917,searchDisc4,2020.2.10,MacIntel,60,,,,,,,,,,,,,,,,,,
,,,,,,,,,,,,,,,,space,0.367,2,1,0.581,0,16,16,8,1,Practice arrays/exp1a_trial_16_colour3_distractors31_r.png,r,2,013,001,2021-04-20_14h47.49.917,searchDisc4,2020.2.10,MacIntel,60,,,,,,,,,,,,,,,,,,
,,,,,,,,,,,,,,,,space,0.805,1,1,0.579,0,17,17,19,1,Practice arrays/exp1a_trial_37_colour0_distractors0_l.png,l,1,013,001,2021-04-20_14h47.49.917,searchDisc4,2020.2.10,MacIntel,60,,,,,,,,,,,,,,,,,,
,,,,,,,,,,,,,,,,space,0.704,2,0,0.479,0,18,18,13,1,Practice arrays/exp1a_trial_28_colour2_distractors31_l.png,l,1,013,001,2021-04-20_14h47.49.917,searchDisc4,2020.2.10,MacIntel,60,,,,,,,,,,,,,,,,,,
,,,,,,,,,,,,,,,,space,3.868,2,1,0.748,0,19,19,3,1,Practice arrays/exp1a_trial_7_colour2_distractors4_r.png,r,2,013,001,2021-04-20_14h47.49.917,searchDisc4,2020.2.10,MacIntel,60,,,,,,,,,,,,,,,,,,
,,,,,,,,,,,,,,,,,,,,,,,,,,images/exp1b_trial_37_colour0_distractors0_l.png,l,1,013,001,2021-04-20_14h47.49.917,searchDisc4,2020.2.10,MacIntel,60,space,0.534,space,0.755,1,1,0.607,,0,0,0,151,1,1b,37,0,0,
,,,,,,,,,,,,,,,,,,,,,,,,,,images/exp1a_trial_11_colour2_distractors43_r.png,r,2,013,001,2021-04-20_14h47.49.917,searchDisc4,2020.2.10,MacIntel,60,,,space,0.535,2,1,0.676,,0,1,1,11,1,1a,11,2,43,
,,,,,,,,,,,,,,,,,,,,,,,,,,images/exp2b_trial_23_colour1_distractors43_l.png,l,1,013,001,2021-04-20_14h47.49.917,searchDisc4,2020.2.10,MacIntel,60,,,space,0.532,1,1,0.542,,0,2,2,365,1,2b,23,1,43,
,,,,,,,,,,,,,,,,,,,,,,,,,,images/exp2b_trial_13_colour3_distractors4_r.png,r,2,013,001,2021-04-20_14h47.49.917,searchDisc4,2020.2.10,MacIntel,60,,,space,0.533,2,1,0.545,,0,3,3,355,1,2b,13,3,4,
,,,,,,,,,,,,,,,,,,,,,,,,,,images/exp2c_trial_2_colour1_distractors9_r.png,r,2,013,001,2021-04-20_14h47.49.917,searchDisc4,2020.2.10,MacIntel,60,,,space,0.4,2,1,0.51,,0,4,4,458,1,2c,2,1,9,
,,,,,,,,,,,,,,,,,,,,,,,,,,images/exp1b_trial_28_colour2_distractors31_l.png,l,1,013,001,2021-04-20_14h47.49.917,searchDisc4,2020.2.10,MacIntel,60,,,space,0.503,1,1,0.543,,0,5,5,142,1,1b,28,2,31,
,,,,,,,,,,,,,,,,,,,,,,,,,,images/exp1b_trial_11_colour2_distractors43_r.png,r,2,013,001,2021-04-20_14h47.49.917,searchDisc4,2020.2.10,MacIntel,60,,,space,0.47,2,1,0.61,,0,6,6,125,1,1b,11,2,43,
,,,,,,,,,,,,,,,,,,,,,,,,,,images/exp1a_trial_39_colour1_distractors4_r.png,r,2,013,001,2021-04-20_14h47.49.917,searchDisc4,2020.2.10,MacIntel,60,,,space,0.441,2,1,0.511,,0,7,7,39,1,1a,39,1,4,
,,,,,,,,,,,,,,,,,,,,,,,,,,images/exp1a_trial_109_colour3_distractors19_l.png,l,1,013,001,2021-04-20_14h47.49.917,searchDisc4,2020.2.10,MacIntel,60,,,space,0.466,1,1,0.543,,0,8,8,109,1,1a,109,3,19,
,,,,,,,,,,,,,,,,,,,,,,,,,,images/exp1a_trial_66_colour2_distractors31_l.png,l,1,013,001,2021-04-20_14h47.49.917,searchDisc4,2020.2.10,MacIntel,60,,,space,0.433,1,1,0.577,,0,9,9,66,1,1a,66,2,31,
,,,,,,,,,,,,,,,,,,,,,,,,,,images/exp2c_trial_30_colour3_distractors1_l.png,l,1,013,001,2021-04-20_14h47.49.917,searchDisc4,2020.2.10,MacIntel,60,,,space,0.444,1,1,0.542,,0,10,10,486,1,2c,30,3,1,
,,,,,,,,,,,,,,,,,,,,,,,,,,images/exp1a_trial_101_colour2_distractors4_l.png,l,1,013,001,2021-04-20_14h47.49.917,searchDisc4,2020.2.10,MacIntel,60,,,space,0.405,1,1,0.483,,0,11,11,101,1,1a,101,2,4,
,,,,,,,,,,,,,,,,,,,,,,,,,,images/exp2a_trial_28_colour2_distractors31_l.png,l,1,013,001,2021-04-20_14h47.49.917,searchDisc4,2020.2.10,MacIntel,60,,,space,0.468,1,1,0.547,,0,12,12,256,1,2a,28,2,31,
,,,,,,,,,,,,,,,,,,,,,,,,,,images/exp1b_trial_107_colour3_distractors4_l.png,l,1,013,001,2021-04-20_14h47.49.917,searchDisc4,2020.2.10,MacIntel,60,,,space,0.467,1,1,0.612,,0,13,13,221,1,1b,107,3,4,
,,,,,,,,,,,,,,,,,,,,,,,,,,images/exp2b_trial_93_colour3_distractors43_r.png,r,2,013,001,2021-04-20_14h47.49.917,searchDisc4,2020.2.10,MacIntel,60,,,space,0.466,2,1,0.519,,0,14,14,435,1,2b,93,3,43,
,,,,,,,,,,,,,,,,,,,,,,,,,,images/exp2b_trial_15_colour3_distractors19_r.png,r,2,013,001,2021-04-20_14h47.49.917,searchDisc4,2020.2.10,MacIntel,60,,,space,0.434,2,1,0.584,,0,15,15,357,1,2b,15,3,19,
,,,,,,,,,,,,,,,,,,,,,,,,,,images/exp2b_trial_104_colour2_distractors31_l.png,l,1,013,001,2021-04-20_14h47.49.917,searchDisc4,2020.2.10,MacIntel,60,,,space,0.508,1,1,0.543,,0,16,16,446,1,2b,104,2,31,
,,,,,,,,,,,,,,,,,,,,,,,,,,images/exp1a_trial_79_colour1_distractors19_r.png,r,2,013,001,2021-04-20_14h47.49.917,searchDisc4,2020.2.10,MacIntel,60,,,space,0.468,1,0,0.509,,0,17,17,79,1,1a,79,1,19,
,,,,,,,,,,,,,,,,,,,,,,,,,,images/exp2c_trial_66_colour2_distractors31_l.png,l,1,013,001,2021-04-20_14h47.49.917,searchDisc4,2020.2.10,MacIntel,60,,,space,0.574,1,1,0.543,,0,18,18,522,1,2c,66,2,31,
,,,,,,,,,,,,,,,,,,,,,,,,,,images/exp2a_trial_37_colour0_distractors0_l.png,l,1,013,001,2021-04-20_14h47.49.917,searchDisc4,2020.2.10,MacIntel,60,,,space,0.503,1,1,0.579,,0,19,19,265,1,2a,37,0,0,
,,,,,,,,,,,,,,,,,,,,,,,,,,images/exp1a_trial_37_colour0_distractors0_l.png,l,1,013,001,2021-04-20_14h47.49.917,searchDisc4,2020.2.10,MacIntel,60,,,space,0.438,1,1,0.58,,0,20,20,37,1,1a,37,0,0,
,,,,,,,,,,,,,,,,,,,,,,,,,,images/exp1a_trial_74_colour0_distractors0_r.png,r,2,013,001,2021-04-20_14h47.49.917,searchDisc4,2020.2.10,MacIntel,60,,,space,0.476,2,1,0.543,,0,21,21,74,1,1a,74,0,0,
,,,,,,,,,,,,,,,,,,,,,,,,,,images/exp2b_trial_34_colour3_distractors31_l.png,l,1,013,001,2021-04-20_14h47.49.917,searchDisc4,2020.2.10,MacIntel,60,,,space,0.499,2,0,0.479,,0,22,22,376,1,2b,34,3,31,
,,,,,,,,,,,,,,,,,,,,,,,,,,images/exp2a_trial_94_colour1_distractors1_l.png,l,1,013,001,2021-04-20_14h47.49.917,searchDisc4,2020.2.10,MacIntel,60,,,space,0.5,1,1,0.61,,0,23,23,322,1,2a,94,1,1,
,,,,,,,,,,,,,,,,,,,,,,,,,,images/exp2a_trial_91_colour3_distractors19_r.png,r,2,013,001,2021-04-20_14h47.49.917,searchDisc4,2020.2.10,MacIntel,60,,,space,0.567,2,1,0.643,,0,24,24,319,1,2a,91,3,19,
,,,,,,,,,,,,,,,,,,,,,,,,,,images/exp2b_trial_36_colour0_distractors0_r.png,r,2,013,001,2021-04-20_14h47.49.917,searchDisc4,2020.2.10,MacIntel,60,,,space,0.506,2,1,0.61,,0,25,25,378,1,2b,36,0,0,
,,,,,,,,,,,,,,,,,,,,,,,,,,images/exp1a_trial_17_colour3_distractors43_r.png,r,2,013,001,2021-04-20_14h47.49.917,searchDisc4,2020.2.10,MacIntel,60,,,space,0.504,2,1,0.575,,0,26,26,17,1,1a,17,3,43,
,,,,,,,,,,,,,,,,,,,,,,,,,,images/exp1b_trial_98_colour1_distractors31_l.png,l,1,013,001,2021-04-20_14h47.49.917,searchDisc4,2020.2.10,MacIntel,60,,,space,0.469,1,1,1.011,,0,27,27,212,1,1b,98,1,31,
,,,,,,,,,,,,,,,,,,,,,,,,,,images/exp2c_trial_78_colour1_distractors9_r.png,r,2,013,001,2021-04-20_14h47.49.917,searchDisc4,2020.2.10,MacIntel,60,,,space,0.402,2,1,0.543,,0,28,28,534,1,2c,78,1,9,
,,,,,,,,,,,,,,,,,,,,,,,,,,images/exp2a_trial_59_colour1_distractors19_l.png,l,1,013,001,2021-04-20_14h47.49.917,searchDisc4,2020.2.10,MacIntel,60,,,space,0.471,1,1,0.51,,0,29,29,287,1,2a,59,1,19,
,,,,,,,,,,,,,,,,,,,,,,,,,,images/exp2a_trial_10_colour2_distractors31_r.png,r,2,013,001,2021-04-20_14h47.49.917,searchDisc4,2020.2.10,MacIntel,60,,,space,0.433,2,1,0.514,,0,30,30,238,1,2a,10,2,31,
,,,,,,,,,,,,,,,,,,,,,,,,,,images/exp2a_trial_108_colour3_distractors9_l.png,l,1,013,001,2021-04-20_14h47.49.917,searchDisc4,2020.2.10,MacIntel,60,,,space,0.404,1,1,0.509,,0,31,31,336,1,2a,108,3,9,
,,,,,,,,,,,,,,,,,,,,,,,,,,images/exp2c_trial_18_colour1_distractors1_l.png,l,1,013,001,2021-04-20_14h47.49.917,searchDisc4,2020.2.10,MacIntel,60,,,space,0.603,1,1,0.515,,0,32,32,474,1,2c,18,1,1,
,,,,,,,,,,,,,,,,,,,,,,,,,,images/exp2a_trial_107_colour3_distractors4_l.png,l,1,013,001,2021-04-20_14h47.49.917,searchDisc4,2020.2.10,MacIntel,60,,,space,0.339,1,1,0.576,,0,33,33,335,1,2a,107,3,4,
,,,,,,,,,,,,,,,,,,,,,,,,,,images/exp1b_trial_101_colour2_distractors4_l.png,l,1,013,001,2021-04-20_14h47.49.917,searchDisc4,2020.2.10,MacIntel,60,,,space,0.237,1,1,0.512,,0,34,34,215,1,1b,101,2,4,
,,,,,,,,,,,,,,,,,,,,,,,,,,images/exp2b_trial_9_colour2_distractors19_r.png,r,2,013,001,2021-04-20_14h47.49.917,searchDisc4,2020.2.10,MacIntel,60,,,space,0.365,2,1,0.646,,0,35,35,351,1,2b,9,2,19,
,,,,,,,,,,,,,,,,,,,,,,,,,,images/exp2c_trial_35_colour3_distractors43_l.png,l,1,013,001,2021-04-20_14h47.49.917,searchDisc4,2020.2.10,MacIntel,60,,,space,0.333,1,1,0.51,,0,36,36,491,1,2c,35,3,43,
,,,,,,,,,,,,,,,,,,,,,,,,,,images/exp1b_trial_70_colour3_distractors9_l.png,l,1,013,001,2021-04-20_14h47.49.917,searchDisc4,2020.2.10,MacIntel,60,,,space,0.34,1,1,0.844,,0,37,37,184,1,1b,70,3,9,
,,,,,,,,,,,,,,,,,,,,,,,,,,images/exp1b_trial_40_colour1_distractors9_r.png,r,2,013,001,2021-04-20_14h47.49.917,searchDisc4,2020.2.10,MacIntel,60,,,space,0.367,2,1,0.517,,0,38,38,154,1,1b,40,1,9,
,,,,,,,,,,,,,,,,,,,,,,,,,,images/exp1b_trial_35_colour3_distractors43_l.png,l,1,013,001,2021-04-20_14h47.49.917,searchDisc4,2020.2.10,MacIntel,60,,,space,0.37,1,1,0.844,,0,39,39,149,1,1b,35,3,43,
,,,,,,,,,,,,,,,,,,,,,,,,,,images/exp1a_trial_35_colour3_distractors43_l.png,l,1,013,001,2021-04-20_14h47.49.917,searchDisc4,2020.2.10,MacIntel,60,,,space,0.332,1,1,0.58,,0,40,40,35,1,1a,35,3,43,
,,,,,,,,,,,,,,,,,,,,,,,,,,images/exp1b_trial_31_colour3_distractors4_l.png,l,1,013,001,2021-04-20_14h47.49.917,searchDisc4,2020.2.10,MacIntel,60,,,space,0.366,1,1,0.683,,0,41,41,145,1,1b,31,3,4,
,,,,,,,,,,,,,,,,,,,,,,,,,,images/exp1b_trial_42_colour1_distractors31_r.png,r,2,013,001,2021-04-20_14h47.49.917,searchDisc4,2020.2.10,MacIntel,60,,,space,0.375,2,1,0.709,,0,42,42,156,1,1b,42,1,31,
,,,,,,,,,,,,,,,,,,,,,,,,,,images/exp2a_trial_63_colour2_distractors4_l.png,l,1,013,001,2021-04-20_14h47.49.917,searchDisc4,2020.2.10,MacIntel,60,,,space,0.405,1,1,0.576,,0,43,43,291,1,2a,63,2,4,
,,,,,,,,,,,,,,,,,,,,,,,,,,images/exp2c_trial_109_colour3_distractors19_l.png,l,1,013,001,2021-04-20_14h47.49.917,searchDisc4,2020.2.10,MacIntel,60,,,space,0.402,1,1,0.513,,0,44,44,565,1,2c,109,3,19,
,,,,,,,,,,,,,,,,,,,,,,,,,,images/exp2a_trial_42_colour1_distractors31_r.png,r,2,013,001,2021-04-20_14h47.49.917,searchDisc4,2020.2.10,MacIntel,60,,,space,0.37,2,1,0.544,,0,45,45,270,1,2a,42,1,31,
,,,,,,,,,,,,,,,,,,,,,,,,,,images/exp2a_trial_64_colour2_distractors9_l.png,l,1,013,001,2021-04-20_14h47.49.917,searchDisc4,2020.2.10,MacIntel,60,,,space,0.367,1,1,0.544,,0,46,46,292,1,2a,64,2,9,
,,,,,,,,,,,,,,,,,,,,,,,,,,images/exp2a_trial_47_colour2_distractors19_r.png,r,2,013,001,2021-04-20_14h47.49.917,searchDisc4,2020.2.10,MacIntel,60,,,space,0.401,2,1,0.544,,0,47,47,275,1,2a,47,2,19,
,,,,,,,,,,,,,,,,,,,,,,,,,,images/exp2a_trial_95_colour1_distractors4_l.png,l,1,013,001,2021-04-20_14h47.49.917,searchDisc4,2020.2.10,MacIntel,60,,,space,0.399,1,1,0.581,,0,48,48,323,1,2a,95,1,4,
,,,,,,,,,,,,,,,,,,,,,,,,,,images/exp2c_trial_63_colour2_distractors4_l.png,l,1,013,001,2021-04-20_14h47.49.917,searchDisc4,2020.2.10,MacIntel,60,,,space,0.365,1,1,0.676,,0,49,49,519,1,2c,63,2,4,
,,,,,,,,,,,,,,,,,,,,,,,,,,images/exp1b_trial_34_colour3_distractors31_l.png,l,1,013,001,2021-04-20_14h47.49.917,searchDisc4,2020.2.10,MacIntel,60,,,space,0.604,1,1,0.578,,0,50,50,148,1,1b,34,3,31,
,,,,,,,,,,,,,,,,,,,,,,,,,,images/exp1b_trial_100_colour2_distractors1_l.png,l,1,013,001,2021-04-20_14h47.49.917,searchDisc4,2020.2.10,MacIntel,60,,,space,0.303,1,1,0.576,,0,51,51,214,1,1b,100,2,1,
,,,,,,,,,,,,,,,,,,,,,,,,,,images/exp1a_trial_2_colour1_distractors9_r.png,r,2,013,001,2021-04-20_14h47.49.917,searchDisc4,2020.2.10,MacIntel,60,,,space,0.301,2,1,0.482,,0,52,52,2,1,1a,2,1,9,
,,,,,,,,,,,,,,,,,,,,,,,,,,images/exp2a_trial_84_colour2_distractors9_r.png,r,2,013,001,2021-04-20_14h47.49.917,searchDisc4,2020.2.10,MacIntel,60,,,space,0.333,2,1,0.512,,0,53,53,312,1,2a,84,2,9,
,,,,,,,,,,,,,,,,,,,,,,,,,,images/exp1a_trial_49_colour2_distractors43_r.png,r,2,013,001,2021-04-20_14h47.49.917,searchDisc4,2020.2.10,MacIntel,60,,,space,0.301,2,1,0.582,,0,54,54,49,1,1a,49,2,43,
,,,,,,,,,,,,,,,,,,,,,,,,,,images/exp2c_trial_17_colour3_distractors43_r.png,r,2,013,001,2021-04-20_14h47.49.917,searchDisc4,2020.2.10,MacIntel,60,,,space,0.27,2,1,0.546,,0,55,55,473,1,2c,17,3,43,
,,,,,,,,,,,,,,,,,,,,,,,,,,images/exp2a_trial_53_colour3_distractors19_r.png,r,2,013,001,2021-04-20_14h47.49.917,searchDisc4,2020.2.10,MacIntel,60,,,space,0.263,1,0,0.51,,0,56,56,281,1,2a,53,3,19,
,,,,,,,,,,,,,,,,,,,,,,,,,,images/exp1b_trial_67_colour2_distractors43_l.png,l,1,013,001,2021-04-20_14h47.49.917,searchDisc4,2020.2.10,MacIntel,60,,,space,0.47,1,1,0.976,,0,57,57,181,1,1b,67,2,43,
,,,,,,,,,,,,,,,,,,,,,,,,,,images/exp2b_trial_42_colour1_distractors31_r.png,r,2,013,001,2021-04-20_14h47.49.917,searchDisc4,2020.2.10,MacIntel,60,,,space,0.338,2,1,0.684,,0,58,58,384,1,2b,42,1,31,
,,,,,,,,,,,,,,,,,,,,,,,,,,images/exp2c_trial_83_colour2_distractors4_r.png,r,2,013,001,2021-04-20_14h47.49.917,searchDisc4,2020.2.10,MacIntel,60,,,space,0.367,2,1,0.614,space,0,59,59,539,1,2c,83,2,4,0.284
,,,,,,,,,,,,,,,,,,,,,,,,,,images/exp1b_trial_36_colour0_distractors0_r.png,r,2,013,001,2021-04-20_14h47.49.917,searchDisc4,2020.2.10,MacIntel,60,,,space,0.903,2,1,0.711,,0,60,60,150,1,1b,36,0,0,
,,,,,,,,,,,,,,,,,,,,,,,,,,images/exp2c_trial_28_colour2_distractors31_l.png,l,1,013,001,2021-04-20_14h47.49.917,searchDisc4,2020.2.10,MacIntel,60,,,space,0.375,1,1,0.683,,0,61,61,484,1,2c,28,2,31,
,,,,,,,,,,,,,,,,,,,,,,,,,,images/exp2a_trial_48_colour2_distractors31_r.png,r,2,013,001,2021-04-20_14h47.49.917,searchDisc4,2020.2.10,MacIntel,60,,,space,0.434,2,1,0.575,,0,62,62,276,1,2a,48,2,31,
,,,,,,,,,,,,,,,,,,,,,,,,,,images/exp2a_trial_104_colour2_distractors31_l.png,l,1,013,001,2021-04-20_14h47.49.917,searchDisc4,2020.2.10,MacIntel,60,,,space,0.4,1,1,0.711,,0,63,63,332,1,2a,104,2,31,
,,,,,,,,,,,,,,,,,,,,,,,,,,images/exp1a_trial_36_colour0_distractors0_r.png,r,2,013,001,2021-04-20_14h47.49.917,searchDisc4,2020.2.10,MacIntel,60,,,space,0.366,2,1,0.51,,0,64,64,36,1,1a,36,0,0,
,,,,,,,,,,,,,,,,,,,,,,,,,,images/exp2a_trial_36_colour0_distractors0_r.png,r,2,013,001,2021-04-20_14h47.49.917,searchDisc4,2020.2.10,MacIntel,60,,,space,0.366,2,1,0.476,,0,65,65,264,1,2a,36,0,0,
,,,,,,,,,,,,,,,,,,,,,,,,,,images/exp1a_trial_89_colour3_distractors4_r.png,r,2,013,001,2021-04-20_14h47.49.917,searchDisc4,2020.2.10,MacIntel,60,,,space,0.333,2,1,0.547,,0,66,66,89,1,1a,89,3,4,
,,,,,,,,,,,,,,,,,,,,,,,,,,images/exp1b_trial_65_colour2_distractors19_l.png,l,1,013,001,2021-04-20_14h47.49.917,searchDisc4,2020.2.10,MacIntel,60,,,space,0.367,1,1,0.811,,0,67,67,179,1,1b,65,2,19,
,,,,,,,,,,,,,,,,,,,,,,,,,,images/exp1a_trial_100_colour2_distractors1_l.png,l,1,013,001,2021-04-20_14h47.49.917,searchDisc4,2020.2.10,MacIntel,60,,,space,0.336,1,1,0.644,,0,68,68,100,1,1a,100,2,1,
,,,,,,,,,,,,,,,,,,,,,,,,,,images/exp2c_trial_80_colour1_distractors31_r.png,r,2,013,001,2021-04-20_14h47.49.917,searchDisc4,2020.2.10,MacIntel,60,,,space,0.333,2,1,0.647,,0,69,69,536,1,2c,80,1,31,
,,,,,,,,,,,,,,,,,,,,,,,,,,images/exp2c_trial_38_colour1_distractors1_r.png,r,2,013,001,2021-04-20_14h47.49.917,searchDisc4,2020.2.10,MacIntel,60,,,space,0.302,2,1,0.509,,0,70,70,494,1,2c,38,1,1,
,,,,,,,,,,,,,,,,,,,,,,,,,,images/exp2c_trial_19_colour1_distractors4_l.png,l,1,013,001,2021-04-20_14h47.49.917,searchDisc4,2020.2.10,MacIntel,60,,,space,0.266,1,1,0.509,,0,71,71,475,1,2c,19,1,4,
,,,,,,,,,,,,,,,,,,,,,,,,,,images/exp2c_trial_27_colour2_distractors19_l.png,l,1,013,001,2021-04-20_14h47.49.917,searchDisc4,2020.2.10,MacIntel,60,,,space,0.333,1,1,0.58,,0,72,72,483,1,2c,27,2,19,
,,,,,,,,,,,,,,,,,,,,,,,,,,images/exp1a_trial_58_colour1_distractors9_l.png,l,1,013,001,2021-04-20_14h47.49.917,searchDisc4,2020.2.10,MacIntel,60,,,space,0.309,1,1,0.61,,0,73,73,58,1,1a,58,1,9,
,,,,,,,,,,,,,,,,,,,,,,,,,,images/exp2b_trial_16_colour3_distractors31_r.png,r,2,013,001,2021-04-20_14h47.49.917,searchDisc4,2020.2.10,MacIntel,60,,,space,0.3,2,1,0.777,,0,74,74,358,1,2b,16,3,31,
,,,,,,,,,,,,,,,,,,,,,,,,,,images/exp2c_trial_41_colour1_distractors19_r.png,r,2,013,001,2021-04-20_14h47.49.917,searchDisc4,2020.2.10,MacIntel,60,,,space,0.633,2,1,0.519,,0,75,75,497,1,2c,41,1,19,
,,,,,,,,,,,,,,,,,,,,,,,,,,images/exp2b_trial_94_colour1_distractors1_l.png,l,1,013,001,2021-04-20_14h47.49.917,searchDisc4,2020.2.10,MacIntel,60,,,space,0.439,1,1,0.611,,0,76,76,436,1,2b,94,1,1,
,,,,,,,,,,,,,,,,,,,,,,,,,,images/exp2b_trial_0_colour1_distractors1_r.png,r,2,013,001,2021-04-20_14h47.49.917,searchDisc4,2020.2.10,MacIntel,60,,,space,0.508,2,1,0.481,,0,77,77,342,1,2b,0,1,1,
,,,,,,,,,,,,,,,,,,,,,,,,,,images/exp2c_trial_111_colour3_distractors43_l.png,l,1,013,001,2021-04-20_14h47.49.917,searchDisc4,2020.2.10,MacIntel,60,,,space,0.374,2,0,0.486,,0,78,78,567,1,2c,111,3,43,
,,,,,,,,,,,,,,,,,,,,,,,,,,images/exp2c_trial_44_colour2_distractors1_r.png,r,2,013,001,2021-04-20_14h47.49.917,searchDisc4,2020.2.10,MacIntel,60,,,space,0.501,2,1,0.543,,0,79,79,500,1,2c,44,2,1,
,,,,,,,,,,,,,,,,,,,,,,,,,,images/exp1b_trial_23_colour1_distractors43_l.png,l,1,013,001,2021-04-20_14h47.49.917,searchDisc4,2020.2.10,MacIntel,60,,,space,0.332,1,1,0.617,,0,80,80,137,1,1b,23,1,43,
,,,,,,,,,,,,,,,,,,,,,,,,,,images/exp2c_trial_90_colour3_distractors9_r.png,r,2,013,001,2021-04-20_14h47.49.917,searchDisc4,2020.2.10,MacIntel,60,,,space,0.367,2,1,0.742,,0,81,81,546,1,2c,90,3,9,
,,,,,,,,,,,,,,,,,,,,,,,,,,images/exp2c_trial_84_colour2_distractors9_r.png,r,2,013,001,2021-04-20_14h47.49.917,searchDisc4,2020.2.10,MacIntel,60,,,space,0.305,2,1,0.615,,0,82,82,540,1,2c,84,2,9,
,,,,,,,,,,,,,,,,,,,,,,,,,,images/exp1b_trial_53_colour3_distractors19_r.png,r,2,013,001,2021-04-20_14h47.49.917,searchDisc4,2020.2.10,MacIntel,60,,,space,0.401,2,1,0.684,,0,83,83,167,1,1b,53,3,19,
,,,,,,,,,,,,,,,,,,,,,,,,,,images/exp2b_trial_22_colour1_distractors31_l.png,l,1,013,001,2021-04-20_14h47.49.917,searchDisc4,2020.2.10,MacIntel,60,,,space,0.306,1,1,0.578,,0,84,84,364,1,2b,22,1,31,
,,,,,,,,,,,,,,,,,,,,,,,,,,images/exp1a_trial_18_colour1_distractors1_l.png,l,1,013,001,2021-04-20_14h47.49.917,searchDisc4,2020.2.10,MacIntel,60,,,space,0.4,1,1,0.575,,0,85,85,18,1,1a,18,1,1,
,,,,,,,,,,,,,,,,,,,,,,,,,,images/exp2a_trial_6_colour2_distractors1_r.png,r,2,013,001,2021-04-20_14h47.49.917,searchDisc4,2020.2.10,MacIntel,60,,,space,0.365,2,1,0.546,,0,86,86,234,1,2a,6,2,1,
,,,,,,,,,,,,,,,,,,,,,,,,,,images/exp2c_trial_96_colour1_distractors9_l.png,l,1,013,001,2021-04-20_14h47.49.917,searchDisc4,2020.2.10,MacIntel,60,,,space,0.4,1,1,0.543,,0,87,87,552,1,2c,96,1,9,
,,,,,,,,,,,,,,,,,,,,,,,,,,images/exp2a_trial_46_colour2_distractors9_r.png,r,2,013,001,2021-04-20_14h47.49.917,searchDisc4,2020.2.10,MacIntel,60,,,space,0.335,2,1,0.686,,0,88,88,274,1,2a,46,2,9,
,,,,,,,,,,,,,,,,,,,,,,,,,,images/exp1b_trial_8_colour2_distractors9_r.png,r,2,013,001,2021-04-20_14h47.49.917,searchDisc4,2020.2.10,MacIntel,60,,,space,0.37,2,1,0.646,,0,89,89,122,1,1b,8,2,9,
,,,,,,,,,,,,,,,,,,,,,,,,,,images/exp2b_trial_11_colour2_distractors43_r.png,r,2,013,001,2021-04-20_14h47.49.917,searchDisc4,2020.2.10,MacIntel,60,,,space,0.433,2,1,0.581,,0,90,90,353,1,2b,11,2,43,
,,,,,,,,,,,,,,,,,,,,,,,,,,images/exp1a_trial_50_colour3_distractors1_r.png,r,2,013,001,2021-04-20_14h47.49.917,searchDisc4,2020.2.10,MacIntel,60,,,space,0.371,2,1,0.483,,0,91,91,50,1,1a,50,3,1,
,,,,,,,,,,,,,,,,,,,,,,,,,,images/exp2c_trial_91_colour3_distractors19_r.png,r,2,013,001,2021-04-20_14h47.49.917,searchDisc4,2020.2.10,MacIntel,60,,,space,0.399,2,1,0.709,,0,92,92,547,1,2c,91,3,19,
,,,,,,,,,,,,,,,,,,,,,,,,,,images/exp1b_trial_91_colour3_distractors19_r.png,r,2,013,001,2021-04-20_14h47.49.917,searchDisc4,2020.2.10,MacIntel,60,,,space,0.334,2,1,0.744,,0,93,93,205,1,1b,91,3,19,
,,,,,,,,,,,,,,,,,,,,,,,,,,images/exp2a_trial_102_colour2_distractors9_l.png,l,1,013,001,2021-04-20_14h47.49.917,searchDisc4,2020.2.10,MacIntel,60,,,space,0.432,1,1,0.677,,0,94,94,330,1,2a,102,2,9,
,,,,,,,,,,,,,,,,,,,,,,,,,,images/exp1a_trial_105_colour2_distractors43_l.png,l,1,013,001,2021-04-20_14h47.49.917,searchDisc4,2020.2.10,MacIntel,60,,,space,0.367,1,1,0.643,,0,95,95,105,1,1a,105,2,43,
,,,,,,,,,,,,,,,,,,,,,,,,,,images/exp1a_trial_48_colour2_distractors31_r.png,r,2,013,001,2021-04-20_14h47.49.917,searchDisc4,2020.2.10,MacIntel,60,,,space,0.467,2,1,0.746,,0,96,96,48,1,1a,48,2,31,
,,,,,,,,,,,,,,,,,,,,,,,,,,images/exp2b_trial_92_colour3_distractors31_r.png,r,2,013,001,2021-04-20_14h47.49.917,searchDisc4,2020.2.10,MacIntel,60,,,space,0.37,2,1,0.544,,0,97,97,434,1,2b,92,3,31,
,,,,,,,,,,,,,,,,,,,,,,,,,,images/exp2c_trial_49_colour2_distractors43_r.png,r,2,013,001,2021-04-20_14h47.49.917,searchDisc4,2020.2.10,MacIntel,60,,,space,0.373,2,1,0.544,,0,98,98,505,1,2c,49,2,43,
,,,,,,,,,,,,,,,,,,,,,,,,,,images/exp1a_trial_47_colour2_distractors19_r.png,r,2,013,001,2021-04-20_14h47.49.917,searchDisc4,2020.2.10,MacIntel,60,,,space,0.374,2,1,0.582,,0,99,99,47,1,1a,47,2,19,
,,,,,,,,,,,,,,,,,,,,,,,,,,images/exp1b_trial_0_colour1_distractors1_r.png,r,2,013,001,2021-04-20_14h47.49.917,searchDisc4,2020.2.10,MacIntel,60,,,space,0.404,2,1,0.511,,0,100,100,114,1,1b,0,1,1,
,,,,,,,,,,,,,,,,,,,,,,,,,,images/exp2a_trial_2_colour1_distractors9_r.png,r,2,013,001,2021-04-20_14h47.49.917,searchDisc4,2020.2.10,MacIntel,60,,,space,0.369,2,1,0.58,,0,101,101,230,1,2a,2,1,9,
,,,,,,,,,,,,,,,,,,,,,,,,,,images/exp2b_trial_52_colour3_distractors9_r.png,r,2,013,001,2021-04-20_14h47.49.917,searchDisc4,2020.2.10,MacIntel,60,,,space,0.404,2,1,0.543,,0,102,102,394,1,2b,52,3,9,
,,,,,,,,,,,,,,,,,,,,,,,,,,images/exp2b_trial_14_colour3_distractors9_r.png,r,2,013,001,2021-04-20_14h47.49.917,searchDisc4,2020.2.10,MacIntel,60,,,space,0.405,2,1,0.547,,0,103,103,356,1,2b,14,3,9,
,,,,,,,,,,,,,,,,,,,,,,,,,,images/exp2b_trial_72_colour3_distractors31_l.png,l,1,013,001,2021-04-20_14h47.49.917,searchDisc4,2020.2.10,MacIntel,60,,,space,0.434,1,1,0.644,,0,104,104,414,1,2b,72,3,31,
,,,,,,,,,,,,,,,,,,,,,,,,,,images/exp2c_trial_48_colour2_distractors31_r.png,r,2,013,001,2021-04-20_14h47.49.917,searchDisc4,2020.2.10,MacIntel,60,,,space,0.373,2,1,0.676,,0,105,105,504,1,2c,48,2,31,
,,,,,,,,,,,,,,,,,,,,,,,,,,images/exp2a_trial_25_colour2_distractors4_l.png,l,1,013,001,2021-04-20_14h47.49.917,searchDisc4,2020.2.10,MacIntel,60,,,space,0.4,1,1,0.519,,0,106,106,253,1,2a,25,2,4,
,,,,,,,,,,,,,,,,,,,,,,,,,,images/exp2c_trial_1_colour1_distractors4_r.png,r,2,013,001,2021-04-20_14h47.49.917,searchDisc4,2020.2.10,MacIntel,60,,,space,0.467,2,1,0.61,,0,107,107,457,1,2c,1,1,4,
,,,,,,,,,,,,,,,,,,,,,,,,,,images/exp2b_trial_95_colour1_distractors4_l.png,l,1,013,001,2021-04-20_14h47.49.917,searchDisc4,2020.2.10,MacIntel,60,,,space,0.401,1,1,0.546,,0,108,108,437,1,2b,95,1,4,
,,,,,,,,,,,,,,,,,,,,,,,,,,images/exp1b_trial_30_colour3_distractors1_l.png,l,1,013,001,2021-04-20_14h47.49.917,searchDisc4,2020.2.10,MacIntel,60,,,space,0.467,1,1,0.775,,0,109,109,144,1,1b,30,3,1,
,,,,,,,,,,,,,,,,,,,,,,,,,,images/exp2c_trial_112_colour0_distractors0_r.png,r,2,013,001,2021-04-20_14h47.49.917,searchDisc4,2020.2.10,MacIntel,60,,,space,0.403,2,1,0.577,,0,110,110,568,1,2c,112,0,0,
,,,,,,,,,,,,,,,,,,,,,,,,,,images/exp2a_trial_58_colour1_distractors9_l.png,l,1,013,001,2021-04-20_14h47.49.917,searchDisc4,2020.2.10,MacIntel,60,,,space,0.334,1,1,0.513,,0,111,111,286,1,2a,58,1,9,
,,,,,,,,,,,,,,,,,,,,,,,,,,images/exp2a_trial_43_colour1_distractors43_r.png,r,2,013,001,2021-04-20_14h47.49.917,searchDisc4,2020.2.10,MacIntel,60,,,space,0.4,2,1,0.548,,0,112,112,271,1,2a,43,1,43,
,,,,,,,,,,,,,,,,,,,,,,,,,,images/exp2b_trial_43_colour1_distractors43_r.png,r,2,013,001,2021-04-20_14h47.49.917,searchDisc4,2020.2.10,MacIntel,60,,,space,0.37,2,1,0.779,,0,113,113,385,1,2b,43,1,43,
,,,,,,,,,,,,,,,,,,,,,,,,,,images/exp1b_trial_45_colour2_distractors4_r.png,r,2,013,001,2021-04-20_14h47.49.917,searchDisc4,2020.2.10,MacIntel,60,,,space,0.336,2,1,0.548,,0,114,114,159,1,1b,45,2,4,
,,,,,,,,,,,,,,,,,,,,,,,,,,images/exp2a_trial_11_colour2_distractors43_r.png,r,2,013,001,2021-04-20_14h47.49.917,searchDisc4,2020.2.10,MacIntel,60,,,space,0.37,2,1,0.579,,0,115,115,239,1,2a,11,2,43,
,,,,,,,,,,,,,,,,,,,,,,,,,,images/exp2a_trial_65_colour2_distractors19_l.png,l,1,013,001,2021-04-20_14h47.49.917,searchDisc4,2020.2.10,MacIntel,60,,,space,0.368,2,0,0.51,,0,116,116,293,1,2a,65,2,19,
,,,,,,,,,,,,,,,,,,,,,,,,,,images/exp1a_trial_15_colour3_distractors19_r.png,r,2,013,001,2021-04-20_14h47.49.917,searchDisc4,2020.2.10,MacIntel,60,,,space,0.438,2,1,0.745,,0,117,117,15,1,1a,15,3,19,
,,,,,,,,,,,,,,,,,,,,,,,,,,images/exp1a_trial_7_colour2_distractors4_r.png,r,2,013,001,2021-04-20_14h47.49.917,searchDisc4,2020.2.10,MacIntel,60,,,space,0.267,2,1,0.579,,0,118,118,7,1,1a,7,2,4,
,,,,,,,,,,,,,,,,,,,,,,,,,,images/exp1b_trial_88_colour3_distractors1_r.png,r,2,013,001,2021-04-20_14h47.49.917,searchDisc4,2020.2.10,MacIntel,60,,,space,0.3,2,1,0.678,space,0,119,119,202,1,1b,88,3,1,0.286
,,,,,,,,,,,,,,,,,,,,,,,,,,images/exp1a_trial_113_colour0_distractors0_l.png,l,1,013,001,2021-04-20_14h47.49.917,searchDisc4,2020.2.10,MacIntel,60,,,space,0.971,1,1,0.682,,0,120,120,113,1,1a,113,0,0,
,,,,,,,,,,,,,,,,,,,,,,,,,,images/exp2a_trial_81_colour1_distractors43_r.png,r,2,013,001,2021-04-20_14h47.49.917,searchDisc4,2020.2.10,MacIntel,60,,,space,0.338,2,1,0.684,,0,121,121,309,1,2a,81,1,43,
,,,,,,,,,,,,,,,,,,,,,,,,,,images/exp1a_trial_1_colour1_distractors4_r.png,r,2,013,001,2021-04-20_14h47.49.917,searchDisc4,2020.2.10,MacIntel,60,,,space,0.3,2,1,0.547,,0,122,122,1,1,1a,1,1,4,
,,,,,,,,,,,,,,,,,,,,,,,,,,images/exp1a_trial_34_colour3_distractors31_l.png,l,1,013,001,2021-04-20_14h47.49.917,searchDisc4,2020.2.10,MacIntel,60,,,space,0.3,1,1,0.678,,0,123,123,34,1,1a,34,3,31,
,,,,,,,,,,,,,,,,,,,,,,,,,,images/exp1a_trial_99_colour1_distractors43_l.png,l,1,013,001,2021-04-20_14h47.49.917,searchDisc4,2020.2.10,MacIntel,60,,,space,0.274,1,1,0.615,,0,124,124,99,1,1a,99,1,43,
,,,,,,,,,,,,,,,,,,,,,,,,,,images/exp1a_trial_52_colour3_distractors9_r.png,r,2,013,001,2021-04-20_14h47.49.917,searchDisc4,2020.2.10,MacIntel,60,,,space,0.337,2,1,0.71,,0,125,125,52,1,1a,52,3,9,
,,,,,,,,,,,,,,,,,,,,,,,,,,images/exp1a_trial_68_colour3_distractors1_l.png,l,1,013,001,2021-04-20_14h47.49.917,searchDisc4,2020.2.10,MacIntel,60,,,space,0.306,1,1,0.647,,0,126,126,68,1,1a,68,3,1,
,,,,,,,,,,,,,,,,,,,,,,,,,,images/exp2b_trial_57_colour1_distractors4_l.png,l,1,013,001,2021-04-20_14h47.49.917,searchDisc4,2020.2.10,MacIntel,60,,,space,0.303,1,1,0.544,,0,127,127,399,1,2b,57,1,4,
,,,,,,,,,,,,,,,,,,,,,,,,,,images/exp2a_trial_80_colour1_distractors31_r.png,r,2,013,001,2021-04-20_14h47.49.917,searchDisc4,2020.2.10,MacIntel,60,,,space,0.267,2,1,0.549,,0,128,128,308,1,2a,80,1,31,
,,,,,,,,,,,,,,,,,,,,,,,,,,images/exp1a_trial_88_colour3_distractors1_r.png,r,2,013,001,2021-04-20_14h47.49.917,searchDisc4,2020.2.10,MacIntel,60,,,space,0.337,2,1,0.58,,0,129,129,88,1,1a,88,3,1,
,,,,,,,,,,,,,,,,,,,,,,,,,,images/exp1a_trial_33_colour3_distractors19_l.png,l,1,013,001,2021-04-20_14h47.49.917,searchDisc4,2020.2.10,MacIntel,60,,,space,0.299,1,1,0.675,,0,130,130,33,1,1a,33,3,19,
,,,,,,,,,,,,,,,,,,,,,,,,,,images/exp2b_trial_12_colour3_distractors1_r.png,r,2,013,001,2021-04-20_14h47.49.917,searchDisc4,2020.2.10,MacIntel,60,,,space,0.333,2,1,0.809,,0,131,131,354,1,2b,12,3,1,
,,,,,,,,,,,,,,,,,,,,,,,,,,images/exp2a_trial_68_colour3_distractors1_l.png,l,1,013,001,2021-04-20_14h47.49.917,searchDisc4,2020.2.10,MacIntel,60,,,space,0.233,1,1,0.578,,0,132,132,296,1,2a,68,3,1,
,,,,,,,,,,,,,,,,,,,,,,,,,,images/exp1b_trial_92_colour3_distractors31_r.png,r,2,013,001,2021-04-20_14h47.49.917,searchDisc4,2020.2.10,MacIntel,60,,,space,0.236,2,1,1.21,,0,133,133,206,1,1b,92,3,31,
,,,,,,,,,,,,,,,,,,,,,,,,,,images/exp2a_trial_30_colour3_distractors1_l.png,l,1,013,001,2021-04-20_14h47.49.917,searchDisc4,2020.2.10,MacIntel,60,,,space,0.234,1,1,0.677,,0,134,134,258,1,2a,30,3,1,
,,,,,,,,,,,,,,,,,,,,,,,,,,images/exp2a_trial_15_colour3_distractors19_r.png,r,2,013,001,2021-04-20_14h47.49.917,searchDisc4,2020.2.10,MacIntel,60,,,space,0.27,2,1,0.784,,0,135,135,243,1,2a,15,3,19,
,,,,,,,,,,,,,,,,,,,,,,,,,,images/exp1a_trial_44_colour2_distractors1_r.png,r,2,013,001,2021-04-20_14h47.49.917,searchDisc4,2020.2.10,MacIntel,60,,,space,0.305,2,1,0.577,,0,136,136,44,1,1a,44,2,1,
,,,,,,,,,,,,,,,,,,,,,,,,,,images/exp2a_trial_111_colour3_distractors43_l.png,l,1,013,001,2021-04-20_14h47.49.917,searchDisc4,2020.2.10,MacIntel,60,,,space,0.308,1,1,0.545,,0,137,137,339,1,2a,111,3,43,
,,,,,,,,,,,,,,,,,,,,,,,,,,images/exp2c_trial_12_colour3_distractors1_r.png,r,2,013,001,2021-04-20_14h47.49.917,searchDisc4,2020.2.10,MacIntel,60,,,space,0.271,2,1,0.513,,0,138,138,468,1,2c,12,3,1,
,,,,,,,,,,,,,,,,,,,,,,,,,,images/exp2c_trial_68_colour3_distractors1_l.png,l,1,013,001,2021-04-20_14h47.49.917,searchDisc4,2020.2.10,MacIntel,60,,,space,0.302,1,1,0.543,,0,139,139,524,1,2c,68,3,1,
,,,,,,,,,,,,,,,,,,,,,,,,,,images/exp1a_trial_72_colour3_distractors31_l.png,l,1,013,001,2021-04-20_14h47.49.917,searchDisc4,2020.2.10,MacIntel,60,,,space,0.273,1,1,0.585,,0,140,140,72,1,1a,72,3,31,
,,,,,,,,,,,,,,,,,,,,,,,,,,images/exp1b_trial_51_colour3_distractors4_r.png,r,2,013,001,2021-04-20_14h47.49.917,searchDisc4,2020.2.10,MacIntel,60,,,space,0.307,2,1,0.677,,0,141,141,165,1,1b,51,3,4,
,,,,,,,,,,,,,,,,,,,,,,,,,,images/exp1a_trial_63_colour2_distractors4_l.png,l,1,013,001,2021-04-20_14h47.49.917,searchDisc4,2020.2.10,MacIntel,60,,,space,0.304,1,1,0.777,,0,142,142,63,1,1a,63,2,4,
,,,,,,,,,,,,,,,,,,,,,,,,,,images/exp1b_trial_71_colour3_distractors19_l.png,l,1,013,001,2021-04-20_14h47.49.917,searchDisc4,2020.2.10,MacIntel,60,,,space,0.267,1,1,1.045,,0,143,143,185,1,1b,71,3,19,
,,,,,,,,,,,,,,,,,,,,,,,,,,images/exp2b_trial_97_colour1_distractors19_l.png,l,1,013,001,2021-04-20_14h47.49.917,searchDisc4,2020.2.10,MacIntel,60,,,space,0.333,1,1,0.548,,0,144,144,439,1,2b,97,1,19,
,,,,,,,,,,,,,,,,,,,,,,,,,,images/exp1a_trial_29_colour2_distractors43_l.png,l,1,013,001,2021-04-20_14h47.49.917,searchDisc4,2020.2.10,MacIntel,60,,,space,0.267,1,1,0.676,,0,145,145,29,1,1a,29,2,43,
,,,,,,,,,,,,,,,,,,,,,,,,,,images/exp1b_trial_80_colour1_distractors31_r.png,r,2,013,001,2021-04-20_14h47.49.917,searchDisc4,2020.2.10,MacIntel,60,,,space,0.276,2,1,0.709,,0,146,146,194,1,1b,80,1,31,
,,,,,,,,,,,,,,,,,,,,,,,,,,images/exp2c_trial_77_colour1_distractors4_r.png,r,2,013,001,2021-04-20_14h47.49.917,searchDisc4,2020.2.10,MacIntel,60,,,space,0.37,2,1,0.546,,0,147,147,533,1,2c,77,1,4,
,,,,,,,,,,,,,,,,,,,,,,,,,,images/exp2b_trial_56_colour1_distractors1_l.png,l,1,013,001,2021-04-20_14h47.49.917,searchDisc4,2020.2.10,MacIntel,60,,,space,0.369,1,1,0.48,,0,148,148,398,1,2b,56,1,1,
,,,,,,,,,,,,,,,,,,,,,,,,,,images/exp1b_trial_96_colour1_distractors9_l.png,l,1,013,001,2021-04-20_14h47.49.917,searchDisc4,2020.2.10,MacIntel,60,,,space,0.333,1,1,0.649,,0,149,149,210,1,1b,96,1,9,
,,,,,,,,,,,,,,,,,,,,,,,,,,images/exp2a_trial_61_colour1_distractors43_l.png,l,1,013,001,2021-04-20_14h47.49.917,searchDisc4,2020.2.10,MacIntel,60,,,space,0.301,1,1,0.586,,0,150,150,289,1,2a,61,1,43,
,,,,,,,,,,,,,,,,,,,,,,,,,,images/exp2c_trial_98_colour1_distractors31_l.png,l,1,013,001,2021-04-20_14h47.49.917,searchDisc4,2020.2.10,MacIntel,60,,,space,0.3,1,1,0.511,,0,151,151,554,1,2c,98,1,31,
,,,,,,,,,,,,,,,,,,,,,,,,,,images/exp1b_trial_32_colour3_distractors9_l.png,l,1,013,001,2021-04-20_14h47.49.917,searchDisc4,2020.2.10,MacIntel,60,,,space,0.267,1,1,0.877,,0,152,152,146,1,1b,32,3,9,
,,,,,,,,,,,,,,,,,,,,,,,,,,images/exp1b_trial_38_colour1_distractors1_r.png,r,2,013,001,2021-04-20_14h47.49.917,searchDisc4,2020.2.10,MacIntel,60,,,space,0.299,2,1,0.58,,0,153,153,152,1,1b,38,1,1,
,,,,,,,,,,,,,,,,,,,,,,,,,,images/exp1a_trial_65_colour2_distractors19_l.png,l,1,013,001,2021-04-20_14h47.49.917,searchDisc4,2020.2.10,MacIntel,60,,,space,0.304,1,1,0.714,,0,154,154,65,1,1a,65,2,19,
,,,,,,,,,,,,,,,,,,,,,,,,,,images/exp1a_trial_16_colour3_distractors31_r.png,r,2,013,001,2021-04-20_14h47.49.917,searchDisc4,2020.2.10,MacIntel,60,,,space,0.333,2,1,0.81,,0,155,155,16,1,1a,16,3,31,
,,,,,,,,,,,,,,,,,,,,,,,,,,images/exp2b_trial_108_colour3_distractors9_l.png,l,1,013,001,2021-04-20_14h47.49.917,searchDisc4,2020.2.10,MacIntel,60,,,space,0.34,1,1,0.55,,0,156,156,450,1,2b,108,3,9,
,,,,,,,,,,,,,,,,,,,,,,,,,,images/exp1a_trial_70_colour3_distractors9_l.png,l,1,013,001,2021-04-20_14h47.49.917,searchDisc4,2020.2.10,MacIntel,60,,,space,0.309,1,1,0.609,,0,157,157,70,1,1a,70,3,9,
,,,,,,,,,,,,,,,,,,,,,,,,,,images/exp2c_trial_86_colour2_distractors31_r.png,r,2,013,001,2021-04-20_14h47.49.917,searchDisc4,2020.2.10,MacIntel,60,,,space,0.308,2,1,0.78,,0,158,158,542,1,2c,86,2,31,
,,,,,,,,,,,,,,,,,,,,,,,,,,images/exp1a_trial_31_colour3_distractors4_l.png,l,1,013,001,2021-04-20_14h47.49.917,searchDisc4,2020.2.10,MacIntel,60,,,space,0.302,1,1,0.643,,0,159,159,31,1,1a,31,3,4,
,,,,,,,,,,,,,,,,,,,,,,,,,,images/exp1b_trial_12_colour3_distractors1_r.png,r,2,013,001,2021-04-20_14h47.49.917,searchDisc4,2020.2.10,MacIntel,60,,,space,0.266,2,1,0.611,,0,160,160,126,1,1b,12,3,1,
,,,,,,,,,,,,,,,,,,,,,,,,,,images/exp2c_trial_76_colour1_distractors1_r.png,r,2,013,001,2021-04-20_14h47.49.917,searchDisc4,2020.2.10,MacIntel,60,,,space,0.276,2,1,0.512,,0,161,161,532,1,2c,76,1,1,
,,,,,,,,,,,,,,,,,,,,,,,,,,images/exp1b_trial_106_colour3_distractors1_l.png,l,1,013,001,2021-04-20_14h47.49.917,searchDisc4,2020.2.10,MacIntel,60,,,space,0.272,1,1,0.544,,0,162,162,220,1,1b,106,3,1,
,,,,,,,,,,,,,,,,,,,,,,,,,,images/exp1a_trial_67_colour2_distractors43_l.png,l,1,013,001,2021-04-20_14h47.49.917,searchDisc4,2020.2.10,MacIntel,60,,,space,0.237,1,1,0.713,,0,163,163,67,1,1a,67,2,43,
,,,,,,,,,,,,,,,,,,,,,,,,,,images/exp1b_trial_7_colour2_distractors4_r.png,r,2,013,001,2021-04-20_14h47.49.917,searchDisc4,2020.2.10,MacIntel,60,,,space,0.3,2,1,0.752,,0,164,164,121,1,1b,7,2,4,
,,,,,,,,,,,,,,,,,,,,,,,,,,images/exp2a_trial_106_colour3_distractors1_l.png,l,1,013,001,2021-04-20_14h47.49.917,searchDisc4,2020.2.10,MacIntel,60,,,space,0.3,1,1,0.513,,0,165,165,334,1,2a,106,3,1,
,,,,,,,,,,,,,,,,,,,,,,,,,,images/exp2c_trial_64_colour2_distractors9_l.png,l,1,013,001,2021-04-20_14h47.49.917,searchDisc4,2020.2.10,MacIntel,60,,,space,0.27,1,1,0.543,,0,166,166,520,1,2c,64,2,9,
,,,,,,,,,,,,,,,,,,,,,,,,,,images/exp2a_trial_26_colour2_distractors9_l.png,l,1,013,001,2021-04-20_14h47.49.917,searchDisc4,2020.2.10,MacIntel,60,,,space,0.267,1,1,0.48,,0,167,167,254,1,2a,26,2,9,
,,,,,,,,,,,,,,,,,,,,,,,,,,images/exp2b_trial_66_colour2_distractors31_l.png,l,1,013,001,2021-04-20_14h47.49.917,searchDisc4,2020.2.10,MacIntel,60,,,space,0.272,1,1,0.547,,0,168,168,408,1,2b,66,2,31,
,,,,,,,,,,,,,,,,,,,,,,,,,,images/exp2c_trial_56_colour1_distractors1_l.png,l,1,013,001,2021-04-20_14h47.49.917,searchDisc4,2020.2.10,MacIntel,60,,,space,0.267,1,1,0.509,,0,169,169,512,1,2c,56,1,1,
,,,,,,,,,,,,,,,,,,,,,,,,,,images/exp1b_trial_57_colour1_distractors4_l.png,l,1,013,001,2021-04-20_14h47.49.917,searchDisc4,2020.2.10,MacIntel,60,,,space,0.233,1,1,0.577,,0,170,170,171,1,1b,57,1,4,
,,,,,,,,,,,,,,,,,,,,,,,,,,images/exp2b_trial_37_colour0_distractors0_l.png,l,1,013,001,2021-04-20_14h47.49.917,searchDisc4,2020.2.10,MacIntel,60,,,space,0.271,1,1,0.476,,0,171,171,379,1,2b,37,0,0,
,,,,,,,,,,,,,,,,,,,,,,,,,,images/exp1a_trial_103_colour2_distractors19_l.png,l,1,013,001,2021-04-20_14h47.49.917,searchDisc4,2020.2.10,MacIntel,60,,,space,0.234,1,1,0.744,,0,172,172,103,1,1a,103,2,19,
,,,,,,,,,,,,,,,,,,,,,,,,,,images/exp1b_trial_56_colour1_distractors1_l.png,l,1,013,001,2021-04-20_14h47.49.917,searchDisc4,2020.2.10,MacIntel,60,,,space,0.267,1,1,0.51,,0,173,173,170,1,1b,56,1,1,
,,,,,,,,,,,,,,,,,,,,,,,,,,images/exp2b_trial_47_colour2_distractors19_r.png,r,2,013,001,2021-04-20_14h47.49.917,searchDisc4,2020.2.10,MacIntel,60,,,space,0.239,2,1,0.552,,0,174,174,389,1,2b,47,2,19,
,,,,,,,,,,,,,,,,,,,,,,,,,,images/exp2c_trial_94_colour1_distractors1_l.png,l,1,013,001,2021-04-20_14h47.49.917,searchDisc4,2020.2.10,MacIntel,60,,,space,0.272,1,1,0.48,,0,175,175,550,1,2c,94,1,1,
,,,,,,,,,,,,,,,,,,,,,,,,,,images/exp1b_trial_74_colour0_distractors0_r.png,r,2,013,001,2021-04-20_14h47.49.917,searchDisc4,2020.2.10,MacIntel,60,,,space,0.241,2,1,0.617,,0,176,176,188,1,1b,74,0,0,
,,,,,,,,,,,,,,,,,,,,,,,,,,images/exp2b_trial_85_colour2_distractors19_r.png,r,2,013,001,2021-04-20_14h47.49.917,searchDisc4,2020.2.10,MacIntel,60,,,space,0.268,2,1,0.479,,0,177,177,427,1,2b,85,2,19,
,,,,,,,,,,,,,,,,,,,,,,,,,,images/exp1a_trial_46_colour2_distractors9_r.png,r,2,013,001,2021-04-20_14h47.49.917,searchDisc4,2020.2.10,MacIntel,60,,,space,0.266,2,1,0.644,,0,178,178,46,1,1a,46,2,9,
,,,,,,,,,,,,,,,,,,,,,,,,,,images/exp2c_trial_107_colour3_distractors4_l.png,l,1,013,001,2021-04-20_14h47.49.917,searchDisc4,2020.2.10,MacIntel,60,,,space,0.239,1,1,0.477,space,0,179,179,563,1,2c,107,3,4,0.285
,,,,,,,,,,,,,,,,,,,,,,,,,,images/exp1b_trial_19_colour1_distractors4_l.png,l,1,013,001,2021-04-20_14h47.49.917,searchDisc4,2020.2.10,MacIntel,60,,,space,0.735,1,1,0.614,,0,180,180,133,1,1b,19,1,4,
,,,,,,,,,,,,,,,,,,,,,,,,,,images/exp1a_trial_19_colour1_distractors4_l.png,l,1,013,001,2021-04-20_14h47.49.917,searchDisc4,2020.2.10,MacIntel,60,,,space,0.334,1,1,0.643,,0,181,181,19,1,1a,19,1,4,
,,,,,,,,,,,,,,,,,,,,,,,,,,images/exp2c_trial_14_colour3_distractors9_r.png,r,2,013,001,2021-04-20_14h47.49.917,searchDisc4,2020.2.10,MacIntel,60,,,space,0.241,2,1,0.743,,0,182,182,470,1,2c,14,3,9,
,,,,,,,,,,,,,,,,,,,,,,,,,,images/exp1b_trial_69_colour3_distractors4_l.png,l,1,013,001,2021-04-20_14h47.49.917,searchDisc4,2020.2.10,MacIntel,60,,,space,0.201,1,1,0.611,,0,183,183,183,1,1b,69,3,4,
,,,,,,,,,,,,,,,,,,,,,,,,,,images/exp2b_trial_89_colour3_distractors4_r.png,r,2,013,001,2021-04-20_14h47.49.917,searchDisc4,2020.2.10,MacIntel,60,,,space,0.266,1,0,0.487,,0,184,184,431,1,2b,89,3,4,
,,,,,,,,,,,,,,,,,,,,,,,,,,images/exp2b_trial_1_colour1_distractors4_r.png,r,2,013,001,2021-04-20_14h47.49.917,searchDisc4,2020.2.10,MacIntel,60,,,space,0.5,2,1,0.646,,0,185,185,343,1,2b,1,1,4,
,,,,,,,,,,,,,,,,,,,,,,,,,,images/exp2c_trial_74_colour0_distractors0_r.png,r,2,013,001,2021-04-20_14h47.49.917,searchDisc4,2020.2.10,MacIntel,60,,,space,0.242,2,1,0.511,,0,186,186,530,1,2c,74,0,0,
,,,,,,,,,,,,,,,,,,,,,,,,,,images/exp1b_trial_78_colour1_distractors9_r.png,r,2,013,001,2021-04-20_14h47.49.917,searchDisc4,2020.2.10,MacIntel,60,,,space,0.236,2,1,0.614,,0,187,187,192,1,1b,78,1,9,
,,,,,,,,,,,,,,,,,,,,,,,,,,images/exp2a_trial_32_colour3_distractors9_l.png,l,1,013,001,2021-04-20_14h47.49.917,searchDisc4,2020.2.10,MacIntel,60,,,space,0.234,2,0,0.584,,0,188,188,260,1,2a,32,3,9,
,,,,,,,,,,,,,,,,,,,,,,,,,,images/exp2b_trial_106_colour3_distractors1_l.png,l,1,013,001,2021-04-20_14h47.49.917,searchDisc4,2020.2.10,MacIntel,60,,,space,0.435,1,1,0.653,,0,189,189,448,1,2b,106,3,1,
,,,,,,,,,,,,,,,,,,,,,,,,,,images/exp1a_trial_80_colour1_distractors31_r.png,r,2,013,001,2021-04-20_14h47.49.917,searchDisc4,2020.2.10,MacIntel,60,,,space,0.267,2,1,0.609,,0,190,190,80,1,1a,80,1,31,
,,,,,,,,,,,,,,,,,,,,,,,,,,images/exp1a_trial_24_colour2_distractors1_l.png,l,1,013,001,2021-04-20_14h47.49.917,searchDisc4,2020.2.10,MacIntel,60,,,space,0.27,1,1,0.581,,0,191,191,24,1,1a,24,2,1,
,,,,,,,,,,,,,,,,,,,,,,,,,,images/exp2c_trial_69_colour3_distractors4_l.png,l,1,013,001,2021-04-20_14h47.49.917,searchDisc4,2020.2.10,MacIntel,60,,,space,0.272,1,1,0.643,,0,192,192,525,1,2c,69,3,4,
,,,,,,,,,,,,,,,,,,,,,,,,,,images/exp2a_trial_66_colour2_distractors31_l.png,l,1,013,001,2021-04-20_14h47.49.917,searchDisc4,2020.2.10,MacIntel,60,,,space,1.437,1,1,0.611,,0,193,193,294,1,2a,66,2,31,
,,,,,,,,,,,,,,,,,,,,,,,,,,images/exp1a_trial_104_colour2_distractors31_l.png,l,1,013,001,2021-04-20_14h47.49.917,searchDisc4,2020.2.10,MacIntel,60,,,space,0.666,1,1,0.543,,0,194,194,104,1,1a,104,2,31,
,,,,,,,,,,,,,,,,,,,,,,,,,,images/exp2c_trial_101_colour2_distractors4_l.png,l,1,013,001,2021-04-20_14h47.49.917,searchDisc4,2020.2.10,MacIntel,60,,,space,0.372,1,1,0.61,,0,195,195,557,1,2c,101,2,4,
,,,,,,,,,,,,,,,,,,,,,,,,,,images/exp2c_trial_59_colour1_distractors19_l.png,l,1,013,001,2021-04-20_14h47.49.917,searchDisc4,2020.2.10,MacIntel,60,,,space,0.772,1,1,0.509,,0,196,196,515,1,2c,59,1,19,
,,,,,,,,,,,,,,,,,,,,,,,,,,images/exp1b_trial_49_colour2_distractors43_r.png,r,2,013,001,2021-04-20_14h47.49.917,searchDisc4,2020.2.10,MacIntel,60,,,space,0.3,2,1,0.91,,0,197,197,163,1,1b,49,2,43,
,,,,,,,,,,,,,,,,,,,,,,,,,,images/exp1a_trial_96_colour1_distractors9_l.png,l,1,013,001,2021-04-20_14h47.49.917,searchDisc4,2020.2.10,MacIntel,60,,,space,0.3,1,1,0.576,,0,198,198,96,1,1a,96,1,9,
,,,,,,,,,,,,,,,,,,,,,,,,,,images/exp2c_trial_75_colour0_distractors0_l.png,l,1,013,001,2021-04-20_14h47.49.917,searchDisc4,2020.2.10,MacIntel,60,,,space,0.301,1,1,0.477,,0,199,199,531,1,2c,75,0,0,
,,,,,,,,,,,,,,,,,,,,,,,,,,images/exp2a_trial_9_colour2_distractors19_r.png,r,2,013,001,2021-04-20_14h47.49.917,searchDisc4,2020.2.10,MacIntel,60,,,space,0.274,2,1,0.545,,0,200,200,237,1,2a,9,2,19,
,,,,,,,,,,,,,,,,,,,,,,,,,,images/exp1a_trial_40_colour1_distractors9_r.png,r,2,013,001,2021-04-20_14h47.49.917,searchDisc4,2020.2.10,MacIntel,60,,,space,0.27,2,1,0.58,,0,201,201,40,1,1a,40,1,9,
,,,,,,,,,,,,,,,,,,,,,,,,,,images/exp1b_trial_2_colour1_distractors9_r.png,r,2,013,001,2021-04-20_14h47.49.917,searchDisc4,2020.2.10,MacIntel,60,,,space,0.333,2,1,0.717,,0,202,202,116,1,1b,2,1,9,
,,,,,,,,,,,,,,,,,,,,,,,,,,images/exp2c_trial_67_colour2_distractors43_l.png,l,1,013,001,2021-04-20_14h47.49.917,searchDisc4,2020.2.10,MacIntel,60,,,space,0.435,1,1,0.61,,0,203,203,523,1,2c,67,2,43,
,,,,,,,,,,,,,,,,,,,,,,,,,,images/exp2a_trial_40_colour1_distractors9_r.png,r,2,013,001,2021-04-20_14h47.49.917,searchDisc4,2020.2.10,MacIntel,60,,,space,0.506,2,1,0.509,,0,204,204,268,1,2a,40,1,9,
,,,,,,,,,,,,,,,,,,,,,,,,,,images/exp2b_trial_19_colour1_distractors4_l.png,l,1,013,001,2021-04-20_14h47.49.917,searchDisc4,2020.2.10,MacIntel,60,,,space,0.334,1,1,0.481,,0,205,205,361,1,2b,19,1,4,
,,,,,,,,,,,,,,,,,,,,,,,,,,images/exp2a_trial_54_colour3_distractors31_r.png,r,2,013,001,2021-04-20_14h47.49.917,searchDisc4,2020.2.10,MacIntel,60,,,space,0.4,2,1,0.545,,0,206,206,282,1,2a,54,3,31,
,,,,,,,,,,,,,,,,,,,,,,,,,,images/exp1a_trial_6_colour2_distractors1_r.png,r,2,013,001,2021-04-20_14h47.49.917,searchDisc4,2020.2.10,MacIntel,60,,,space,0.37,2,1,0.546,,0,207,207,6,1,1a,6,2,1,
,,,,,,,,,,,,,,,,,,,,,,,,,,images/exp1b_trial_110_colour3_distractors31_l.png,l,1,013,001,2021-04-20_14h47.49.917,searchDisc4,2020.2.10,MacIntel,60,,,space,0.369,1,1,2.143,,0,208,208,224,1,1b,110,3,31,
,,,,,,,,,,,,,,,,,,,,,,,,,,images/exp2a_trial_76_colour1_distractors1_r.png,r,2,013,001,2021-04-20_14h47.49.917,searchDisc4,2020.2.10,MacIntel,60,,,space,0.441,2,1,0.68,,0,209,209,304,1,2a,76,1,1,
,,,,,,,,,,,,,,,,,,,,,,,,,,images/exp2b_trial_91_colour3_distractors19_r.png,r,2,013,001,2021-04-20_14h47.49.917,searchDisc4,2020.2.10,MacIntel,60,,,space,0.304,2,1,0.512,,0,210,210,433,1,2b,91,3,19,
,,,,,,,,,,,,,,,,,,,,,,,,,,images/exp2a_trial_17_colour3_distractors43_r.png,r,2,013,001,2021-04-20_14h47.49.917,searchDisc4,2020.2.10,MacIntel,60,,,space,0.305,2,1,0.607,,0,211,211,245,1,2a,17,3,43,
,,,,,,,,,,,,,,,,,,,,,,,,,,images/exp2b_trial_59_colour1_distractors19_l.png,l,1,013,001,2021-04-20_14h47.49.917,searchDisc4,2020.2.10,MacIntel,60,,,space,0.268,1,1,0.546,,0,212,212,401,1,2b,59,1,19,
,,,,,,,,,,,,,,,,,,,,,,,,,,images/exp2c_trial_34_colour3_distractors31_l.png,l,1,013,001,2021-04-20_14h47.49.917,searchDisc4,2020.2.10,MacIntel,60,,,space,0.299,1,1,0.547,,0,213,213,490,1,2c,34,3,31,
,,,,,,,,,,,,,,,,,,,,,,,,,,images/exp1a_trial_73_colour3_distractors43_l.png,l,1,013,001,2021-04-20_14h47.49.917,searchDisc4,2020.2.10,MacIntel,60,,,space,0.266,1,1,0.583,,0,214,214,73,1,1a,73,3,43,
,,,,,,,,,,,,,,,,,,,,,,,,,,images/exp1b_trial_16_colour3_distractors31_r.png,r,2,013,001,2021-04-20_14h47.49.917,searchDisc4,2020.2.10,MacIntel,60,,,space,0.233,2,1,0.643,,0,215,215,130,1,1b,16,3,31,
,,,,,,,,,,,,,,,,,,,,,,,,,,images/exp1a_trial_77_colour1_distractors4_r.png,r,2,013,001,2021-04-20_14h47.49.917,searchDisc4,2020.2.10,MacIntel,60,,,space,0.238,2,1,0.544,,0,216,216,77,1,1a,77,1,4,
,,,,,,,,,,,,,,,,,,,,,,,,,,images/exp2c_trial_70_colour3_distractors9_l.png,l,1,013,001,2021-04-20_14h47.49.917,searchDisc4,2020.2.10,MacIntel,60,,,space,0.201,1,1,0.612,,0,217,217,526,1,2c,70,3,9,
,,,,,,,,,,,,,,,,,,,,,,,,,,images/exp2a_trial_97_colour1_distractors19_l.png,l,1,013,001,2021-04-20_14h47.49.917,searchDisc4,2020.2.10,MacIntel,60,,,space,0.303,1,1,0.546,,0,218,218,325,1,2a,97,1,19,
,,,,,,,,,,,,,,,,,,,,,,,,,,images/exp2a_trial_29_colour2_distractors43_l.png,l,1,013,001,2021-04-20_14h47.49.917,searchDisc4,2020.2.10,MacIntel,60,,,space,0.267,1,1,0.573,,0,219,219,257,1,2a,29,2,43,
,,,,,,,,,,,,,,,,,,,,,,,,,,images/exp1b_trial_62_colour2_distractors1_l.png,l,1,013,001,2021-04-20_14h47.49.917,searchDisc4,2020.2.10,MacIntel,60,,,space,0.233,1,1,0.579,,0,220,220,176,1,1b,62,2,1,
,,,,,,,,,,,,,,,,,,,,,,,,,,images/exp1b_trial_64_colour2_distractors9_l.png,l,1,013,001,2021-04-20_14h47.49.917,searchDisc4,2020.2.10,MacIntel,60,,,space,0.231,1,1,0.577,,0,221,221,178,1,1b,64,2,9,
,,,,,,,,,,,,,,,,,,,,,,,,,,images/exp1a_trial_4_colour1_distractors31_r.png,r,2,013,001,2021-04-20_14h47.49.917,searchDisc4,2020.2.10,MacIntel,60,,,space,0.199,1,0,0.575,,0,222,222,4,1,1a,4,1,31,
,,,,,,,,,,,,,,,,,,,,,,,,,,images/exp2a_trial_45_colour2_distractors4_r.png,r,2,013,001,2021-04-20_14h47.49.917,searchDisc4,2020.2.10,MacIntel,60,,,space,0.468,2,1,0.509,,0,223,223,273,1,2a,45,2,4,
,,,,,,,,,,,,,,,,,,,,,,,,,,images/exp1a_trial_56_colour1_distractors1_l.png,l,1,013,001,2021-04-20_14h47.49.917,searchDisc4,2020.2.10,MacIntel,60,,,space,0.206,1,1,0.614,,0,224,224,56,1,1a,56,1,1,
,,,,,,,,,,,,,,,,,,,,,,,,,,images/exp2c_trial_40_colour1_distractors9_r.png,r,2,013,001,2021-04-20_14h47.49.917,searchDisc4,2020.2.10,MacIntel,60,,,space,0.236,2,1,0.61,,0,225,225,496,1,2c,40,1,9,
,,,,,,,,,,,,,,,,,,,,,,,,,,images/exp2a_trial_14_colour3_distractors9_r.png,r,2,013,001,2021-04-20_14h47.49.917,searchDisc4,2020.2.10,MacIntel,60,,,space,0.209,2,1,0.513,,0,226,226,242,1,2a,14,3,9,
,,,,,,,,,,,,,,,,,,,,,,,,,,images/exp1b_trial_86_colour2_distractors31_r.png,r,2,013,001,2021-04-20_14h47.49.917,searchDisc4,2020.2.10,MacIntel,60,,,space,0.234,2,1,0.71,,0,227,227,200,1,1b,86,2,31,
,,,,,,,,,,,,,,,,,,,,,,,,,,images/exp2a_trial_44_colour2_distractors1_r.png,r,2,013,001,2021-04-20_14h47.49.917,searchDisc4,2020.2.10,MacIntel,60,,,space,0.207,2,1,0.516,,0,228,228,272,1,2a,44,2,1,
,,,,,,,,,,,,,,,,,,,,,,,,,,images/exp1a_trial_0_colour1_distractors1_r.png,r,2,013,001,2021-04-20_14h47.49.917,searchDisc4,2020.2.10,MacIntel,60,,,space,0.2,1,0,0.684,,0,229,229,0,1,1a,0,1,1,
,,,,,,,,,,,,,,,,,,,,,,,,,,images/exp2c_trial_104_colour2_distractors31_l.png,l,1,013,001,2021-04-20_14h47.49.917,searchDisc4,2020.2.10,MacIntel,60,,,space,0.47,1,1,0.576,,0,230,230,560,1,2c,104,2,31,
,,,,,,,,,,,,,,,,,,,,,,,,,,images/exp2b_trial_96_colour1_distractors9_l.png,l,1,013,001,2021-04-20_14h47.49.917,searchDisc4,2020.2.10,MacIntel,60,,,space,0.234,1,1,0.545,,0,231,231,438,1,2b,96,1,9,
,,,,,,,,,,,,,,,,,,,,,,,,,,images/exp2c_trial_108_colour3_distractors9_l.png,l,1,013,001,2021-04-20_14h47.49.917,searchDisc4,2020.2.10,MacIntel,60,,,space,0.236,1,1,0.611,,0,232,232,564,1,2c,108,3,9,
,,,,,,,,,,,,,,,,,,,,,,,,,,images/exp1b_trial_15_colour3_distractors19_r.png,r,2,013,001,2021-04-20_14h47.49.917,searchDisc4,2020.2.10,MacIntel,60,,,space,0.208,2,1,1.011,,0,233,233,129,1,1b,15,3,19,
,,,,,,,,,,,,,,,,,,,,,,,,,,images/exp2c_trial_8_colour2_distractors9_r.png,r,2,013,001,2021-04-20_14h47.49.917,searchDisc4,2020.2.10,MacIntel,60,,,space,0.236,2,1,0.581,,0,234,234,464,1,2c,8,2,9,
,,,,,,,,,,,,,,,,,,,,,,,,,,images/exp1b_trial_4_colour1_distractors31_r.png,r,2,013,001,2021-04-20_14h47.49.917,searchDisc4,2020.2.10,MacIntel,60,,,space,0.234,2,1,0.61,,0,235,235,118,1,1b,4,1,31,
,,,,,,,,,,,,,,,,,,,,,,,,,,images/exp2b_trial_5_colour1_distractors43_r.png,r,2,013,001,2021-04-20_14h47.49.917,searchDisc4,2020.2.10,MacIntel,60,,,space,0.239,2,1,0.513,,0,236,236,347,1,2b,5,1,43,
,,,,,,,,,,,,,,,,,,,,,,,,,,images/exp2c_trial_106_colour3_distractors1_l.png,l,1,013,001,2021-04-20_14h47.49.917,searchDisc4,2020.2.10,MacIntel,60,,,space,0.233,1,1,0.577,,0,237,237,562,1,2c,106,3,1,
,,,,,,,,,,,,,,,,,,,,,,,,,,images/exp2c_trial_102_colour2_distractors9_l.png,l,1,013,001,2021-04-20_14h47.49.917,searchDisc4,2020.2.10,MacIntel,60,,,space,0.237,1,1,0.643,,0,238,238,558,1,2c,102,2,9,
,,,,,,,,,,,,,,,,,,,,,,,,,,images/exp2b_trial_18_colour1_distractors1_l.png,l,1,013,001,2021-04-20_14h47.49.917,searchDisc4,2020.2.10,MacIntel,60,,,space,0.207,1,1,0.51,space,0,239,239,360,1,2b,18,1,1,0.256
,,,,,,,,,,,,,,,,,,,,,,,,,,images/exp2a_trial_7_colour2_distractors4_r.png,r,2,013,001,2021-04-20_14h47.49.917,searchDisc4,2020.2.10,MacIntel,60,,,space,1.037,2,1,0.579,,0,240,240,235,1,2a,7,2,4,
,,,,,,,,,,,,,,,,,,,,,,,,,,images/exp2c_trial_22_colour1_distractors31_l.png,l,1,013,001,2021-04-20_14h47.49.917,searchDisc4,2020.2.10,MacIntel,60,,,space,0.275,1,1,0.711,,0,241,241,478,1,2c,22,1,31,
,,,,,,,,,,,,,,,,,,,,,,,,,,images/exp1b_trial_75_colour0_distractors0_l.png,l,1,013,001,2021-04-20_14h47.49.917,searchDisc4,2020.2.10,MacIntel,60,,,space,0.27,1,1,0.61,,0,242,242,189,1,1b,75,0,0,
,,,,,,,,,,,,,,,,,,,,,,,,,,images/exp2a_trial_34_colour3_distractors31_l.png,l,1,013,001,2021-04-20_14h47.49.917,searchDisc4,2020.2.10,MacIntel,60,,,space,0.234,1,1,0.642,,0,243,243,262,1,2a,34,3,31,
,,,,,,,,,,,,,,,,,,,,,,,,,,images/exp2c_trial_45_colour2_distractors4_r.png,r,2,013,001,2021-04-20_14h47.49.917,searchDisc4,2020.2.10,MacIntel,60,,,space,0.233,2,1,0.579,,0,244,244,501,1,2c,45,2,4,
,,,,,,,,,,,,,,,,,,,,,,,,,,images/exp2b_trial_81_colour1_distractors43_r.png,r,2,013,001,2021-04-20_14h47.49.917,searchDisc4,2020.2.10,MacIntel,60,,,space,0.267,2,1,0.583,,0,245,245,423,1,2b,81,1,43,
,,,,,,,,,,,,,,,,,,,,,,,,,,images/exp2c_trial_79_colour1_distractors19_r.png,r,2,013,001,2021-04-20_14h47.49.917,searchDisc4,2020.2.10,MacIntel,60,,,space,0.267,2,1,0.546,,0,246,246,535,1,2c,79,1,19,
,,,,,,,,,,,,,,,,,,,,,,,,,,images/exp2a_trial_16_colour3_distractors31_r.png,r,2,013,001,2021-04-20_14h47.49.917,searchDisc4,2020.2.10,MacIntel,60,,,space,0.235,2,1,0.608,,0,247,247,244,1,2a,16,3,31,
,,,,,,,,,,,,,,,,,,,,,,,,,,images/exp2a_trial_5_colour1_distractors43_r.png,r,2,013,001,2021-04-20_14h47.49.917,searchDisc4,2020.2.10,MacIntel,60,,,space,0.234,2,1,0.611,,0,248,248,233,1,2a,5,1,43,
,,,,,,,,,,,,,,,,,,,,,,,,,,images/exp2b_trial_105_colour2_distractors43_l.png,l,1,013,001,2021-04-20_14h47.49.917,searchDisc4,2020.2.10,MacIntel,60,,,space,0.236,1,1,0.744,,0,249,249,447,1,2b,105,2,43,
,,,,,,,,,,,,,,,,,,,,,,,,,,images/exp1a_trial_10_colour2_distractors31_r.png,r,2,013,001,2021-04-20_14h47.49.917,searchDisc4,2020.2.10,MacIntel,60,,,space,0.272,2,1,0.71,,0,250,250,10,1,1a,10,2,31,
,,,,,,,,,,,,,,,,,,,,,,,,,,images/exp1b_trial_79_colour1_distractors19_r.png,r,2,013,001,2021-04-20_14h47.49.917,searchDisc4,2020.2.10,MacIntel,60,,,space,0.265,2,1,0.544,,0,251,251,193,1,1b,79,1,19,
,,,,,,,,,,,,,,,,,,,,,,,,,,images/exp2c_trial_54_colour3_distractors31_r.png,r,2,013,001,2021-04-20_14h47.49.917,searchDisc4,2020.2.10,MacIntel,60,,,space,0.301,2,1,0.513,,0,252,252,510,1,2c,54,3,31,
,,,,,,,,,,,,,,,,,,,,,,,,,,images/exp2c_trial_11_colour2_distractors43_r.png,r,2,013,001,2021-04-20_14h47.49.917,searchDisc4,2020.2.10,MacIntel,60,,,space,0.332,2,1,0.478,,0,253,253,467,1,2c,11,2,43,
,,,,,,,,,,,,,,,,,,,,,,,,,,images/exp1b_trial_113_colour0_distractors0_l.png,l,1,013,001,2021-04-20_14h47.49.917,searchDisc4,2020.2.10,MacIntel,60,,,space,0.433,1,1,0.48,,0,254,254,227,1,1b,113,0,0,
,,,,,,,,,,,,,,,,,,,,,,,,,,images/exp2c_trial_37_colour0_distractors0_l.png,l,1,013,001,2021-04-20_14h47.49.917,searchDisc4,2020.2.10,MacIntel,60,,,space,0.304,1,1,0.446,,0,255,255,493,1,2c,37,0,0,
,,,,,,,,,,,,,,,,,,,,,,,,,,images/exp2b_trial_46_colour2_distractors9_r.png,r,2,013,001,2021-04-20_14h47.49.917,searchDisc4,2020.2.10,MacIntel,60,,,space,0.271,2,1,0.516,,0,256,256,388,1,2b,46,2,9,
,,,,,,,,,,,,,,,,,,,,,,,,,,images/exp1b_trial_22_colour1_distractors31_l.png,l,1,013,001,2021-04-20_14h47.49.917,searchDisc4,2020.2.10,MacIntel,60,,,space,0.3,1,1,0.677,,0,257,257,136,1,1b,22,1,31,
,,,,,,,,,,,,,,,,,,,,,,,,,,images/exp1b_trial_13_colour3_distractors4_r.png,r,2,013,001,2021-04-20_14h47.49.917,searchDisc4,2020.2.10,MacIntel,60,,,space,0.299,2,1,0.782,,0,258,258,127,1,1b,13,3,4,
,,,,,,,,,,,,,,,,,,,,,,,,,,images/exp1b_trial_59_colour1_distractors19_l.png,l,1,013,001,2021-04-20_14h47.49.917,searchDisc4,2020.2.10,MacIntel,60,,,space,0.308,1,1,0.547,,0,259,259,173,1,1b,59,1,19,
,,,,,,,,,,,,,,,,,,,,,,,,,,images/exp2a_trial_100_colour2_distractors1_l.png,l,1,013,001,2021-04-20_14h47.49.917,searchDisc4,2020.2.10,MacIntel,60,,,space,0.275,1,1,0.513,,0,260,260,328,1,2a,100,2,1,
,,,,,,,,,,,,,,,,,,,,,,,,,,images/exp2c_trial_21_colour1_distractors19_l.png,l,1,013,001,2021-04-20_14h47.49.917,searchDisc4,2020.2.10,MacIntel,60,,,space,0.27,1,1,0.476,,0,261,261,477,1,2c,21,1,19,
,,,,,,,,,,,,,,,,,,,,,,,,,,images/exp1a_trial_54_colour3_distractors31_r.png,r,2,013,001,2021-04-20_14h47.49.917,searchDisc4,2020.2.10,MacIntel,60,,,space,0.267,2,1,0.519,,0,262,262,54,1,1a,54,3,31,
,,,,,,,,,,,,,,,,,,,,,,,,,,images/exp1a_trial_53_colour3_distractors19_r.png,r,2,013,001,2021-04-20_14h47.49.917,searchDisc4,2020.2.10,MacIntel,60,,,space,0.301,2,1,0.643,,0,263,263,53,1,1a,53,3,19,
,,,,,,,,,,,,,,,,,,,,,,,,,,images/exp2b_trial_80_colour1_distractors31_r.png,r,2,013,001,2021-04-20_14h47.49.917,searchDisc4,2020.2.10,MacIntel,60,,,space,0.266,2,1,0.643,,0,264,264,422,1,2b,80,1,31,
,,,,,,,,,,,,,,,,,,,,,,,,,,images/exp1b_trial_93_colour3_distractors43_r.png,r,2,013,001,2021-04-20_14h47.49.917,searchDisc4,2020.2.10,MacIntel,60,,,space,0.237,2,1,0.744,,0,265,265,207,1,1b,93,3,43,
,,,,,,,,,,,,,,,,,,,,,,,,,,images/exp2b_trial_111_colour3_distractors43_l.png,l,1,013,001,2021-04-20_14h47.49.917,searchDisc4,2020.2.10,MacIntel,60,,,space,0.269,1,1,0.68,,0,266,266,453,1,2b,111,3,43,
,,,,,,,,,,,,,,,,,,,,,,,,,,images/exp1b_trial_104_colour2_distractors31_l.png,l,1,013,001,2021-04-20_14h47.49.917,searchDisc4,2020.2.10,MacIntel,60,,,space,0.277,1,1,0.85,,0,267,267,218,1,1b,104,2,31,
,,,,,,,,,,,,,,,,,,,,,,,,,,images/exp1a_trial_78_colour1_distractors9_r.png,r,2,013,001,2021-04-20_14h47.49.917,searchDisc4,2020.2.10,MacIntel,60,,,space,0.334,2,1,0.549,,0,268,268,78,1,1a,78,1,9,
,,,,,,,,,,,,,,,,,,,,,,,,,,images/exp1b_trial_105_colour2_distractors43_l.png,l,1,013,001,2021-04-20_14h47.49.917,searchDisc4,2020.2.10,MacIntel,60,,,space,0.27,1,1,0.944,,0,269,269,219,1,1b,105,2,43,
,,,,,,,,,,,,,,,,,,,,,,,,,,images/exp2b_trial_33_colour3_distractors19_l.png,l,1,013,001,2021-04-20_14h47.49.917,searchDisc4,2020.2.10,MacIntel,60,,,space,0.267,1,1,0.61,,0,270,270,375,1,2b,33,3,19,
,,,,,,,,,,,,,,,,,,,,,,,,,,images/exp2b_trial_73_colour3_distractors43_l.png,l,1,013,001,2021-04-20_14h47.49.917,searchDisc4,2020.2.10,MacIntel,60,,,space,0.333,1,1,0.511,,0,271,271,415,1,2b,73,3,43,
,,,,,,,,,,,,,,,,,,,,,,,,,,images/exp1b_trial_17_colour3_distractors43_r.png,r,2,013,001,2021-04-20_14h47.49.917,searchDisc4,2020.2.10,MacIntel,60,,,space,0.367,2,1,0.576,,0,272,272,131,1,1b,17,3,43,
,,,,,,,,,,,,,,,,,,,,,,,,,,images/exp2a_trial_55_colour3_distractors43_r.png,r,2,013,001,2021-04-20_14h47.49.917,searchDisc4,2020.2.10,MacIntel,60,,,space,0.301,2,1,0.609,,0,273,273,283,1,2a,55,3,43,
,,,,,,,,,,,,,,,,,,,,,,,,,,images/exp2c_trial_113_colour0_distractors0_l.png,l,1,013,001,2021-04-20_14h47.49.917,searchDisc4,2020.2.10,MacIntel,60,,,space,0.298,1,1,0.509,,0,274,274,569,1,2c,113,0,0,
,,,,,,,,,,,,,,,,,,,,,,,,,,images/exp2c_trial_29_colour2_distractors43_l.png,l,1,013,001,2021-04-20_14h47.49.917,searchDisc4,2020.2.10,MacIntel,60,,,space,0.3,1,1,0.544,,0,275,275,485,1,2c,29,2,43,
,,,,,,,,,,,,,,,,,,,,,,,,,,images/exp1b_trial_94_colour1_distractors1_l.png,l,1,013,001,2021-04-20_14h47.49.917,searchDisc4,2020.2.10,MacIntel,60,,,space,0.238,1,1,0.61,,0,276,276,208,1,1b,94,1,1,
,,,,,,,,,,,,,,,,,,,,,,,,,,images/exp1a_trial_61_colour1_distractors43_l.png,l,1,013,001,2021-04-20_14h47.49.917,searchDisc4,2020.2.10,MacIntel,60,,,space,0.368,1,1,0.684,,0,277,277,61,1,1a,61,1,43,
,,,,,,,,,,,,,,,,,,,,,,,,,,images/exp1b_trial_77_colour1_distractors4_r.png,r,2,013,001,2021-04-20_14h47.49.917,searchDisc4,2020.2.10,MacIntel,60,,,space,0.302,2,1,0.543,,0,278,278,191,1,1b,77,1,4,
,,,,,,,,,,,,,,,,,,,,,,,,,,images/exp2b_trial_28_colour2_distractors31_l.png,l,1,013,001,2021-04-20_14h47.49.917,searchDisc4,2020.2.10,MacIntel,60,,,space,0.367,1,1,0.677,,0,279,279,370,1,2b,28,2,31,
,,,,,,,,,,,,,,,,,,,,,,,,,,images/exp2c_trial_71_colour3_distractors19_l.png,l,1,013,001,2021-04-20_14h47.49.917,searchDisc4,2020.2.10,MacIntel,60,,,space,0.371,1,1,0.578,,0,280,280,527,1,2c,71,3,19,
,,,,,,,,,,,,,,,,,,,,,,,,,,images/exp1a_trial_51_colour3_distractors4_r.png,r,2,013,001,2021-04-20_14h47.49.917,searchDisc4,2020.2.10,MacIntel,60,,,space,0.432,2,1,0.513,,0,281,281,51,1,1a,51,3,4,
,,,,,,,,,,,,,,,,,,,,,,,,,,images/exp1a_trial_12_colour3_distractors1_r.png,r,2,013,001,2021-04-20_14h47.49.917,searchDisc4,2020.2.10,MacIntel,60,,,space,0.467,2,1,0.576,,0,282,282,12,1,1a,12,3,1,
,,,,,,,,,,,,,,,,,,,,,,,,,,images/exp2c_trial_99_colour1_distractors43_l.png,l,1,013,001,2021-04-20_14h47.49.917,searchDisc4,2020.2.10,MacIntel,60,,,space,0.367,1,1,0.553,,0,283,283,555,1,2c,99,1,43,
,,,,,,,,,,,,,,,,,,,,,,,,,,images/exp2c_trial_52_colour3_distractors9_r.png,r,2,013,001,2021-04-20_14h47.49.917,searchDisc4,2020.2.10,MacIntel,60,,,space,0.401,2,1,0.816,,0,284,284,508,1,2c,52,3,9,
,,,,,,,,,,,,,,,,,,,,,,,,,,images/exp2b_trial_69_colour3_distractors4_l.png,l,1,013,001,2021-04-20_14h47.49.917,searchDisc4,2020.2.10,MacIntel,60,,,space,0.367,1,1,0.683,,0,285,285,411,1,2b,69,3,4,
,,,,,,,,,,,,,,,,,,,,,,,,,,images/exp1b_trial_29_colour2_distractors43_l.png,l,1,013,001,2021-04-20_14h47.49.917,searchDisc4,2020.2.10,MacIntel,60,,,space,0.4,1,1,0.711,,0,286,286,143,1,1b,29,2,43,
,,,,,,,,,,,,,,,,,,,,,,,,,,images/exp1a_trial_38_colour1_distractors1_r.png,r,2,013,001,2021-04-20_14h47.49.917,searchDisc4,2020.2.10,MacIntel,60,,,space,0.334,2,1,0.51,,0,287,287,38,1,1a,38,1,1,
,,,,,,,,,,,,,,,,,,,,,,,,,,images/exp1a_trial_45_colour2_distractors4_r.png,r,2,013,001,2021-04-20_14h47.49.917,searchDisc4,2020.2.10,MacIntel,60,,,space,0.332,2,1,0.576,,0,288,288,45,1,1a,45,2,4,
,,,,,,,,,,,,,,,,,,,,,,,,,,images/exp1b_trial_95_colour1_distractors4_l.png,l,1,013,001,2021-04-20_14h47.49.917,searchDisc4,2020.2.10,MacIntel,60,,,space,0.366,1,1,0.646,,0,289,289,209,1,1b,95,1,4,
,,,,,,,,,,,,,,,,,,,,,,,,,,images/exp1b_trial_14_colour3_distractors9_r.png,r,2,013,001,2021-04-20_14h47.49.917,searchDisc4,2020.2.10,MacIntel,60,,,space,0.306,2,1,0.911,,0,290,290,128,1,1b,14,3,9,
,,,,,,,,,,,,,,,,,,,,,,,,,,images/exp2a_trial_70_colour3_distractors9_l.png,l,1,013,001,2021-04-20_14h47.49.917,searchDisc4,2020.2.10,MacIntel,60,,,space,0.609,1,1,0.544,,0,291,291,298,1,2a,70,3,9,
,,,,,,,,,,,,,,,,,,,,,,,,,,images/exp2b_trial_25_colour2_distractors4_l.png,l,1,013,001,2021-04-20_14h47.49.917,searchDisc4,2020.2.10,MacIntel,60,,,space,0.334,1,1,0.477,,0,292,292,367,1,2b,25,2,4,
,,,,,,,,,,,,,,,,,,,,,,,,,,images/exp2c_trial_3_colour1_distractors19_r.png,r,2,013,001,2021-04-20_14h47.49.917,searchDisc4,2020.2.10,MacIntel,60,,,space,0.334,2,1,0.513,,0,293,293,459,1,2c,3,1,19,
,,,,,,,,,,,,,,,,,,,,,,,,,,images/exp1a_trial_20_colour1_distractors9_l.png,l,1,013,001,2021-04-20_14h47.49.917,searchDisc4,2020.2.10,MacIntel,60,,,space,0.3,1,1,0.644,,0,294,294,20,1,1a,20,1,9,
,,,,,,,,,,,,,,,,,,,,,,,,,,images/exp1b_trial_109_colour3_distractors19_l.png,l,1,013,001,2021-04-20_14h47.49.917,searchDisc4,2020.2.10,MacIntel,60,,,space,0.336,1,1,0.775,,0,295,295,223,1,1b,109,3,19,
,,,,,,,,,,,,,,,,,,,,,,,,,,images/exp2a_trial_112_colour0_distractors0_r.png,r,2,013,001,2021-04-20_14h47.49.917,searchDisc4,2020.2.10,MacIntel,60,,,space,0.364,2,1,0.518,,0,296,296,340,1,2a,112,0,0,
,,,,,,,,,,,,,,,,,,,,,,,,,,images/exp2a_trial_87_colour2_distractors43_r.png,r,2,013,001,2021-04-20_14h47.49.917,searchDisc4,2020.2.10,MacIntel,60,,,space,0.468,2,1,0.579,,0,297,297,315,1,2a,87,2,43,
,,,,,,,,,,,,,,,,,,,,,,,,,,images/exp2b_trial_3_colour1_distractors19_r.png,r,2,013,001,2021-04-20_14h47.49.917,searchDisc4,2020.2.10,MacIntel,60,,,space,0.369,2,1,0.743,,0,298,298,345,1,2b,3,1,19,
,,,,,,,,,,,,,,,,,,,,,,,,,,images/exp1a_trial_102_colour2_distractors9_l.png,l,1,013,001,2021-04-20_14h47.49.917,searchDisc4,2020.2.10,MacIntel,60,,,space,0.367,1,1,0.677,space,0,299,299,102,1,1a,102,2,9,0.384
,,,,,,,,,,,,,,,,,,,,,,,,,,images/exp2b_trial_90_colour3_distractors9_r.png,r,2,013,001,2021-04-20_14h47.49.917,searchDisc4,2020.2.10,MacIntel,60,,,space,1.601,2,1,0.644,,0,300,300,432,1,2b,90,3,9,
,,,,,,,,,,,,,,,,,,,,,,,,,,images/exp2a_trial_88_colour3_distractors1_r.png,r,2,013,001,2021-04-20_14h47.49.917,searchDisc4,2020.2.10,MacIntel,60,,,space,0.331,2,1,0.51,,0,301,301,316,1,2a,88,3,1,
,,,,,,,,,,,,,,,,,,,,,,,,,,images/exp2b_trial_21_colour1_distractors19_l.png,l,1,013,001,2021-04-20_14h47.49.917,searchDisc4,2020.2.10,MacIntel,60,,,space,0.4,1,1,0.613,,0,302,302,363,1,2b,21,1,19,
,,,,,,,,,,,,,,,,,,,,,,,,,,images/exp2c_trial_58_colour1_distractors9_l.png,l,1,013,001,2021-04-20_14h47.49.917,searchDisc4,2020.2.10,MacIntel,60,,,space,0.342,1,1,0.614,,0,303,303,514,1,2c,58,1,9,
,,,,,,,,,,,,,,,,,,,,,,,,,,images/exp2c_trial_100_colour2_distractors1_l.png,l,1,013,001,2021-04-20_14h47.49.917,searchDisc4,2020.2.10,MacIntel,60,,,space,0.371,1,1,0.513,,0,304,304,556,1,2c,100,2,1,
,,,,,,,,,,,,,,,,,,,,,,,,,,images/exp2b_trial_29_colour2_distractors43_l.png,l,1,013,001,2021-04-20_14h47.49.917,searchDisc4,2020.2.10,MacIntel,60,,,space,0.343,1,1,0.711,,0,305,305,371,1,2b,29,2,43,
,,,,,,,,,,,,,,,,,,,,,,,,,,images/exp2c_trial_85_colour2_distractors19_r.png,r,2,013,001,2021-04-20_14h47.49.917,searchDisc4,2020.2.10,MacIntel,60,,,space,0.333,2,1,0.613,,0,306,306,541,1,2c,85,2,19,
,,,,,,,,,,,,,,,,,,,,,,,,,,images/exp2c_trial_9_colour2_distractors19_r.png,r,2,013,001,2021-04-20_14h47.49.917,searchDisc4,2020.2.10,MacIntel,60,,,space,0.337,2,1,0.513,,0,307,307,465,1,2c,9,2,19,
,,,,,,,,,,,,,,,,,,,,,,,,,,images/exp2c_trial_33_colour3_distractors19_l.png,l,1,013,001,2021-04-20_14h47.49.917,searchDisc4,2020.2.10,MacIntel,60,,,space,0.334,1,1,0.51,,0,308,308,489,1,2c,33,3,19,
,,,,,,,,,,,,,,,,,,,,,,,,,,images/exp2a_trial_41_colour1_distractors19_r.png,r,2,013,001,2021-04-20_14h47.49.917,searchDisc4,2020.2.10,MacIntel,60,,,space,0.335,2,1,0.71,,0,309,309,269,1,2a,41,1,19,
,,,,,,,,,,,,,,,,,,,,,,,,,,images/exp1a_trial_82_colour2_distractors1_r.png,r,2,013,001,2021-04-20_14h47.49.917,searchDisc4,2020.2.10,MacIntel,60,,,space,0.366,2,1,0.485,,0,310,310,82,1,1a,82,2,1,
,,,,,,,,,,,,,,,,,,,,,,,,,,images/exp2c_trial_7_colour2_distractors4_r.png,r,2,013,001,2021-04-20_14h47.49.917,searchDisc4,2020.2.10,MacIntel,60,,,space,0.369,2,1,0.48,,0,311,311,463,1,2c,7,2,4,
,,,,,,,,,,,,,,,,,,,,,,,,,,images/exp2a_trial_72_colour3_distractors31_l.png,l,1,013,001,2021-04-20_14h47.49.917,searchDisc4,2020.2.10,MacIntel,60,,,space,0.334,1,1,0.578,,0,312,312,300,1,2a,72,3,31,
,,,,,,,,,,,,,,,,,,,,,,,,,,images/exp2c_trial_105_colour2_distractors43_l.png,l,1,013,001,2021-04-20_14h47.49.917,searchDisc4,2020.2.10,MacIntel,60,,,space,0.333,1,1,0.515,,0,313,313,561,1,2c,105,2,43,
,,,,,,,,,,,,,,,,,,,,,,,,,,images/exp1b_trial_108_colour3_distractors9_l.png,l,1,013,001,2021-04-20_14h47.49.917,searchDisc4,2020.2.10,MacIntel,60,,,space,0.37,1,1,0.709,,0,314,314,222,1,1b,108,3,9,
,,,,,,,,,,,,,,,,,,,,,,,,,,images/exp2b_trial_27_colour2_distractors19_l.png,l,1,013,001,2021-04-20_14h47.49.917,searchDisc4,2020.2.10,MacIntel,60,,,space,0.342,1,1,0.545,,0,315,315,369,1,2b,27,2,19,
,,,,,,,,,,,,,,,,,,,,,,,,,,images/exp2b_trial_10_colour2_distractors31_r.png,r,2,013,001,2021-04-20_14h47.49.917,searchDisc4,2020.2.10,MacIntel,60,,,space,0.342,2,1,0.585,,0,316,316,352,1,2b,10,2,31,
,,,,,,,,,,,,,,,,,,,,,,,,,,images/exp1b_trial_18_colour1_distractors1_l.png,l,1,013,001,2021-04-20_14h47.49.917,searchDisc4,2020.2.10,MacIntel,60,,,space,0.367,1,1,0.512,,0,317,317,132,1,1b,18,1,1,
,,,,,,,,,,,,,,,,,,,,,,,,,,images/exp1b_trial_76_colour1_distractors1_r.png,r,2,013,001,2021-04-20_14h47.49.917,searchDisc4,2020.2.10,MacIntel,60,,,space,0.343,2,1,0.577,,0,318,318,190,1,1b,76,1,1,
,,,,,,,,,,,,,,,,,,,,,,,,,,images/exp2b_trial_86_colour2_distractors31_r.png,r,2,013,001,2021-04-20_14h47.49.917,searchDisc4,2020.2.10,MacIntel,60,,,space,0.334,2,1,0.543,,0,319,319,428,1,2b,86,2,31,
,,,,,,,,,,,,,,,,,,,,,,,,,,images/exp2a_trial_79_colour1_distractors19_r.png,r,2,013,001,2021-04-20_14h47.49.917,searchDisc4,2020.2.10,MacIntel,60,,,space,0.337,2,1,0.482,,0,320,320,307,1,2a,79,1,19,
,,,,,,,,,,,,,,,,,,,,,,,,,,images/exp1a_trial_76_colour1_distractors1_r.png,r,2,013,001,2021-04-20_14h47.49.917,searchDisc4,2020.2.10,MacIntel,60,,,space,0.3,1,0,0.513,,0,321,321,76,1,1a,76,1,1,
,,,,,,,,,,,,,,,,,,,,,,,,,,images/exp1a_trial_106_colour3_distractors1_l.png,l,1,013,001,2021-04-20_14h47.49.917,searchDisc4,2020.2.10,MacIntel,60,,,space,0.535,1,1,0.645,,0,322,322,106,1,1a,106,3,1,
,,,,,,,,,,,,,,,,,,,,,,,,,,images/exp2b_trial_76_colour1_distractors1_r.png,r,2,013,001,2021-04-20_14h47.49.917,searchDisc4,2020.2.10,MacIntel,60,,,space,0.303,2,1,0.543,,0,323,323,418,1,2b,76,1,1,
,,,,,,,,,,,,,,,,,,,,,,,,,,images/exp2b_trial_64_colour2_distractors9_l.png,l,1,013,001,2021-04-20_14h47.49.917,searchDisc4,2020.2.10,MacIntel,60,,,space,0.3,1,1,0.777,,0,324,324,406,1,2b,64,2,9,
,,,,,,,,,,,,,,,,,,,,,,,,,,images/exp2c_trial_55_colour3_distractors43_r.png,r,2,013,001,2021-04-20_14h47.49.917,searchDisc4,2020.2.10,MacIntel,60,,,space,0.366,2,1,0.553,,0,325,325,511,1,2c,55,3,43,
,,,,,,,,,,,,,,,,,,,,,,,,,,images/exp2b_trial_74_colour0_distractors0_r.png,r,2,013,001,2021-04-20_14h47.49.917,searchDisc4,2020.2.10,MacIntel,60,,,space,0.308,2,1,0.478,,0,326,326,416,1,2b,74,0,0,
,,,,,,,,,,,,,,,,,,,,,,,,,,images/exp1a_trial_112_colour0_distractors0_r.png,r,2,013,001,2021-04-20_14h47.49.917,searchDisc4,2020.2.10,MacIntel,60,,,space,0.3,2,1,0.51,,0,327,327,112,1,1a,112,0,0,
,,,,,,,,,,,,,,,,,,,,,,,,,,images/exp2c_trial_15_colour3_distractors19_r.png,r,2,013,001,2021-04-20_14h47.49.917,searchDisc4,2020.2.10,MacIntel,60,,,space,0.304,2,1,0.543,,0,328,328,471,1,2c,15,3,19,
,,,,,,,,,,,,,,,,,,,,,,,,,,images/exp2c_trial_73_colour3_distractors43_l.png,l,1,013,001,2021-04-20_14h47.49.917,searchDisc4,2020.2.10,MacIntel,60,,,space,0.304,1,1,0.612,,0,329,329,529,1,2c,73,3,43,
,,,,,,,,,,,,,,,,,,,,,,,,,,images/exp2a_trial_22_colour1_distractors31_l.png,l,1,013,001,2021-04-20_14h47.49.917,searchDisc4,2020.2.10,MacIntel,60,,,space,0.301,1,1,0.509,,0,330,330,250,1,2a,22,1,31,
,,,,,,,,,,,,,,,,,,,,,,,,,,images/exp2b_trial_61_colour1_distractors43_l.png,l,1,013,001,2021-04-20_14h47.49.917,searchDisc4,2020.2.10,MacIntel,60,,,space,0.333,1,1,0.512,,0,331,331,403,1,2b,61,1,43,
,,,,,,,,,,,,,,,,,,,,,,,,,,images/exp2b_trial_45_colour2_distractors4_r.png,r,2,013,001,2021-04-20_14h47.49.917,searchDisc4,2020.2.10,MacIntel,60,,,space,0.365,2,1,0.546,,0,332,332,387,1,2b,45,2,4,
,,,,,,,,,,,,,,,,,,,,,,,,,,images/exp2b_trial_32_colour3_distractors9_l.png,l,1,013,001,2021-04-20_14h47.49.917,searchDisc4,2020.2.10,MacIntel,60,,,space,0.337,1,1,0.746,,0,333,333,374,1,2b,32,3,9,
,,,,,,,,,,,,,,,,,,,,,,,,,,images/exp1b_trial_63_colour2_distractors4_l.png,l,1,013,001,2021-04-20_14h47.49.917,searchDisc4,2020.2.10,MacIntel,60,,,space,0.334,1,1,0.711,,0,334,334,177,1,1b,63,2,4,
,,,,,,,,,,,,,,,,,,,,,,,,,,images/exp1a_trial_98_colour1_distractors31_l.png,l,1,013,001,2021-04-20_14h47.49.917,searchDisc4,2020.2.10,MacIntel,60,,,space,0.334,1,1,0.713,,0,335,335,98,1,1a,98,1,31,
,,,,,,,,,,,,,,,,,,,,,,,,,,images/exp2a_trial_35_colour3_distractors43_l.png,l,1,013,001,2021-04-20_14h47.49.917,searchDisc4,2020.2.10,MacIntel,60,,,space,0.335,1,1,0.618,,0,336,336,263,1,2a,35,3,43,
,,,,,,,,,,,,,,,,,,,,,,,,,,images/exp2a_trial_109_colour3_distractors19_l.png,l,1,013,001,2021-04-20_14h47.49.917,searchDisc4,2020.2.10,MacIntel,60,,,space,0.367,1,1,0.613,,0,337,337,337,1,2a,109,3,19,
,,,,,,,,,,,,,,,,,,,,,,,,,,images/exp2a_trial_38_colour1_distractors1_r.png,r,2,013,001,2021-04-20_14h47.49.917,searchDisc4,2020.2.10,MacIntel,60,,,space,0.366,2,1,0.676,,0,338,338,266,1,2a,38,1,1,
,,,,,,,,,,,,,,,,,,,,,,,,,,images/exp2a_trial_0_colour1_distractors1_r.png,r,2,013,001,2021-04-20_14h47.49.917,searchDisc4,2020.2.10,MacIntel,60,,,space,0.301,2,1,0.577,,0,339,339,228,1,2a,0,1,1,
,,,,,,,,,,,,,,,,,,,,,,,,,,images/exp2a_trial_83_colour2_distractors4_r.png,r,2,013,001,2021-04-20_14h47.49.917,searchDisc4,2020.2.10,MacIntel,60,,,space,0.3,2,1,0.519,,0,340,340,311,1,2a,83,2,4,
,,,,,,,,,,,,,,,,,,,,,,,,,,images/exp2a_trial_51_colour3_distractors4_r.png,r,2,013,001,2021-04-20_14h47.49.917,searchDisc4,2020.2.10,MacIntel,60,,,space,0.366,2,1,0.578,,0,341,341,279,1,2a,51,3,4,
,,,,,,,,,,,,,,,,,,,,,,,,,,images/exp2b_trial_112_colour0_distractors0_r.png,r,2,013,001,2021-04-20_14h47.49.917,searchDisc4,2020.2.10,MacIntel,60,,,space,0.333,2,1,0.511,,0,342,342,454,1,2b,112,0,0,
,,,,,,,,,,,,,,,,,,,,,,,,,,images/exp2c_trial_0_colour1_distractors1_r.png,r,2,013,001,2021-04-20_14h47.49.917,searchDisc4,2020.2.10,MacIntel,60,,,space,0.302,2,1,0.451,,0,343,343,456,1,2c,0,1,1,
,,,,,,,,,,,,,,,,,,,,,,,,,,images/exp2b_trial_109_colour3_distractors19_l.png,l,1,013,001,2021-04-20_14h47.49.917,searchDisc4,2020.2.10,MacIntel,60,,,space,0.303,1,1,0.55,,0,344,344,451,1,2b,109,3,19,
,,,,,,,,,,,,,,,,,,,,,,,,,,images/exp2c_trial_32_colour3_distractors9_l.png,l,1,013,001,2021-04-20_14h47.49.917,searchDisc4,2020.2.10,MacIntel,60,,,space,0.306,1,1,0.515,,0,345,345,488,1,2c,32,3,9,
,,,,,,,,,,,,,,,,,,,,,,,,,,images/exp2b_trial_53_colour3_distractors19_r.png,r,2,013,001,2021-04-20_14h47.49.917,searchDisc4,2020.2.10,MacIntel,60,,,space,0.299,2,1,0.611,,0,346,346,395,1,2b,53,3,19,
,,,,,,,,,,,,,,,,,,,,,,,,,,images/exp2a_trial_92_colour3_distractors31_r.png,r,2,013,001,2021-04-20_14h47.49.917,searchDisc4,2020.2.10,MacIntel,60,,,space,0.274,2,1,0.579,,0,347,347,320,1,2a,92,3,31,
,,,,,,,,,,,,,,,,,,,,,,,,,,images/exp2a_trial_4_colour1_distractors31_r.png,r,2,013,001,2021-04-20_14h47.49.917,searchDisc4,2020.2.10,MacIntel,60,,,space,0.334,2,1,0.611,,0,348,348,232,1,2a,4,1,31,
,,,,,,,,,,,,,,,,,,,,,,,,,,images/exp1a_trial_60_colour1_distractors31_l.png,l,1,013,001,2021-04-20_14h47.49.917,searchDisc4,2020.2.10,MacIntel,60,,,space,0.334,1,1,0.507,,0,349,349,60,1,1a,60,1,31,
,,,,,,,,,,,,,,,,,,,,,,,,,,images/exp2b_trial_78_colour1_distractors9_r.png,r,2,013,001,2021-04-20_14h47.49.917,searchDisc4,2020.2.10,MacIntel,60,,,space,0.339,2,1,0.647,,0,350,350,420,1,2b,78,1,9,
,,,,,,,,,,,,,,,,,,,,,,,,,,images/exp2b_trial_7_colour2_distractors4_r.png,r,2,013,001,2021-04-20_14h47.49.917,searchDisc4,2020.2.10,MacIntel,60,,,space,0.333,2,1,0.544,,0,351,351,349,1,2b,7,2,4,
,,,,,,,,,,,,,,,,,,,,,,,,,,images/exp1a_trial_22_colour1_distractors31_l.png,l,1,013,001,2021-04-20_14h47.49.917,searchDisc4,2020.2.10,MacIntel,60,,,space,1.601,1,1,0.543,,0,352,352,22,1,1a,22,1,31,
,,,,,,,,,,,,,,,,,,,,,,,,,,images/exp2b_trial_31_colour3_distractors4_l.png,l,1,013,001,2021-04-20_14h47.49.917,searchDisc4,2020.2.10,MacIntel,60,,,space,0.269,1,1,0.611,,0,353,353,373,1,2b,31,3,4,
,,,,,,,,,,,,,,,,,,,,,,,,,,images/exp2c_trial_5_colour1_distractors43_r.png,r,2,013,001,2021-04-20_14h47.49.917,searchDisc4,2020.2.10,MacIntel,60,,,space,0.333,2,1,0.652,,0,354,354,461,1,2c,5,1,43,
,,,,,,,,,,,,,,,,,,,,,,,,,,images/exp1a_trial_57_colour1_distractors4_l.png,l,1,013,001,2021-04-20_14h47.49.917,searchDisc4,2020.2.10,MacIntel,60,,,space,0.332,1,1,0.813,,0,355,355,57,1,1a,57,1,4,
,,,,,,,,,,,,,,,,,,,,,,,,,,images/exp2b_trial_44_colour2_distractors1_r.png,r,2,013,001,2021-04-20_14h47.49.917,searchDisc4,2020.2.10,MacIntel,60,,,space,0.304,2,1,0.514,,0,356,356,386,1,2b,44,2,1,
,,,,,,,,,,,,,,,,,,,,,,,,,,images/exp2a_trial_8_colour2_distractors9_r.png,r,2,013,001,2021-04-20_14h47.49.917,searchDisc4,2020.2.10,MacIntel,60,,,space,0.335,2,1,0.544,,0,357,357,236,1,2a,8,2,9,
,,,,,,,,,,,,,,,,,,,,,,,,,,images/exp2c_trial_87_colour2_distractors43_r.png,r,2,013,001,2021-04-20_14h47.49.917,searchDisc4,2020.2.10,MacIntel,60,,,space,0.333,2,1,0.61,,0,358,358,543,1,2c,87,2,43,
,,,,,,,,,,,,,,,,,,,,,,,,,,images/exp2a_trial_57_colour1_distractors4_l.png,l,1,013,001,2021-04-20_14h47.49.917,searchDisc4,2020.2.10,MacIntel,60,,,space,0.371,1,1,0.642,space,0,359,359,285,1,2a,57,1,4,0.357
,,,,,,,,,,,,,,,,,,,,,,,,,,images/exp1a_trial_93_colour3_distractors43_r.png,r,2,013,001,2021-04-20_14h47.49.917,searchDisc4,2020.2.10,MacIntel,60,,,space,3.401,2,1,0.68,,0,360,360,93,1,1a,93,3,43,
,,,,,,,,,,,,,,,,,,,,,,,,,,images/exp1a_trial_26_colour2_distractors9_l.png,l,1,013,001,2021-04-20_14h47.49.917,searchDisc4,2020.2.10,MacIntel,60,,,space,0.332,1,1,0.68,,0,361,361,26,1,1a,26,2,9,
,,,,,,,,,,,,,,,,,,,,,,,,,,images/exp1b_trial_1_colour1_distractors4_r.png,r,2,013,001,2021-04-20_14h47.49.917,searchDisc4,2020.2.10,MacIntel,60,,,space,0.334,2,1,0.61,,0,362,362,115,1,1b,1,1,4,
,,,,,,,,,,,,,,,,,,,,,,,,,,images/exp1b_trial_84_colour2_distractors9_r.png,r,2,013,001,2021-04-20_14h47.49.917,searchDisc4,2020.2.10,MacIntel,60,,,space,0.27,2,1,0.743,,0,363,363,198,1,1b,84,2,9,
,,,,,,,,,,,,,,,,,,,,,,,,,,images/exp2a_trial_85_colour2_distractors19_r.png,r,2,013,001,2021-04-20_14h47.49.917,searchDisc4,2020.2.10,MacIntel,60,,,space,0.31,2,1,0.613,,0,364,364,313,1,2a,85,2,19,
,,,,,,,,,,,,,,,,,,,,,,,,,,images/exp2c_trial_50_colour3_distractors1_r.png,r,2,013,001,2021-04-20_14h47.49.917,searchDisc4,2020.2.10,MacIntel,60,,,space,0.3,2,1,0.481,,0,365,365,506,1,2c,50,3,1,
,,,,,,,,,,,,,,,,,,,,,,,,,,images/exp1a_trial_28_colour2_distractors31_l.png,l,1,013,001,2021-04-20_14h47.49.917,searchDisc4,2020.2.10,MacIntel,60,,,space,0.3,1,1,0.646,,0,366,366,28,1,1a,28,2,31,
,,,,,,,,,,,,,,,,,,,,,,,,,,images/exp1b_trial_10_colour2_distractors31_r.png,r,2,013,001,2021-04-20_14h47.49.917,searchDisc4,2020.2.10,MacIntel,60,,,space,0.366,2,1,0.645,,0,367,367,124,1,1b,10,2,31,
,,,,,,,,,,,,,,,,,,,,,,,,,,images/exp2b_trial_65_colour2_distractors19_l.png,l,1,013,001,2021-04-20_14h47.49.917,searchDisc4,2020.2.10,MacIntel,60,,,space,0.331,1,1,0.647,,0,368,368,407,1,2b,65,2,19,
,,,,,,,,,,,,,,,,,,,,,,,,,,images/exp2b_trial_48_colour2_distractors31_r.png,r,2,013,001,2021-04-20_14h47.49.917,searchDisc4,2020.2.10,MacIntel,60,,,space,0.369,2,1,0.609,,0,369,369,390,1,2b,48,2,31,
,,,,,,,,,,,,,,,,,,,,,,,,,,images/exp1a_trial_69_colour3_distractors4_l.png,l,1,013,001,2021-04-20_14h47.49.917,searchDisc4,2020.2.10,MacIntel,60,,,space,0.309,1,1,0.548,,0,370,370,69,1,1a,69,3,4,
,,,,,,,,,,,,,,,,,,,,,,,,,,images/exp2a_trial_24_colour2_distractors1_l.png,l,1,013,001,2021-04-20_14h47.49.917,searchDisc4,2020.2.10,MacIntel,60,,,space,0.342,1,1,0.51,,0,371,371,252,1,2a,24,2,1,
,,,,,,,,,,,,,,,,,,,,,,,,,,images/exp1b_trial_68_colour3_distractors1_l.png,l,1,013,001,2021-04-20_14h47.49.917,searchDisc4,2020.2.10,MacIntel,60,,,space,0.303,1,1,0.644,,0,372,372,182,1,1b,68,3,1,
,,,,,,,,,,,,,,,,,,,,,,,,,,images/exp2a_trial_3_colour1_distractors19_r.png,r,2,013,001,2021-04-20_14h47.49.917,searchDisc4,2020.2.10,MacIntel,60,,,space,0.47,2,1,0.644,,0,373,373,231,1,2a,3,1,19,
,,,,,,,,,,,,,,,,,,,,,,,,,,images/exp2c_trial_43_colour1_distractors43_r.png,r,2,013,001,2021-04-20_14h47.49.917,searchDisc4,2020.2.10,MacIntel,60,,,space,0.369,2,1,0.58,,0,374,374,499,1,2c,43,1,43,
,,,,,,,,,,,,,,,,,,,,,,,,,,images/exp2a_trial_13_colour3_distractors4_r.png,r,2,013,001,2021-04-20_14h47.49.917,searchDisc4,2020.2.10,MacIntel,60,,,space,0.407,2,1,0.58,,0,375,375,241,1,2a,13,3,4,
,,,,,,,,,,,,,,,,,,,,,,,,,,images/exp1b_trial_3_colour1_distractors19_r.png,r,2,013,001,2021-04-20_14h47.49.917,searchDisc4,2020.2.10,MacIntel,60,,,space,0.299,2,1,0.613,,0,376,376,117,1,1b,3,1,19,
,,,,,,,,,,,,,,,,,,,,,,,,,,images/exp2b_trial_55_colour3_distractors43_r.png,r,2,013,001,2021-04-20_14h47.49.917,searchDisc4,2020.2.10,MacIntel,60,,,space,0.304,2,1,0.776,,0,377,377,397,1,2b,55,3,43,
,,,,,,,,,,,,,,,,,,,,,,,,,,images/exp1a_trial_97_colour1_distractors19_l.png,l,1,013,001,2021-04-20_14h47.49.917,searchDisc4,2020.2.10,MacIntel,60,,,space,0.3,1,1,0.643,,0,378,378,97,1,1a,97,1,19,
,,,,,,,,,,,,,,,,,,,,,,,,,,images/exp2c_trial_20_colour1_distractors9_l.png,l,1,013,001,2021-04-20_14h47.49.917,searchDisc4,2020.2.10,MacIntel,60,,,space,0.277,1,1,0.478,,0,379,379,476,1,2c,20,1,9,
,,,,,,,,,,,,,,,,,,,,,,,,,,images/exp1a_trial_91_colour3_distractors19_r.png,r,2,013,001,2021-04-20_14h47.49.917,searchDisc4,2020.2.10,MacIntel,60,,,space,0.337,2,1,0.577,,0,380,380,91,1,1a,91,3,19,
,,,,,,,,,,,,,,,,,,,,,,,,,,images/exp1a_trial_14_colour3_distractors9_r.png,r,2,013,001,2021-04-20_14h47.49.917,searchDisc4,2020.2.10,MacIntel,60,,,space,0.304,2,1,0.553,,0,381,381,14,1,1a,14,3,9,
,,,,,,,,,,,,,,,,,,,,,,,,,,images/exp2a_trial_78_colour1_distractors9_r.png,r,2,013,001,2021-04-20_14h47.49.917,searchDisc4,2020.2.10,MacIntel,60,,,space,0.367,2,1,0.611,,0,382,382,306,1,2a,78,1,9,
,,,,,,,,,,,,,,,,,,,,,,,,,,images/exp1a_trial_27_colour2_distractors19_l.png,l,1,013,001,2021-04-20_14h47.49.917,searchDisc4,2020.2.10,MacIntel,60,,,space,0.367,1,1,0.676,,0,383,383,27,1,1a,27,2,19,
,,,,,,,,,,,,,,,,,,,,,,,,,,images/exp1b_trial_48_colour2_distractors31_r.png,r,2,013,001,2021-04-20_14h47.49.917,searchDisc4,2020.2.10,MacIntel,60,,,space,0.337,2,1,0.58,,0,384,384,162,1,1b,48,2,31,
,,,,,,,,,,,,,,,,,,,,,,,,,,images/exp1b_trial_33_colour3_distractors19_l.png,l,1,013,001,2021-04-20_14h47.49.917,searchDisc4,2020.2.10,MacIntel,60,,,space,0.267,1,1,1.116,,0,385,385,147,1,1b,33,3,19,
,,,,,,,,,,,,,,,,,,,,,,,,,,images/exp2b_trial_62_colour2_distractors1_l.png,l,1,013,001,2021-04-20_14h47.49.917,searchDisc4,2020.2.10,MacIntel,60,,,space,0.401,1,1,0.579,,0,386,386,404,1,2b,62,2,1,
,,,,,,,,,,,,,,,,,,,,,,,,,,images/exp2a_trial_93_colour3_distractors43_r.png,r,2,013,001,2021-04-20_14h47.49.917,searchDisc4,2020.2.10,MacIntel,60,,,space,0.333,2,1,0.642,,0,387,387,321,1,2a,93,3,43,
,,,,,,,,,,,,,,,,,,,,,,,,,,images/exp2b_trial_107_colour3_distractors4_l.png,l,1,013,001,2021-04-20_14h47.49.917,searchDisc4,2020.2.10,MacIntel,60,,,space,0.4,1,1,0.577,,0,388,388,449,1,2b,107,3,4,
,,,,,,,,,,,,,,,,,,,,,,,,,,images/exp1b_trial_54_colour3_distractors31_r.png,r,2,013,001,2021-04-20_14h47.49.917,searchDisc4,2020.2.10,MacIntel,60,,,space,0.566,2,1,0.945,,0,389,389,168,1,1b,54,3,31,
,,,,,,,,,,,,,,,,,,,,,,,,,,images/exp2b_trial_39_colour1_distractors4_r.png,r,2,013,001,2021-04-20_14h47.49.917,searchDisc4,2020.2.10,MacIntel,60,,,space,0.4,2,1,0.544,,0,390,390,381,1,2b,39,1,4,
,,,,,,,,,,,,,,,,,,,,,,,,,,images/exp2b_trial_87_colour2_distractors43_r.png,r,2,013,001,2021-04-20_14h47.49.917,searchDisc4,2020.2.10,MacIntel,60,,,space,0.335,2,1,0.644,,0,391,391,429,1,2b,87,2,43,
,,,,,,,,,,,,,,,,,,,,,,,,,,images/exp1a_trial_3_colour1_distractors19_r.png,r,2,013,001,2021-04-20_14h47.49.917,searchDisc4,2020.2.10,MacIntel,60,,,space,0.336,2,1,0.576,,0,392,392,3,1,1a,3,1,19,
,,,,,,,,,,,,,,,,,,,,,,,,,,images/exp2c_trial_60_colour1_distractors31_l.png,l,1,013,001,2021-04-20_14h47.49.917,searchDisc4,2020.2.10,MacIntel,60,,,space,0.333,1,1,0.611,,0,393,393,516,1,2c,60,1,31,
,,,,,,,,,,,,,,,,,,,,,,,,,,images/exp2c_trial_46_colour2_distractors9_r.png,r,2,013,001,2021-04-20_14h47.49.917,searchDisc4,2020.2.10,MacIntel,60,,,space,0.306,2,1,0.644,,0,394,394,502,1,2c,46,2,9,
,,,,,,,,,,,,,,,,,,,,,,,,,,images/exp1b_trial_25_colour2_distractors4_l.png,l,1,013,001,2021-04-20_14h47.49.917,searchDisc4,2020.2.10,MacIntel,60,,,space,0.335,1,1,0.779,,0,395,395,139,1,1b,25,2,4,
,,,,,,,,,,,,,,,,,,,,,,,,,,images/exp2b_trial_77_colour1_distractors4_r.png,r,2,013,001,2021-04-20_14h47.49.917,searchDisc4,2020.2.10,MacIntel,60,,,space,0.4,2,1,0.677,,0,396,396,419,1,2b,77,1,4,
,,,,,,,,,,,,,,,,,,,,,,,,,,images/exp1b_trial_20_colour1_distractors9_l.png,l,1,013,001,2021-04-20_14h47.49.917,searchDisc4,2020.2.10,MacIntel,60,,,space,0.337,1,1,0.609,,0,397,397,134,1,1b,20,1,9,
,,,,,,,,,,,,,,,,,,,,,,,,,,images/exp2b_trial_83_colour2_distractors4_r.png,r,2,013,001,2021-04-20_14h47.49.917,searchDisc4,2020.2.10,MacIntel,60,,,space,0.4,2,1,0.643,,0,398,398,425,1,2b,83,2,4,
,,,,,,,,,,,,,,,,,,,,,,,,,,images/exp2b_trial_17_colour3_distractors43_r.png,r,2,013,001,2021-04-20_14h47.49.917,searchDisc4,2020.2.10,MacIntel,60,,,space,0.4,2,1,0.577,,0,399,399,359,1,2b,17,3,43,
,,,,,,,,,,,,,,,,,,,,,,,,,,images/exp1a_trial_81_colour1_distractors43_r.png,r,2,013,001,2021-04-20_14h47.49.917,searchDisc4,2020.2.10,MacIntel,60,,,space,0.333,2,1,0.518,,0,400,400,81,1,1a,81,1,43,
,,,,,,,,,,,,,,,,,,,,,,,,,,images/exp2c_trial_81_colour1_distractors43_r.png,r,2,013,001,2021-04-20_14h47.49.917,searchDisc4,2020.2.10,MacIntel,60,,,space,0.403,2,1,0.51,,0,401,401,537,1,2c,81,1,43,
,,,,,,,,,,,,,,,,,,,,,,,,,,images/exp1b_trial_97_colour1_distractors19_l.png,l,1,013,001,2021-04-20_14h47.49.917,searchDisc4,2020.2.10,MacIntel,60,,,space,0.375,1,1,0.743,,0,402,402,211,1,1b,97,1,19,
,,,,,,,,,,,,,,,,,,,,,,,,,,images/exp2a_trial_23_colour1_distractors43_l.png,l,1,013,001,2021-04-20_14h47.49.917,searchDisc4,2020.2.10,MacIntel,60,,,space,0.366,1,1,0.584,,0,403,403,251,1,2a,23,1,43,
,,,,,,,,,,,,,,,,,,,,,,,,,,images/exp2b_trial_30_colour3_distractors1_l.png,l,1,013,001,2021-04-20_14h47.49.917,searchDisc4,2020.2.10,MacIntel,60,,,space,0.4,1,1,0.51,,0,404,404,372,1,2b,30,3,1,
,,,,,,,,,,,,,,,,,,,,,,,,,,images/exp1a_trial_108_colour3_distractors9_l.png,l,1,013,001,2021-04-20_14h47.49.917,searchDisc4,2020.2.10,MacIntel,60,,,space,0.404,1,1,0.544,,0,405,405,108,1,1a,108,3,9,
,,,,,,,,,,,,,,,,,,,,,,,,,,images/exp1b_trial_26_colour2_distractors9_l.png,l,1,013,001,2021-04-20_14h47.49.917,searchDisc4,2020.2.10,MacIntel,60,,,space,0.371,1,1,0.781,,0,406,406,140,1,1b,26,2,9,
,,,,,,,,,,,,,,,,,,,,,,,,,,images/exp2a_trial_31_colour3_distractors4_l.png,l,1,013,001,2021-04-20_14h47.49.917,searchDisc4,2020.2.10,MacIntel,60,,,space,0.4,1,1,0.543,,0,407,407,259,1,2a,31,3,4,
,,,,,,,,,,,,,,,,,,,,,,,,,,images/exp1a_trial_86_colour2_distractors31_r.png,r,2,013,001,2021-04-20_14h47.49.917,searchDisc4,2020.2.10,MacIntel,60,,,space,0.336,2,1,0.51,,0,408,408,86,1,1a,86,2,31,
,,,,,,,,,,,,,,,,,,,,,,,,,,images/exp1b_trial_61_colour1_distractors43_l.png,l,1,013,001,2021-04-20_14h47.49.917,searchDisc4,2020.2.10,MacIntel,60,,,space,0.4,1,1,0.68,,0,409,409,175,1,1b,61,1,43,
,,,,,,,,,,,,,,,,,,,,,,,,,,images/exp2c_trial_47_colour2_distractors19_r.png,r,2,013,001,2021-04-20_14h47.49.917,searchDisc4,2020.2.10,MacIntel,60,,,space,0.333,2,1,0.776,,0,410,410,503,1,2c,47,2,19,
,,,,,,,,,,,,,,,,,,,,,,,,,,images/exp1a_trial_30_colour3_distractors1_l.png,l,1,013,001,2021-04-20_14h47.49.917,searchDisc4,2020.2.10,MacIntel,60,,,space,0.368,1,1,0.617,,0,411,411,30,1,1a,30,3,1,
,,,,,,,,,,,,,,,,,,,,,,,,,,images/exp1b_trial_102_colour2_distractors9_l.png,l,1,013,001,2021-04-20_14h47.49.917,searchDisc4,2020.2.10,MacIntel,60,,,space,0.371,1,1,0.517,,0,412,412,216,1,1b,102,2,9,
,,,,,,,,,,,,,,,,,,,,,,,,,,images/exp1a_trial_71_colour3_distractors19_l.png,l,1,013,001,2021-04-20_14h47.49.917,searchDisc4,2020.2.10,MacIntel,60,,,space,0.4,1,1,0.61,,0,413,413,71,1,1a,71,3,19,
,,,,,,,,,,,,,,,,,,,,,,,,,,images/exp2c_trial_16_colour3_distractors31_r.png,r,2,013,001,2021-04-20_14h47.49.917,searchDisc4,2020.2.10,MacIntel,60,,,space,0.367,2,1,0.51,,0,414,414,472,1,2c,16,3,31,
,,,,,,,,,,,,,,,,,,,,,,,,,,images/exp2a_trial_74_colour0_distractors0_r.png,r,2,013,001,2021-04-20_14h47.49.917,searchDisc4,2020.2.10,MacIntel,60,,,space,0.433,2,1,0.481,,0,415,415,302,1,2a,74,0,0,
,,,,,,,,,,,,,,,,,,,,,,,,,,images/exp1b_trial_99_colour1_distractors43_l.png,l,1,013,001,2021-04-20_14h47.49.917,searchDisc4,2020.2.10,MacIntel,60,,,space,0.371,1,1,0.547,,0,416,416,213,1,1b,99,1,43,
,,,,,,,,,,,,,,,,,,,,,,,,,,images/exp1a_trial_55_colour3_distractors43_r.png,r,2,013,001,2021-04-20_14h47.49.917,searchDisc4,2020.2.10,MacIntel,60,,,space,0.533,2,1,0.61,,0,417,417,55,1,1a,55,3,43,
,,,,,,,,,,,,,,,,,,,,,,,,,,images/exp2c_trial_57_colour1_distractors4_l.png,l,1,013,001,2021-04-20_14h47.49.917,searchDisc4,2020.2.10,MacIntel,60,,,space,0.466,1,1,0.513,,0,418,418,513,1,2c,57,1,4,
,,,,,,,,,,,,,,,,,,,,,,,,,,images/exp2a_trial_98_colour1_distractors31_l.png,l,1,013,001,2021-04-20_14h47.49.917,searchDisc4,2020.2.10,MacIntel,60,,,space,0.51,1,1,0.644,space,0,419,419,326,1,2a,98,1,31,3.821
,,,,,,,,,,,,,,,,,,,,,,,,,,images/exp1b_trial_103_colour2_distractors19_l.png,l,1,013,001,2021-04-20_14h47.49.917,searchDisc4,2020.2.10,MacIntel,60,,,space,0.601,1,1,0.71,,0,420,420,217,1,1b,103,2,19,
,,,,,,,,,,,,,,,,,,,,,,,,,,images/exp2a_trial_12_colour3_distractors1_r.png,r,2,013,001,2021-04-20_14h47.49.917,searchDisc4,2020.2.10,MacIntel,60,,,space,0.393,2,1,0.643,,0,421,421,240,1,2a,12,3,1,
,,,,,,,,,,,,,,,,,,,,,,,,,,images/exp1a_trial_42_colour1_distractors31_r.png,r,2,013,001,2021-04-20_14h47.49.917,searchDisc4,2020.2.10,MacIntel,60,,,space,0.367,2,1,0.576,,0,422,422,42,1,1a,42,1,31,
,,,,,,,,,,,,,,,,,,,,,,,,,,images/exp2c_trial_65_colour2_distractors19_l.png,l,1,013,001,2021-04-20_14h47.49.917,searchDisc4,2020.2.10,MacIntel,60,,,space,0.303,1,1,0.576,,0,423,423,521,1,2c,65,2,19,
,,,,,,,,,,,,,,,,,,,,,,,,,,images/exp2b_trial_99_colour1_distractors43_l.png,l,1,013,001,2021-04-20_14h47.49.917,searchDisc4,2020.2.10,MacIntel,60,,,space,0.533,1,1,0.683,,0,424,424,441,1,2b,99,1,43,
,,,,,,,,,,,,,,,,,,,,,,,,,,images/exp1a_trial_62_colour2_distractors1_l.png,l,1,013,001,2021-04-20_14h47.49.917,searchDisc4,2020.2.10,MacIntel,60,,,space,0.334,1,1,0.51,,0,425,425,62,1,1a,62,2,1,
,,,,,,,,,,,,,,,,,,,,,,,,,,images/exp1a_trial_41_colour1_distractors19_r.png,r,2,013,001,2021-04-20_14h47.49.917,searchDisc4,2020.2.10,MacIntel,60,,,space,0.269,2,1,0.545,,0,426,426,41,1,1a,41,1,19,
,,,,,,,,,,,,,,,,,,,,,,,,,,images/exp1a_trial_9_colour2_distractors19_r.png,r,2,013,001,2021-04-20_14h47.49.917,searchDisc4,2020.2.10,MacIntel,60,,,space,0.238,2,1,0.543,,0,427,427,9,1,1a,9,2,19,
,,,,,,,,,,,,,,,,,,,,,,,,,,images/exp2a_trial_96_colour1_distractors9_l.png,l,1,013,001,2021-04-20_14h47.49.917,searchDisc4,2020.2.10,MacIntel,60,,,space,0.3,1,1,0.511,,0,428,428,324,1,2a,96,1,9,
,,,,,,,,,,,,,,,,,,,,,,,,,,images/exp2b_trial_6_colour2_distractors1_r.png,r,2,013,001,2021-04-20_14h47.49.917,searchDisc4,2020.2.10,MacIntel,60,,,space,0.335,2,1,0.513,,0,429,429,348,1,2b,6,2,1,
,,,,,,,,,,,,,,,,,,,,,,,,,,images/exp2b_trial_50_colour3_distractors1_r.png,r,2,013,001,2021-04-20_14h47.49.917,searchDisc4,2020.2.10,MacIntel,60,,,space,0.435,2,1,0.448,,0,430,430,392,1,2b,50,3,1,
,,,,,,,,,,,,,,,,,,,,,,,,,,images/exp2a_trial_113_colour0_distractors0_l.png,l,1,013,001,2021-04-20_14h47.49.917,searchDisc4,2020.2.10,MacIntel,60,,,space,0.308,1,1,0.512,,0,431,431,341,1,2a,113,0,0,
,,,,,,,,,,,,,,,,,,,,,,,,,,images/exp1a_trial_87_colour2_distractors43_r.png,r,2,013,001,2021-04-20_14h47.49.917,searchDisc4,2020.2.10,MacIntel,60,,,space,0.303,2,1,0.643,,0,432,432,87,1,1a,87,2,43,
,,,,,,,,,,,,,,,,,,,,,,,,,,images/exp2a_trial_1_colour1_distractors4_r.png,r,2,013,001,2021-04-20_14h47.49.917,searchDisc4,2020.2.10,MacIntel,60,,,space,0.301,2,1,0.477,,0,433,433,229,1,2a,1,1,4,
,,,,,,,,,,,,,,,,,,,,,,,,,,images/exp1a_trial_94_colour1_distractors1_l.png,l,1,013,001,2021-04-20_14h47.49.917,searchDisc4,2020.2.10,MacIntel,60,,,space,0.3,1,1,0.743,,0,434,434,94,1,1a,94,1,1,
,,,,,,,,,,,,,,,,,,,,,,,,,,images/exp2b_trial_68_colour3_distractors1_l.png,l,1,013,001,2021-04-20_14h47.49.917,searchDisc4,2020.2.10,MacIntel,60,,,space,0.3,1,1,0.576,,0,435,435,410,1,2b,68,3,1,
,,,,,,,,,,,,,,,,,,,,,,,,,,images/exp2b_trial_79_colour1_distractors19_r.png,r,2,013,001,2021-04-20_14h47.49.917,searchDisc4,2020.2.10,MacIntel,60,,,space,0.304,2,1,0.547,,0,436,436,421,1,2b,79,1,19,
,,,,,,,,,,,,,,,,,,,,,,,,,,images/exp2c_trial_10_colour2_distractors31_r.png,r,2,013,001,2021-04-20_14h47.49.917,searchDisc4,2020.2.10,MacIntel,60,,,space,0.334,2,1,0.543,,0,437,437,466,1,2c,10,2,31,
,,,,,,,,,,,,,,,,,,,,,,,,,,images/exp2b_trial_8_colour2_distractors9_r.png,r,2,013,001,2021-04-20_14h47.49.917,searchDisc4,2020.2.10,MacIntel,60,,,space,0.301,2,1,0.51,,0,438,438,350,1,2b,8,2,9,
,,,,,,,,,,,,,,,,,,,,,,,,,,images/exp2a_trial_101_colour2_distractors4_l.png,l,1,013,001,2021-04-20_14h47.49.917,searchDisc4,2020.2.10,MacIntel,60,,,space,0.299,1,1,0.514,,0,439,439,329,1,2a,101,2,4,
,,,,,,,,,,,,,,,,,,,,,,,,,,images/exp1b_trial_55_colour3_distractors43_r.png,r,2,013,001,2021-04-20_14h47.49.917,searchDisc4,2020.2.10,MacIntel,60,,,space,0.308,2,1,2.209,,0,440,440,169,1,1b,55,3,43,
,,,,,,,,,,,,,,,,,,,,,,,,,,images/exp2b_trial_67_colour2_distractors43_l.png,l,1,013,001,2021-04-20_14h47.49.917,searchDisc4,2020.2.10,MacIntel,60,,,space,0.271,1,1,0.544,,0,441,441,409,1,2b,67,2,43,
,,,,,,,,,,,,,,,,,,,,,,,,,,images/exp2c_trial_61_colour1_distractors43_l.png,l,1,013,001,2021-04-20_14h47.49.917,searchDisc4,2020.2.10,MacIntel,60,,,space,0.343,1,1,0.62,,0,442,442,517,1,2c,61,1,43,
,,,,,,,,,,,,,,,,,,,,,,,,,,images/exp2b_trial_40_colour1_distractors9_r.png,r,2,013,001,2021-04-20_14h47.49.917,searchDisc4,2020.2.10,MacIntel,60,,,space,0.334,2,1,0.584,,0,443,443,382,1,2b,40,1,9,
,,,,,,,,,,,,,,,,,,,,,,,,,,images/exp2b_trial_54_colour3_distractors31_r.png,r,2,013,001,2021-04-20_14h47.49.917,searchDisc4,2020.2.10,MacIntel,60,,,space,0.365,2,1,0.677,,0,444,444,396,1,2b,54,3,31,
,,,,,,,,,,,,,,,,,,,,,,,,,,images/exp1b_trial_111_colour3_distractors43_l.png,l,1,013,001,2021-04-20_14h47.49.917,searchDisc4,2020.2.10,MacIntel,60,,,space,0.3,1,1,0.619,,0,445,445,225,1,1b,111,3,43,
,,,,,,,,,,,,,,,,,,,,,,,,,,images/exp2c_trial_51_colour3_distractors4_r.png,r,2,013,001,2021-04-20_14h47.49.917,searchDisc4,2020.2.10,MacIntel,60,,,space,0.568,2,1,1.013,,0,446,446,507,1,2c,51,3,4,
,,,,,,,,,,,,,,,,,,,,,,,,,,images/exp1b_trial_73_colour3_distractors43_l.png,l,1,013,001,2021-04-20_14h47.49.917,searchDisc4,2020.2.10,MacIntel,60,,,space,0.3,1,1,0.811,,0,447,447,187,1,1b,73,3,43,
,,,,,,,,,,,,,,,,,,,,,,,,,,images/exp2b_trial_113_colour0_distractors0_l.png,l,1,013,001,2021-04-20_14h47.49.917,searchDisc4,2020.2.10,MacIntel,60,,,space,0.3,1,1,0.546,,0,448,448,455,1,2b,113,0,0,
,,,,,,,,,,,,,,,,,,,,,,,,,,images/exp2c_trial_89_colour3_distractors4_r.png,r,2,013,001,2021-04-20_14h47.49.917,searchDisc4,2020.2.10,MacIntel,60,,,space,0.334,2,1,0.575,,0,449,449,545,1,2c,89,3,4,
,,,,,,,,,,,,,,,,,,,,,,,,,,images/exp1a_trial_43_colour1_distractors43_r.png,r,2,013,001,2021-04-20_14h47.49.917,searchDisc4,2020.2.10,MacIntel,60,,,space,0.333,2,1,0.71,,0,450,450,43,1,1a,43,1,43,
,,,,,,,,,,,,,,,,,,,,,,,,,,images/exp2a_trial_82_colour2_distractors1_r.png,r,2,013,001,2021-04-20_14h47.49.917,searchDisc4,2020.2.10,MacIntel,60,,,space,0.334,2,1,0.545,,0,451,451,310,1,2a,82,2,1,
,,,,,,,,,,,,,,,,,,,,,,,,,,images/exp2c_trial_42_colour1_distractors31_r.png,r,2,013,001,2021-04-20_14h47.49.917,searchDisc4,2020.2.10,MacIntel,60,,,space,0.337,2,1,0.544,,0,452,452,498,1,2c,42,1,31,
,,,,,,,,,,,,,,,,,,,,,,,,,,images/exp1a_trial_8_colour2_distractors9_r.png,r,2,013,001,2021-04-20_14h47.49.917,searchDisc4,2020.2.10,MacIntel,60,,,space,0.3,2,1,0.481,,0,453,453,8,1,1a,8,2,9,
,,,,,,,,,,,,,,,,,,,,,,,,,,images/exp2a_trial_69_colour3_distractors4_l.png,l,1,013,001,2021-04-20_14h47.49.917,searchDisc4,2020.2.10,MacIntel,60,,,space,0.267,1,1,0.61,,0,454,454,297,1,2a,69,3,4,
,,,,,,,,,,,,,,,,,,,,,,,,,,images/exp2a_trial_90_colour3_distractors9_r.png,r,2,013,001,2021-04-20_14h47.49.917,searchDisc4,2020.2.10,MacIntel,60,,,space,0.3,2,1,0.612,,0,455,455,318,1,2a,90,3,9,
,,,,,,,,,,,,,,,,,,,,,,,,,,images/exp2a_trial_105_colour2_distractors43_l.png,l,1,013,001,2021-04-20_14h47.49.917,searchDisc4,2020.2.10,MacIntel,60,,,space,0.3,1,1,0.577,,0,456,456,333,1,2a,105,2,43,
,,,,,,,,,,,,,,,,,,,,,,,,,,images/exp2c_trial_13_colour3_distractors4_r.png,r,2,013,001,2021-04-20_14h47.49.917,searchDisc4,2020.2.10,MacIntel,60,,,space,0.309,2,1,0.61,,0,457,457,469,1,2c,13,3,4,
,,,,,,,,,,,,,,,,,,,,,,,,,,images/exp1b_trial_72_colour3_distractors31_l.png,l,1,013,001,2021-04-20_14h47.49.917,searchDisc4,2020.2.10,MacIntel,60,,,space,0.303,1,1,1.177,,0,458,458,186,1,1b,72,3,31,
,,,,,,,,,,,,,,,,,,,,,,,,,,images/exp1b_trial_50_colour3_distractors1_r.png,r,2,013,001,2021-04-20_14h47.49.917,searchDisc4,2020.2.10,MacIntel,60,,,space,0.333,2,1,0.815,,0,459,459,164,1,1b,50,3,1,
,,,,,,,,,,,,,,,,,,,,,,,,,,images/exp2c_trial_95_colour1_distractors4_l.png,l,1,013,001,2021-04-20_14h47.49.917,searchDisc4,2020.2.10,MacIntel,60,,,space,0.334,1,1,0.611,,0,460,460,551,1,2c,95,1,4,
,,,,,,,,,,,,,,,,,,,,,,,,,,images/exp2c_trial_6_colour2_distractors1_r.png,r,2,013,001,2021-04-20_14h47.49.917,searchDisc4,2020.2.10,MacIntel,60,,,space,0.333,2,1,0.576,,0,461,461,462,1,2c,6,2,1,
,,,,,,,,,,,,,,,,,,,,,,,,,,images/exp2b_trial_101_colour2_distractors4_l.png,l,1,013,001,2021-04-20_14h47.49.917,searchDisc4,2020.2.10,MacIntel,60,,,space,0.27,1,1,0.512,,0,462,462,443,1,2b,101,2,4,
,,,,,,,,,,,,,,,,,,,,,,,,,,images/exp1a_trial_21_colour1_distractors19_l.png,l,1,013,001,2021-04-20_14h47.49.917,searchDisc4,2020.2.10,MacIntel,60,,,space,0.336,1,1,0.586,,0,463,463,21,1,1a,21,1,19,
,,,,,,,,,,,,,,,,,,,,,,,,,,images/exp1b_trial_46_colour2_distractors9_r.png,r,2,013,001,2021-04-20_14h47.49.917,searchDisc4,2020.2.10,MacIntel,60,,,space,0.334,2,1,0.576,,0,464,464,160,1,1b,46,2,9,
,,,,,,,,,,,,,,,,,,,,,,,,,,images/exp2b_trial_4_colour1_distractors31_r.png,r,2,013,001,2021-04-20_14h47.49.917,searchDisc4,2020.2.10,MacIntel,60,,,space,0.332,2,1,0.576,,0,465,465,346,1,2b,4,1,31,
,,,,,,,,,,,,,,,,,,,,,,,,,,images/exp2c_trial_62_colour2_distractors1_l.png,l,1,013,001,2021-04-20_14h47.49.917,searchDisc4,2020.2.10,MacIntel,60,,,space,0.337,1,1,0.577,,0,466,466,518,1,2c,62,2,1,
,,,,,,,,,,,,,,,,,,,,,,,,,,images/exp1b_trial_66_colour2_distractors31_l.png,l,1,013,001,2021-04-20_14h47.49.917,searchDisc4,2020.2.10,MacIntel,60,,,space,0.365,1,1,0.646,,0,467,467,180,1,1b,66,2,31,
,,,,,,,,,,,,,,,,,,,,,,,,,,images/exp1b_trial_58_colour1_distractors9_l.png,l,1,013,001,2021-04-20_14h47.49.917,searchDisc4,2020.2.10,MacIntel,60,,,space,0.404,1,1,0.544,,0,468,468,172,1,1b,58,1,9,
,,,,,,,,,,,,,,,,,,,,,,,,,,images/exp2b_trial_26_colour2_distractors9_l.png,l,1,013,001,2021-04-20_14h47.49.917,searchDisc4,2020.2.10,MacIntel,60,,,space,0.402,1,1,0.548,,0,469,469,368,1,2b,26,2,9,
,,,,,,,,,,,,,,,,,,,,,,,,,,images/exp2b_trial_41_colour1_distractors19_r.png,r,2,013,001,2021-04-20_14h47.49.917,searchDisc4,2020.2.10,MacIntel,60,,,space,0.404,2,1,0.511,,0,470,470,383,1,2b,41,1,19,
,,,,,,,,,,,,,,,,,,,,,,,,,,images/exp2b_trial_102_colour2_distractors9_l.png,l,1,013,001,2021-04-20_14h47.49.917,searchDisc4,2020.2.10,MacIntel,60,,,space,0.4,1,1,0.579,,0,471,471,444,1,2b,102,2,9,
,,,,,,,,,,,,,,,,,,,,,,,,,,images/exp1b_trial_21_colour1_distractors19_l.png,l,1,013,001,2021-04-20_14h47.49.917,searchDisc4,2020.2.10,MacIntel,60,,,space,0.466,1,1,0.646,,0,472,472,135,1,1b,21,1,19,
,,,,,,,,,,,,,,,,,,,,,,,,,,images/exp2c_trial_23_colour1_distractors43_l.png,l,1,013,001,2021-04-20_14h47.49.917,searchDisc4,2020.2.10,MacIntel,60,,,space,0.404,1,1,0.512,,0,473,473,479,1,2c,23,1,43,
,,,,,,,,,,,,,,,,,,,,,,,,,,images/exp2c_trial_53_colour3_distractors19_r.png,r,2,013,001,2021-04-20_14h47.49.917,searchDisc4,2020.2.10,MacIntel,60,,,space,0.404,2,1,0.581,,0,474,474,509,1,2c,53,3,19,
,,,,,,,,,,,,,,,,,,,,,,,,,,images/exp2a_trial_18_colour1_distractors1_l.png,l,1,013,001,2021-04-20_14h47.49.917,searchDisc4,2020.2.10,MacIntel,60,,,space,0.37,1,1,0.543,,0,475,475,246,1,2a,18,1,1,
,,,,,,,,,,,,,,,,,,,,,,,,,,images/exp2b_trial_98_colour1_distractors31_l.png,l,1,013,001,2021-04-20_14h47.49.917,searchDisc4,2020.2.10,MacIntel,60,,,space,0.399,1,1,0.577,,0,476,476,440,1,2b,98,1,31,
,,,,,,,,,,,,,,,,,,,,,,,,,,images/exp2c_trial_72_colour3_distractors31_l.png,l,1,013,001,2021-04-20_14h47.49.917,searchDisc4,2020.2.10,MacIntel,60,,,space,0.374,1,1,0.509,,0,477,477,528,1,2c,72,3,31,
,,,,,,,,,,,,,,,,,,,,,,,,,,images/exp2a_trial_62_colour2_distractors1_l.png,l,1,013,001,2021-04-20_14h47.49.917,searchDisc4,2020.2.10,MacIntel,60,,,space,0.37,1,1,0.481,,0,478,478,290,1,2a,62,2,1,
,,,,,,,,,,,,,,,,,,,,,,,,,,images/exp2b_trial_35_colour3_distractors43_l.png,l,1,013,001,2021-04-20_14h47.49.917,searchDisc4,2020.2.10,MacIntel,60,,,space,0.434,1,1,0.484,,0,479,479,377,1,2b,35,3,43,
,,,,,,,,,,,,,,,,,,,,,,,,,,images/exp2a_trial_56_colour1_distractors1_l.png,l,1,013,001,2021-04-20_14h47.49.917,searchDisc4,2020.2.10,MacIntel,60,,,space,0.405,1,1,0.513,,0,480,480,284,1,2a,56,1,1,
,,,,,,,,,,,,,,,,,,,,,,,,,,images/exp2a_trial_52_colour3_distractors9_r.png,r,2,013,001,2021-04-20_14h47.49.917,searchDisc4,2020.2.10,MacIntel,60,,,space,0.4,2,1,0.476,,0,481,481,280,1,2a,52,3,9,
,,,,,,,,,,,,,,,,,,,,,,,,,,images/exp2a_trial_21_colour1_distractors19_l.png,l,1,013,001,2021-04-20_14h47.49.917,searchDisc4,2020.2.10,MacIntel,60,,,space,0.404,1,1,0.546,,0,482,482,249,1,2a,21,1,19,
