X Scale,Y Scale,key_resp_10.keys,key_resp_10.rt,key_resp_11.keys,key_resp_11.rt,key_resp_12.keys,key_resp_12.rt,key_resp_13.keys,key_resp_13.rt,key_resp_5.keys,key_resp_5.rt,key_resp_8.keys,key_resp_8.rt,key_resp_6.keys,key_resp_6.rt,key_resp_7.keys,key_resp_7.rt,key_resp_4.keys,key_resp_4.corr,trials_2.thisRepN,trials_2.thisTrialN,trials_2.thisN,trials_2.thisIndex,trials_2.ran,ImageFile,targ_side,correctAnswer,participant,session,date,expName,psychopyVersion,OS,frameRate,key_resp_4.rt,key_resp_3.keys,key_resp_3.rt,key_resp_9.keys,key_resp_9.rt,key_resp_2.keys,key_resp_2.corr,key_resp_2.rt,key_resp.keys,trials.thisRepN,trials.thisTrialN,trials.thisN,trials.thisIndex,trials.ran,exp,trial,colour,distNo,key_resp.rt
22.1,22.1,space,0.801045,space,357.4527,space,8.595725,space,9.825695,space,4.943245,space,18.79419,space,9.26799,space,11.982505,,0,0,0,0,11,1,Practice arrays/exp1a_trial_21_colour1_distractors19_l.png,l,1,014,001,2021-04-20_16h55.56.134,searchDisc4,2020.2.10,Win32,60,,,,,,,,,,,,,,,,,,,
,,,,,,,,,,,,,,,,space,1.205875,2,1,0,1,1,3,1,Practice arrays/exp1a_trial_7_colour2_distractors4_r.png,r,2,014,001,2021-04-20_16h55.56.134,searchDisc4,2020.2.10,Win32,60,1.29526,,,,,,,,,,,,,,,,,,
,,,,,,,,,,,,,,,,space,0.579045,2,1,0,2,2,4,1,Practice arrays/exp1a_trial_8_colour2_distractors9_r.png,r,2,014,001,2021-04-20_16h55.56.134,searchDisc4,2020.2.10,Win32,60,0.681095,,,,,,,,,,,,,,,,,,
,,,,,,,,,,,,,,,,space,0.45213,2,1,0,3,3,8,1,Practice arrays/exp1a_trial_16_colour3_distractors31_r.png,r,2,014,001,2021-04-20_16h55.56.134,searchDisc4,2020.2.10,Win32,60,0.98149,,,,,,,,,,,,,,,,,,
,,,,,,,,,,,,,,,,space,0.35334,1,1,0,4,4,9,1,Practice arrays/exp1a_trial_19_colour1_distractors4_l.png,l,1,014,001,2021-04-20_16h55.56.134,searchDisc4,2020.2.10,Win32,60,0.90848,,,,,,,,,,,,,,,,,,
,,,,,,,,,,,,,,,,space,0.58246,2,1,0,5,5,2,1,Practice arrays/exp1a_trial_5_colour1_distractors43_r.png,r,2,014,001,2021-04-20_16h55.56.134,searchDisc4,2020.2.10,Win32,60,1.197815,,,,,,,,,,,,,,,,,,
,,,,,,,,,,,,,,,,space,0.35723,2,1,0,6,6,1,1,Practice arrays/exp1a_trial_3_colour1_distractors19_r.png,r,2,014,001,2021-04-20_16h55.56.134,searchDisc4,2020.2.10,Win32,60,0.641415,,,,,,,,,,,,,,,,,,
,,,,,,,,,,,,,,,,space,0.38814,2,1,0,7,7,6,1,Practice arrays/exp1a_trial_12_colour3_distractors1_r.png,r,2,014,001,2021-04-20_16h55.56.134,searchDisc4,2020.2.10,Win32,60,0.89316,,,,,,,,,,,,,,,,,,
,,,,,,,,,,,,,,,,space,0.30961,1,1,0,8,8,14,1,Practice arrays/exp1a_trial_29_colour2_distractors43_l.png,l,1,014,001,2021-04-20_16h55.56.134,searchDisc4,2020.2.10,Win32,60,0.923215,,,,,,,,,,,,,,,,,,
,,,,,,,,,,,,,,,,space,0.26733,2,1,0,9,9,0,1,Practice arrays/exp1a_trial_0_colour1_distractors1_r.png,r,2,014,001,2021-04-20_16h55.56.134,searchDisc4,2020.2.10,Win32,60,0.578785,,,,,,,,,,,,,,,,,,
,,,,,,,,,,,,,,,,space,0.31065,1,1,0,10,10,12,1,Practice arrays/exp1a_trial_25_colour2_distractors4_l.png,l,1,014,001,2021-04-20_16h55.56.134,searchDisc4,2020.2.10,Win32,60,0.66765,,,,,,,,,,,,,,,,,,
,,,,,,,,,,,,,,,,space,0.133225,1,1,0,11,11,16,1,Practice arrays/exp1a_trial_33_colour3_distractors19_l.png,l,1,014,001,2021-04-20_16h55.56.134,searchDisc4,2020.2.10,Win32,60,0.706225,,,,,,,,,,,,,,,,,,
,,,,,,,,,,,,,,,,space,0.40596,2,1,0,12,12,7,1,Practice arrays/exp1a_trial_13_colour3_distractors4_r.png,r,2,014,001,2021-04-20_16h55.56.134,searchDisc4,2020.2.10,Win32,60,0.550415,,,,,,,,,,,,,,,,,,
,,,,,,,,,,,,,,,,space,0.29209,1,1,0,13,13,10,1,Practice arrays/exp1a_trial_20_colour1_distractors9_l.png,l,1,014,001,2021-04-20_16h55.56.134,searchDisc4,2020.2.10,Win32,60,0.759675,,,,,,,,,,,,,,,,,,
,,,,,,,,,,,,,,,,space,0.29273,1,1,0,14,14,19,1,Practice arrays/exp1a_trial_37_colour0_distractors0_l.png,l,1,014,001,2021-04-20_16h55.56.134,searchDisc4,2020.2.10,Win32,60,0.483265,,,,,,,,,,,,,,,,,,
,,,,,,,,,,,,,,,,space,0.38942,2,1,0,15,15,5,1,Practice arrays/exp1a_trial_10_colour2_distractors31_r.png,r,2,014,001,2021-04-20_16h55.56.134,searchDisc4,2020.2.10,Win32,60,0.665185,,,,,,,,,,,,,,,,,,
,,,,,,,,,,,,,,,,space,0.355845,1,1,0,16,16,15,1,Practice arrays/exp1a_trial_32_colour3_distractors9_l.png,l,1,014,001,2021-04-20_16h55.56.134,searchDisc4,2020.2.10,Win32,60,0.784065,,,,,,,,,,,,,,,,,,
,,,,,,,,,,,,,,,,space,0.356235,2,1,0,17,17,18,1,Practice arrays/exp1a_trial_36_colour0_distractors0_r.png,r,2,014,001,2021-04-20_16h55.56.134,searchDisc4,2020.2.10,Win32,60,0.652995,,,,,,,,,,,,,,,,,,
,,,,,,,,,,,,,,,,space,0.4271,1,1,0,18,18,13,1,Practice arrays/exp1a_trial_28_colour2_distractors31_l.png,l,1,014,001,2021-04-20_16h55.56.134,searchDisc4,2020.2.10,Win32,60,0.7868,,,,,,,,,,,,,,,,,,
,,,,,,,,,,,,,,,,space,0.297265,1,1,0,19,19,17,1,Practice arrays/exp1a_trial_35_colour3_distractors43_l.png,l,1,014,001,2021-04-20_16h55.56.134,searchDisc4,2020.2.10,Win32,60,0.72515,,,,,,,,,,,,,,,,,,
,,,,,,,,,,,,,,,,,,,,,,,,,images/exp2b_trial_94_colour1_distractors1_l.png,l,1,014,001,2021-04-20_16h55.56.134,searchDisc4,2020.2.10,Win32,60,,space,3.567795,space,0.65116,1,1,0.85015,,0,0,0,436,1,2b,94,1,1,
,,,,,,,,,,,,,,,,,,,,,,,,,images/exp1b_trial_1_colour1_distractors4_r.png,r,2,014,001,2021-04-20_16h55.56.134,searchDisc4,2020.2.10,Win32,60,,,,space,0.982055,2,1,0.72254,,0,1,1,115,1,1b,1,1,4,
,,,,,,,,,,,,,,,,,,,,,,,,,images/exp2a_trial_99_colour1_distractors43_l.png,l,1,014,001,2021-04-20_16h55.56.134,searchDisc4,2020.2.10,Win32,60,,,,space,0.773165,1,1,0.917075,,0,2,2,327,1,2a,99,1,43,
,,,,,,,,,,,,,,,,,,,,,,,,,images/exp2c_trial_60_colour1_distractors31_l.png,l,1,014,001,2021-04-20_16h55.56.134,searchDisc4,2020.2.10,Win32,60,,,,space,0.653765,1,1,0.756765,,0,3,3,516,1,2c,60,1,31,
,,,,,,,,,,,,,,,,,,,,,,,,,images/exp2a_trial_57_colour1_distractors4_l.png,l,1,014,001,2021-04-20_16h55.56.134,searchDisc4,2020.2.10,Win32,60,,,,space,0.584825,1,1,0.59332,,0,4,4,285,1,2a,57,1,4,
,,,,,,,,,,,,,,,,,,,,,,,,,images/exp1a_trial_91_colour3_distractors19_r.png,r,2,014,001,2021-04-20_16h55.56.134,searchDisc4,2020.2.10,Win32,60,,,,space,0.452525,2,1,0.630415,,0,5,5,91,1,1a,91,3,19,
,,,,,,,,,,,,,,,,,,,,,,,,,images/exp2b_trial_107_colour3_distractors4_l.png,l,1,014,001,2021-04-20_16h55.56.134,searchDisc4,2020.2.10,Win32,60,,,,space,0.39264,1,1,0.575075,,0,6,6,449,1,2b,107,3,4,
,,,,,,,,,,,,,,,,,,,,,,,,,images/exp2c_trial_100_colour2_distractors1_l.png,l,1,014,001,2021-04-20_16h55.56.134,searchDisc4,2020.2.10,Win32,60,,,,space,0.376635,1,1,0.565685,,0,7,7,556,1,2c,100,2,1,
,,,,,,,,,,,,,,,,,,,,,,,,,images/exp1a_trial_42_colour1_distractors31_r.png,r,2,014,001,2021-04-20_16h55.56.134,searchDisc4,2020.2.10,Win32,60,,,,space,0.323165,2,1,0.55859,,0,8,8,42,1,1a,42,1,31,
,,,,,,,,,,,,,,,,,,,,,,,,,images/exp1b_trial_26_colour2_distractors9_l.png,l,1,014,001,2021-04-20_16h55.56.134,searchDisc4,2020.2.10,Win32,60,,,,space,0.319495,1,1,0.67906,,0,9,9,140,1,1b,26,2,9,
,,,,,,,,,,,,,,,,,,,,,,,,,images/exp2a_trial_113_colour0_distractors0_l.png,l,1,014,001,2021-04-20_16h55.56.134,searchDisc4,2020.2.10,Win32,60,,,,space,0.27055,1,1,0.54792,,0,10,10,341,1,2a,113,0,0,
,,,,,,,,,,,,,,,,,,,,,,,,,images/exp2c_trial_23_colour1_distractors43_l.png,l,1,014,001,2021-04-20_16h55.56.134,searchDisc4,2020.2.10,Win32,60,,,,space,0.237345,1,1,0.691935,,0,11,11,479,1,2c,23,1,43,
,,,,,,,,,,,,,,,,,,,,,,,,,images/exp2b_trial_60_colour1_distractors31_l.png,l,1,014,001,2021-04-20_16h55.56.134,searchDisc4,2020.2.10,Win32,60,,,,space,0.228295,1,1,0.68172,,0,12,12,402,1,2b,60,1,31,
,,,,,,,,,,,,,,,,,,,,,,,,,images/exp2c_trial_19_colour1_distractors4_l.png,l,1,014,001,2021-04-20_16h55.56.134,searchDisc4,2020.2.10,Win32,60,,,,space,0.207815,1,1,0.50934,,0,13,13,475,1,2c,19,1,4,
,,,,,,,,,,,,,,,,,,,,,,,,,images/exp2c_trial_51_colour3_distractors4_r.png,r,2,014,001,2021-04-20_16h55.56.134,searchDisc4,2020.2.10,Win32,60,,,,space,0.25414,2,1,0.55518,,0,14,14,507,1,2c,51,3,4,
,,,,,,,,,,,,,,,,,,,,,,,,,images/exp1a_trial_106_colour3_distractors1_l.png,l,1,014,001,2021-04-20_16h55.56.134,searchDisc4,2020.2.10,Win32,60,,,,space,0.133075,1,1,0.6017,,0,15,15,106,1,1a,106,3,1,
,,,,,,,,,,,,,,,,,,,,,,,,,images/exp2a_trial_68_colour3_distractors1_l.png,l,1,014,001,2021-04-20_16h55.56.134,searchDisc4,2020.2.10,Win32,60,,,,space,0.09031,1,1,0.51709,,0,16,16,296,1,2a,68,3,1,
,,,,,,,,,,,,,,,,,,,,,,,,,images/exp2c_trial_62_colour2_distractors1_l.png,l,1,014,001,2021-04-20_16h55.56.134,searchDisc4,2020.2.10,Win32,60,,,,space,0.092525,1,1,0.53305,,0,17,17,518,1,2c,62,2,1,
,,,,,,,,,,,,,,,,,,,,,,,,,images/exp2a_trial_63_colour2_distractors4_l.png,l,1,014,001,2021-04-20_16h55.56.134,searchDisc4,2020.2.10,Win32,60,,,,space,0.059245,1,1,0.624915,,0,18,18,291,1,2a,63,2,4,
,,,,,,,,,,,,,,,,,,,,,,,,,images/exp2a_trial_23_colour1_distractors43_l.png,l,1,014,001,2021-04-20_16h55.56.134,searchDisc4,2020.2.10,Win32,60,,,,space,0.0743,1,1,0.72311,,0,19,19,251,1,2a,23,1,43,
,,,,,,,,,,,,,,,,,,,,,,,,,images/exp1a_trial_65_colour2_distractors19_l.png,l,1,014,001,2021-04-20_16h55.56.134,searchDisc4,2020.2.10,Win32,60,,,,space,0.08009,1,1,0.79591,,0,20,20,65,1,1a,65,2,19,
,,,,,,,,,,,,,,,,,,,,,,,,,images/exp2b_trial_23_colour1_distractors43_l.png,l,1,014,001,2021-04-20_16h55.56.134,searchDisc4,2020.2.10,Win32,60,,,,space,0.059635,1,1,0.553215,,0,21,21,365,1,2b,23,1,43,
,,,,,,,,,,,,,,,,,,,,,,,,,images/exp2b_trial_5_colour1_distractors43_r.png,r,2,014,001,2021-04-20_16h55.56.134,searchDisc4,2020.2.10,Win32,60,,,,space,0.051245,2,1,0.662625,,0,22,22,347,1,2b,5,1,43,
,,,,,,,,,,,,,,,,,,,,,,,,,images/exp2c_trial_24_colour2_distractors1_l.png,l,1,014,001,2021-04-20_16h55.56.134,searchDisc4,2020.2.10,Win32,60,,,,space,0.05117,1,1,0.729675,,0,23,23,480,1,2c,24,2,1,
,,,,,,,,,,,,,,,,,,,,,,,,,images/exp2c_trial_81_colour1_distractors43_r.png,r,2,014,001,2021-04-20_16h55.56.134,searchDisc4,2020.2.10,Win32,60,,,,space,0.0742,2,1,0.58164,,0,24,24,537,1,2c,81,1,43,
,,,,,,,,,,,,,,,,,,,,,,,,,images/exp1b_trial_57_colour1_distractors4_l.png,l,1,014,001,2021-04-20_16h55.56.134,searchDisc4,2020.2.10,Win32,60,,,,space,0.026515,1,1,0.752535,,0,25,25,171,1,1b,57,1,4,
,,,,,,,,,,,,,,,,,,,,,,,,,images/exp1a_trial_98_colour1_distractors31_l.png,l,1,014,001,2021-04-20_16h55.56.134,searchDisc4,2020.2.10,Win32,60,,,,space,0.049135,1,1,0.96843,,0,26,26,98,1,1a,98,1,31,
,,,,,,,,,,,,,,,,,,,,,,,,,images/exp2c_trial_101_colour2_distractors4_l.png,l,1,014,001,2021-04-20_16h55.56.134,searchDisc4,2020.2.10,Win32,60,,,,space,0.05052,1,1,0.667605,,0,27,27,557,1,2c,101,2,4,
,,,,,,,,,,,,,,,,,,,,,,,,,images/exp1b_trial_99_colour1_distractors43_l.png,l,1,014,001,2021-04-20_16h55.56.134,searchDisc4,2020.2.10,Win32,60,,,,space,0.00683,1,1,1.440375,,0,28,28,213,1,1b,99,1,43,
,,,,,,,,,,,,,,,,,,,,,,,,,images/exp2a_trial_69_colour3_distractors4_l.png,l,1,014,001,2021-04-20_16h55.56.134,searchDisc4,2020.2.10,Win32,60,,,,space,0.030375,1,1,0.73137,,0,29,29,297,1,2a,69,3,4,
,,,,,,,,,,,,,,,,,,,,,,,,,images/exp2a_trial_111_colour3_distractors43_l.png,l,1,014,001,2021-04-20_16h55.56.134,searchDisc4,2020.2.10,Win32,60,,,,space,0.007645,1,1,0.56777,,0,30,30,339,1,2a,111,3,43,
,,,,,,,,,,,,,,,,,,,,,,,,,images/exp2b_trial_3_colour1_distractors19_r.png,r,2,014,001,2021-04-20_16h55.56.134,searchDisc4,2020.2.10,Win32,60,,,,space,0.00625,2,1,0.69496,,0,31,31,345,1,2b,3,1,19,
,,,,,,,,,,,,,,,,,,,,,,,,,images/exp1a_trial_28_colour2_distractors31_l.png,l,1,014,001,2021-04-20_16h55.56.134,searchDisc4,2020.2.10,Win32,60,,,,space,0.939815,1,1,0.939525,,0,32,32,28,1,1a,28,2,31,
,,,,,,,,,,,,,,,,,,,,,,,,,images/exp2c_trial_47_colour2_distractors19_r.png,r,2,014,001,2021-04-20_16h55.56.134,searchDisc4,2020.2.10,Win32,60,,,,space,0.097225,2,1,1.057475,,0,33,33,503,1,2c,47,2,19,
,,,,,,,,,,,,,,,,,,,,,,,,,images/exp2b_trial_111_colour3_distractors43_l.png,l,1,014,001,2021-04-20_16h55.56.134,searchDisc4,2020.2.10,Win32,60,,,,space,0.097355,1,1,0.640775,,0,34,34,453,1,2b,111,3,43,
,,,,,,,,,,,,,,,,,,,,,,,,,images/exp1b_trial_55_colour3_distractors43_r.png,r,2,014,001,2021-04-20_16h55.56.134,searchDisc4,2020.2.10,Win32,60,,,,space,0.10077,2,1,3.88046,,0,35,35,169,1,1b,55,3,43,
,,,,,,,,,,,,,,,,,,,,,,,,,images/exp1a_trial_31_colour3_distractors4_l.png,l,1,014,001,2021-04-20_16h55.56.134,searchDisc4,2020.2.10,Win32,60,,,,space,0.082375,1,1,0.73044,,0,36,36,31,1,1a,31,3,4,
,,,,,,,,,,,,,,,,,,,,,,,,,images/exp1b_trial_106_colour3_distractors1_l.png,l,1,014,001,2021-04-20_16h55.56.134,searchDisc4,2020.2.10,Win32,60,,,,space,0.05188,1,1,0.801685,,0,37,37,220,1,1b,106,3,1,
,,,,,,,,,,,,,,,,,,,,,,,,,images/exp2c_trial_104_colour2_distractors31_l.png,l,1,014,001,2021-04-20_16h55.56.134,searchDisc4,2020.2.10,Win32,60,,,,space,0.011735,1,1,0.811175,,0,38,38,560,1,2c,104,2,31,
,,,,,,,,,,,,,,,,,,,,,,,,,images/exp1a_trial_25_colour2_distractors4_l.png,l,1,014,001,2021-04-20_16h55.56.134,searchDisc4,2020.2.10,Win32,60,,,,space,0.031875,1,1,0.53191,,0,39,39,25,1,1a,25,2,4,
,,,,,,,,,,,,,,,,,,,,,,,,,images/exp1b_trial_59_colour1_distractors19_l.png,l,1,014,001,2021-04-20_16h55.56.134,searchDisc4,2020.2.10,Win32,60,,,,space,0.001035,1,1,0.832435,,0,40,40,173,1,1b,59,1,19,
,,,,,,,,,,,,,,,,,,,,,,,,,images/exp2a_trial_72_colour3_distractors31_l.png,l,1,014,001,2021-04-20_16h55.56.134,searchDisc4,2020.2.10,Win32,60,,,,space,0.589015,1,1,0.69162,,0,41,41,300,1,2a,72,3,31,
,,,,,,,,,,,,,,,,,,,,,,,,,images/exp2c_trial_61_colour1_distractors43_l.png,l,1,014,001,2021-04-20_16h55.56.134,searchDisc4,2020.2.10,Win32,60,,,,space,0.89428,1,1,0.73852,,0,42,42,517,1,2c,61,1,43,
,,,,,,,,,,,,,,,,,,,,,,,,,images/exp1a_trial_90_colour3_distractors9_r.png,r,2,014,001,2021-04-20_16h55.56.134,searchDisc4,2020.2.10,Win32,60,,,,space,0.42005,2,1,1.08256,,0,43,43,90,1,1a,90,3,9,
,,,,,,,,,,,,,,,,,,,,,,,,,images/exp2c_trial_65_colour2_distractors19_l.png,l,1,014,001,2021-04-20_16h55.56.134,searchDisc4,2020.2.10,Win32,60,,,,space,0.144715,1,1,0.51626,,0,44,44,521,1,2c,65,2,19,
,,,,,,,,,,,,,,,,,,,,,,,,,images/exp1a_trial_108_colour3_distractors9_l.png,l,1,014,001,2021-04-20_16h55.56.134,searchDisc4,2020.2.10,Win32,60,,,,space,0.28544,1,1,0.64048,,0,45,45,108,1,1a,108,3,9,
,,,,,,,,,,,,,,,,,,,,,,,,,images/exp2a_trial_83_colour2_distractors4_r.png,r,2,014,001,2021-04-20_16h55.56.134,searchDisc4,2020.2.10,Win32,60,,,,space,0.353865,2,1,0.72317,,0,46,46,311,1,2a,83,2,4,
,,,,,,,,,,,,,,,,,,,,,,,,,images/exp1b_trial_47_colour2_distractors19_r.png,r,2,014,001,2021-04-20_16h55.56.134,searchDisc4,2020.2.10,Win32,60,,,,space,0.25172,2,1,0.86501,,0,47,47,161,1,1b,47,2,19,
,,,,,,,,,,,,,,,,,,,,,,,,,images/exp2b_trial_46_colour2_distractors9_r.png,r,2,014,001,2021-04-20_16h55.56.134,searchDisc4,2020.2.10,Win32,60,,,,space,0.158895,2,1,0.57298,,0,48,48,388,1,2b,46,2,9,
,,,,,,,,,,,,,,,,,,,,,,,,,images/exp2b_trial_59_colour1_distractors19_l.png,l,1,014,001,2021-04-20_16h55.56.134,searchDisc4,2020.2.10,Win32,60,,,,space,0.241765,1,1,0.616585,,0,49,49,401,1,2b,59,1,19,
,,,,,,,,,,,,,,,,,,,,,,,,,images/exp2a_trial_67_colour2_distractors43_l.png,l,1,014,001,2021-04-20_16h55.56.134,searchDisc4,2020.2.10,Win32,60,,,,space,0.128735,1,1,0.661445,,0,50,50,295,1,2a,67,2,43,
,,,,,,,,,,,,,,,,,,,,,,,,,images/exp2b_trial_82_colour2_distractors1_r.png,r,2,014,001,2021-04-20_16h55.56.134,searchDisc4,2020.2.10,Win32,60,,,,space,0.13659,2,1,0.550365,,0,51,51,424,1,2b,82,2,1,
,,,,,,,,,,,,,,,,,,,,,,,,,images/exp1b_trial_88_colour3_distractors1_r.png,r,2,014,001,2021-04-20_16h55.56.134,searchDisc4,2020.2.10,Win32,60,,,,space,0.133,2,1,0.74206,,0,52,52,202,1,1b,88,3,1,
,,,,,,,,,,,,,,,,,,,,,,,,,images/exp2a_trial_25_colour2_distractors4_l.png,l,1,014,001,2021-04-20_16h55.56.134,searchDisc4,2020.2.10,Win32,60,,,,space,0.14795,1,1,0.48545,,0,53,53,253,1,2a,25,2,4,
,,,,,,,,,,,,,,,,,,,,,,,,,images/exp1a_trial_39_colour1_distractors4_r.png,r,2,014,001,2021-04-20_16h55.56.134,searchDisc4,2020.2.10,Win32,60,,,,space,0.15171,2,1,1.143395,,0,54,54,39,1,1a,39,1,4,
,,,,,,,,,,,,,,,,,,,,,,,,,images/exp2a_trial_46_colour2_distractors9_r.png,r,2,014,001,2021-04-20_16h55.56.134,searchDisc4,2020.2.10,Win32,60,,,,space,0.100185,2,1,0.677355,,0,55,55,274,1,2a,46,2,9,
,,,,,,,,,,,,,,,,,,,,,,,,,images/exp1b_trial_82_colour2_distractors1_r.png,r,2,014,001,2021-04-20_16h55.56.134,searchDisc4,2020.2.10,Win32,60,,,,space,0.14215,2,1,0.680995,,0,56,56,196,1,1b,82,2,1,
,,,,,,,,,,,,,,,,,,,,,,,,,images/exp2c_trial_35_colour3_distractors43_l.png,l,1,014,001,2021-04-20_16h55.56.134,searchDisc4,2020.2.10,Win32,60,,,,space,0.114405,1,1,0.63142,,0,57,57,491,1,2c,35,3,43,
,,,,,,,,,,,,,,,,,,,,,,,,,images/exp1a_trial_81_colour1_distractors43_r.png,r,2,014,001,2021-04-20_16h55.56.134,searchDisc4,2020.2.10,Win32,60,,,,space,0.11775,2,1,0.759335,,0,58,58,81,1,1a,81,1,43,
,,,,,,,,,,,,,,,,,,,,,,,,,images/exp2a_trial_90_colour3_distractors9_r.png,r,2,014,001,2021-04-20_16h55.56.134,searchDisc4,2020.2.10,Win32,60,,,,space,0.088515,2,1,0.931485,space,0,59,59,318,1,2a,90,3,9,0.08534
,,,,,,,,,,,,,,,,,,,,,,,,,images/exp2c_trial_92_colour3_distractors31_r.png,r,2,014,001,2021-04-20_16h55.56.134,searchDisc4,2020.2.10,Win32,60,,,,space,1.47594,2,1,0.792965,,0,60,60,548,1,2c,92,3,31,
,,,,,,,,,,,,,,,,,,,,,,,,,images/exp2b_trial_102_colour2_distractors9_l.png,l,1,014,001,2021-04-20_16h55.56.134,searchDisc4,2020.2.10,Win32,60,,,,space,0.208535,1,1,0.7326,,0,61,61,444,1,2b,102,2,9,
,,,,,,,,,,,,,,,,,,,,,,,,,images/exp1a_trial_60_colour1_distractors31_l.png,l,1,014,001,2021-04-20_16h55.56.134,searchDisc4,2020.2.10,Win32,60,,,,space,0.134835,1,1,0.559985,,0,62,62,60,1,1a,60,1,31,
,,,,,,,,,,,,,,,,,,,,,,,,,images/exp2a_trial_12_colour3_distractors1_r.png,r,2,014,001,2021-04-20_16h55.56.134,searchDisc4,2020.2.10,Win32,60,,,,space,0.126925,2,1,0.52091,,0,63,63,240,1,2a,12,3,1,
,,,,,,,,,,,,,,,,,,,,,,,,,images/exp1a_trial_77_colour1_distractors4_r.png,r,2,014,001,2021-04-20_16h55.56.134,searchDisc4,2020.2.10,Win32,60,,,,space,0.131875,2,1,0.523705,,0,64,64,77,1,1a,77,1,4,
,,,,,,,,,,,,,,,,,,,,,,,,,images/exp1b_trial_61_colour1_distractors43_l.png,l,1,014,001,2021-04-20_16h55.56.134,searchDisc4,2020.2.10,Win32,60,,,,space,0.116655,1,1,0.813145,,0,65,65,175,1,1b,61,1,43,
,,,,,,,,,,,,,,,,,,,,,,,,,images/exp1b_trial_17_colour3_distractors43_r.png,r,2,014,001,2021-04-20_16h55.56.134,searchDisc4,2020.2.10,Win32,60,,,,space,0.07321,2,1,2.05233,,0,66,66,131,1,1b,17,3,43,
,,,,,,,,,,,,,,,,,,,,,,,,,images/exp2c_trial_82_colour2_distractors1_r.png,r,2,014,001,2021-04-20_16h55.56.134,searchDisc4,2020.2.10,Win32,60,,,,space,0.08873,2,1,0.67788,,0,67,67,538,1,2c,82,2,1,
,,,,,,,,,,,,,,,,,,,,,,,,,images/exp2b_trial_33_colour3_distractors19_l.png,l,1,014,001,2021-04-20_16h55.56.134,searchDisc4,2020.2.10,Win32,60,,,,space,0.10228,1,1,0.601845,,0,68,68,375,1,2b,33,3,19,
,,,,,,,,,,,,,,,,,,,,,,,,,images/exp2a_trial_33_colour3_distractors19_l.png,l,1,014,001,2021-04-20_16h55.56.134,searchDisc4,2020.2.10,Win32,60,,,,space,0.08352,1,1,0.53145,,0,69,69,261,1,2a,33,3,19,
,,,,,,,,,,,,,,,,,,,,,,,,,images/exp2c_trial_67_colour2_distractors43_l.png,l,1,014,001,2021-04-20_16h55.56.134,searchDisc4,2020.2.10,Win32,60,,,,space,0.166875,1,1,0.79574,,0,70,70,523,1,2c,67,2,43,
,,,,,,,,,,,,,,,,,,,,,,,,,images/exp2c_trial_3_colour1_distractors19_r.png,r,2,014,001,2021-04-20_16h55.56.134,searchDisc4,2020.2.10,Win32,60,,,,space,0.126595,2,1,0.564225,,0,71,71,459,1,2c,3,1,19,
,,,,,,,,,,,,,,,,,,,,,,,,,images/exp1a_trial_35_colour3_distractors43_l.png,l,1,014,001,2021-04-20_16h55.56.134,searchDisc4,2020.2.10,Win32,60,,,,space,0.124515,1,1,0.6773,,0,72,72,35,1,1a,35,3,43,
,,,,,,,,,,,,,,,,,,,,,,,,,images/exp2a_trial_11_colour2_distractors43_r.png,r,2,014,001,2021-04-20_16h55.56.134,searchDisc4,2020.2.10,Win32,60,,,,space,0.09762,2,1,0.560205,,0,73,73,239,1,2a,11,2,43,
,,,,,,,,,,,,,,,,,,,,,,,,,images/exp1b_trial_81_colour1_distractors43_r.png,r,2,014,001,2021-04-20_16h55.56.134,searchDisc4,2020.2.10,Win32,60,,,,space,0.117305,2,1,0.86271,,0,74,74,195,1,1b,81,1,43,
,,,,,,,,,,,,,,,,,,,,,,,,,images/exp1b_trial_105_colour2_distractors43_l.png,l,1,014,001,2021-04-20_16h55.56.134,searchDisc4,2020.2.10,Win32,60,,,,space,0.11104,1,1,0.65349,,0,75,75,219,1,1b,105,2,43,
,,,,,,,,,,,,,,,,,,,,,,,,,images/exp2c_trial_87_colour2_distractors43_r.png,r,2,014,001,2021-04-20_16h55.56.134,searchDisc4,2020.2.10,Win32,60,,,,space,0.0987,2,1,0.750055,,0,76,76,543,1,2c,87,2,43,
,,,,,,,,,,,,,,,,,,,,,,,,,images/exp2a_trial_32_colour3_distractors9_l.png,l,1,014,001,2021-04-20_16h55.56.134,searchDisc4,2020.2.10,Win32,60,,,,space,0.082525,1,1,0.876555,,0,77,77,260,1,2a,32,3,9,
,,,,,,,,,,,,,,,,,,,,,,,,,images/exp2a_trial_110_colour3_distractors31_l.png,l,1,014,001,2021-04-20_16h55.56.134,searchDisc4,2020.2.10,Win32,60,,,,space,0.164315,1,1,0.616635,,0,78,78,338,1,2a,110,3,31,
,,,,,,,,,,,,,,,,,,,,,,,,,images/exp2c_trial_83_colour2_distractors4_r.png,r,2,014,001,2021-04-20_16h55.56.134,searchDisc4,2020.2.10,Win32,60,,,,space,0.11468,2,1,0.5472,,0,79,79,539,1,2c,83,2,4,
,,,,,,,,,,,,,,,,,,,,,,,,,images/exp2b_trial_15_colour3_distractors19_r.png,r,2,014,001,2021-04-20_16h55.56.134,searchDisc4,2020.2.10,Win32,60,,,,space,0.17036,2,1,0.80261,,0,80,80,357,1,2b,15,3,19,
,,,,,,,,,,,,,,,,,,,,,,,,,images/exp2c_trial_49_colour2_distractors43_r.png,r,2,014,001,2021-04-20_16h55.56.134,searchDisc4,2020.2.10,Win32,60,,,,space,0.084835,2,1,0.566095,,0,81,81,505,1,2c,49,2,43,
,,,,,,,,,,,,,,,,,,,,,,,,,images/exp2c_trial_21_colour1_distractors19_l.png,l,1,014,001,2021-04-20_16h55.56.134,searchDisc4,2020.2.10,Win32,60,,,,space,0.06549,1,1,0.64714,,0,82,82,477,1,2c,21,1,19,
,,,,,,,,,,,,,,,,,,,,,,,,,images/exp2b_trial_40_colour1_distractors9_r.png,r,2,014,001,2021-04-20_16h55.56.134,searchDisc4,2020.2.10,Win32,60,,,,space,0.07121,2,1,0.54974,,0,83,83,382,1,2b,40,1,9,
,,,,,,,,,,,,,,,,,,,,,,,,,images/exp1a_trial_33_colour3_distractors19_l.png,l,1,014,001,2021-04-20_16h55.56.134,searchDisc4,2020.2.10,Win32,60,,,,space,0.10369,1,1,0.509675,,0,84,84,33,1,1a,33,3,19,
,,,,,,,,,,,,,,,,,,,,,,,,,images/exp2b_trial_96_colour1_distractors9_l.png,l,1,014,001,2021-04-20_16h55.56.134,searchDisc4,2020.2.10,Win32,60,,,,space,0.11483,1,1,0.576085,,0,85,85,438,1,2b,96,1,9,
,,,,,,,,,,,,,,,,,,,,,,,,,images/exp1b_trial_60_colour1_distractors31_l.png,l,1,014,001,2021-04-20_16h55.56.134,searchDisc4,2020.2.10,Win32,60,,,,space,0.11748,1,1,0.80415,,0,86,86,174,1,1b,60,1,31,
,,,,,,,,,,,,,,,,,,,,,,,,,images/exp1a_trial_50_colour3_distractors1_r.png,r,2,014,001,2021-04-20_16h55.56.134,searchDisc4,2020.2.10,Win32,60,,,,space,0.09106,2,1,0.86041,,0,87,87,50,1,1a,50,3,1,
,,,,,,,,,,,,,,,,,,,,,,,,,images/exp1b_trial_52_colour3_distractors9_r.png,r,2,014,001,2021-04-20_16h55.56.134,searchDisc4,2020.2.10,Win32,60,,,,space,0.047065,2,1,0.991915,,0,88,88,166,1,1b,52,3,9,
,,,,,,,,,,,,,,,,,,,,,,,,,images/exp1a_trial_59_colour1_distractors19_l.png,l,1,014,001,2021-04-20_16h55.56.134,searchDisc4,2020.2.10,Win32,60,,,,space,0.08134,1,1,0.487025,,0,89,89,59,1,1a,59,1,19,
,,,,,,,,,,,,,,,,,,,,,,,,,images/exp2a_trial_93_colour3_distractors43_r.png,r,2,014,001,2021-04-20_16h55.56.134,searchDisc4,2020.2.10,Win32,60,,,,space,0.11727,2,1,0.61968,,0,90,90,321,1,2a,93,3,43,
,,,,,,,,,,,,,,,,,,,,,,,,,images/exp2b_trial_61_colour1_distractors43_l.png,l,1,014,001,2021-04-20_16h55.56.134,searchDisc4,2020.2.10,Win32,60,,,,space,0.07263,1,1,0.70317,,0,91,91,403,1,2b,61,1,43,
,,,,,,,,,,,,,,,,,,,,,,,,,images/exp1b_trial_8_colour2_distractors9_r.png,r,2,014,001,2021-04-20_16h55.56.134,searchDisc4,2020.2.10,Win32,60,,,,space,0.08752,2,1,0.715935,,0,92,92,122,1,1b,8,2,9,
,,,,,,,,,,,,,,,,,,,,,,,,,images/exp1a_trial_12_colour3_distractors1_r.png,r,2,014,001,2021-04-20_16h55.56.134,searchDisc4,2020.2.10,Win32,60,,,,space,0.060585,2,1,0.554645,,0,93,93,12,1,1a,12,3,1,
,,,,,,,,,,,,,,,,,,,,,,,,,images/exp2a_trial_56_colour1_distractors1_l.png,l,1,014,001,2021-04-20_16h55.56.134,searchDisc4,2020.2.10,Win32,60,,,,space,0.10764,1,1,0.54119,,0,94,94,284,1,2a,56,1,1,
,,,,,,,,,,,,,,,,,,,,,,,,,images/exp1a_trial_82_colour2_distractors1_r.png,r,2,014,001,2021-04-20_16h55.56.134,searchDisc4,2020.2.10,Win32,60,,,,space,0.101005,2,1,0.4817,,0,95,95,82,1,1a,82,2,1,
,,,,,,,,,,,,,,,,,,,,,,,,,images/exp1a_trial_111_colour3_distractors43_l.png,l,1,014,001,2021-04-20_16h55.56.134,searchDisc4,2020.2.10,Win32,60,,,,space,0.10642,1,1,0.56744,,0,96,96,111,1,1a,111,3,43,
,,,,,,,,,,,,,,,,,,,,,,,,,images/exp2a_trial_108_colour3_distractors9_l.png,l,1,014,001,2021-04-20_16h55.56.134,searchDisc4,2020.2.10,Win32,60,,,,space,0.13989,1,1,0.602915,,0,97,97,336,1,2a,108,3,9,
,,,,,,,,,,,,,,,,,,,,,,,,,images/exp1b_trial_63_colour2_distractors4_l.png,l,1,014,001,2021-04-20_16h55.56.134,searchDisc4,2020.2.10,Win32,60,,,,space,0.140875,1,1,0.924145,,0,98,98,177,1,1b,63,2,4,
,,,,,,,,,,,,,,,,,,,,,,,,,images/exp1a_trial_3_colour1_distractors19_r.png,r,2,014,001,2021-04-20_16h55.56.134,searchDisc4,2020.2.10,Win32,60,,,,space,0.07002,2,1,0.836115,,0,99,99,3,1,1a,3,1,19,
,,,,,,,,,,,,,,,,,,,,,,,,,images/exp2a_trial_6_colour2_distractors1_r.png,r,2,014,001,2021-04-20_16h55.56.134,searchDisc4,2020.2.10,Win32,60,,,,space,0.10445,2,1,0.54353,,0,100,100,234,1,2a,6,2,1,
,,,,,,,,,,,,,,,,,,,,,,,,,images/exp1b_trial_53_colour3_distractors19_r.png,r,2,014,001,2021-04-20_16h55.56.134,searchDisc4,2020.2.10,Win32,60,,,,space,0.050665,2,1,2.821,,0,101,101,167,1,1b,53,3,19,
,,,,,,,,,,,,,,,,,,,,,,,,,images/exp2c_trial_106_colour3_distractors1_l.png,l,1,014,001,2021-04-20_16h55.56.134,searchDisc4,2020.2.10,Win32,60,,,,space,0.072005,1,1,0.95977,,0,102,102,562,1,2c,106,3,1,
,,,,,,,,,,,,,,,,,,,,,,,,,images/exp2b_trial_29_colour2_distractors43_l.png,l,1,014,001,2021-04-20_16h55.56.134,searchDisc4,2020.2.10,Win32,60,,,,space,0.073345,1,1,0.62264,,0,103,103,371,1,2b,29,2,43,
,,,,,,,,,,,,,,,,,,,,,,,,,images/exp1b_trial_75_colour0_distractors0_l.png,l,1,014,001,2021-04-20_16h55.56.134,searchDisc4,2020.2.10,Win32,60,,,,space,0.042935,1,1,0.86688,,0,104,104,189,1,1b,75,0,0,
,,,,,,,,,,,,,,,,,,,,,,,,,images/exp2c_trial_55_colour3_distractors43_r.png,r,2,014,001,2021-04-20_16h55.56.134,searchDisc4,2020.2.10,Win32,60,,,,space,0.083715,2,1,0.64758,,0,105,105,511,1,2c,55,3,43,
,,,,,,,,,,,,,,,,,,,,,,,,,images/exp1a_trial_71_colour3_distractors19_l.png,l,1,014,001,2021-04-20_16h55.56.134,searchDisc4,2020.2.10,Win32,60,,,,space,0.09271,1,1,0.711325,,0,106,106,71,1,1a,71,3,19,
,,,,,,,,,,,,,,,,,,,,,,,,,images/exp2b_trial_85_colour2_distractors19_r.png,r,2,014,001,2021-04-20_16h55.56.134,searchDisc4,2020.2.10,Win32,60,,,,space,0.07113,2,1,0.470345,,0,107,107,427,1,2b,85,2,19,
,,,,,,,,,,,,,,,,,,,,,,,,,images/exp2c_trial_96_colour1_distractors9_l.png,l,1,014,001,2021-04-20_16h55.56.134,searchDisc4,2020.2.10,Win32,60,,,,space,0.115625,1,1,0.61349,,0,108,108,552,1,2c,96,1,9,
,,,,,,,,,,,,,,,,,,,,,,,,,images/exp2a_trial_58_colour1_distractors9_l.png,l,1,014,001,2021-04-20_16h55.56.134,searchDisc4,2020.2.10,Win32,60,,,,space,0.089545,2,0,0.513755,,0,109,109,286,1,2a,58,1,9,
,,,,,,,,,,,,,,,,,,,,,,,,,images/exp2c_trial_99_colour1_distractors43_l.png,l,1,014,001,2021-04-20_16h55.56.134,searchDisc4,2020.2.10,Win32,60,,,,space,0.91934,1,1,0.57529,,0,110,110,555,1,2c,99,1,43,
,,,,,,,,,,,,,,,,,,,,,,,,,images/exp1a_trial_55_colour3_distractors43_r.png,r,2,014,001,2021-04-20_16h55.56.134,searchDisc4,2020.2.10,Win32,60,,,,space,0.07115,2,1,0.60101,,0,111,111,55,1,1a,55,3,43,
,,,,,,,,,,,,,,,,,,,,,,,,,images/exp2a_trial_104_colour2_distractors31_l.png,l,1,014,001,2021-04-20_16h55.56.134,searchDisc4,2020.2.10,Win32,60,,,,space,0.081735,1,1,0.592085,,0,112,112,332,1,2a,104,2,31,
,,,,,,,,,,,,,,,,,,,,,,,,,images/exp2a_trial_20_colour1_distractors9_l.png,l,1,014,001,2021-04-20_16h55.56.134,searchDisc4,2020.2.10,Win32,60,,,,space,0.07679,1,1,0.737245,,0,113,113,248,1,2a,20,1,9,
,,,,,,,,,,,,,,,,,,,,,,,,,images/exp2a_trial_60_colour1_distractors31_l.png,l,1,014,001,2021-04-20_16h55.56.134,searchDisc4,2020.2.10,Win32,60,,,,space,0.158565,1,1,0.659385,,0,114,114,288,1,2a,60,1,31,
,,,,,,,,,,,,,,,,,,,,,,,,,images/exp2b_trial_105_colour2_distractors43_l.png,l,1,014,001,2021-04-20_16h55.56.134,searchDisc4,2020.2.10,Win32,60,,,,space,0.219,1,1,0.64063,,0,115,115,447,1,2b,105,2,43,
,,,,,,,,,,,,,,,,,,,,,,,,,images/exp1a_trial_43_colour1_distractors43_r.png,r,2,014,001,2021-04-20_16h55.56.134,searchDisc4,2020.2.10,Win32,60,,,,space,0.13445,2,1,0.885615,,0,116,116,43,1,1a,43,1,43,
,,,,,,,,,,,,,,,,,,,,,,,,,images/exp1b_trial_46_colour2_distractors9_r.png,r,2,014,001,2021-04-20_16h55.56.134,searchDisc4,2020.2.10,Win32,60,,,,space,0.09799,2,1,0.74124,,0,117,117,160,1,1b,46,2,9,
,,,,,,,,,,,,,,,,,,,,,,,,,images/exp2a_trial_97_colour1_distractors19_l.png,l,1,014,001,2021-04-20_16h55.56.134,searchDisc4,2020.2.10,Win32,60,,,,space,0.081065,1,1,0.657785,,0,118,118,325,1,2a,97,1,19,
,,,,,,,,,,,,,,,,,,,,,,,,,images/exp1a_trial_83_colour2_distractors4_r.png,r,2,014,001,2021-04-20_16h55.56.134,searchDisc4,2020.2.10,Win32,60,,,,space,0.093655,2,1,0.772825,space,0,119,119,83,1,1a,83,2,4,0.058745
,,,,,,,,,,,,,,,,,,,,,,,,,images/exp1b_trial_73_colour3_distractors43_l.png,l,1,014,001,2021-04-20_16h55.56.134,searchDisc4,2020.2.10,Win32,60,,,,space,3.416075,1,1,1.222295,,0,120,120,187,1,1b,73,3,43,
,,,,,,,,,,,,,,,,,,,,,,,,,images/exp2c_trial_105_colour2_distractors43_l.png,l,1,014,001,2021-04-20_16h55.56.134,searchDisc4,2020.2.10,Win32,60,,,,space,0.07417,1,1,0.813975,,0,121,121,561,1,2c,105,2,43,
,,,,,,,,,,,,,,,,,,,,,,,,,images/exp1b_trial_92_colour3_distractors31_r.png,r,2,014,001,2021-04-20_16h55.56.134,searchDisc4,2020.2.10,Win32,60,,,,space,0.05328,2,1,1.55746,,0,122,122,206,1,1b,92,3,31,
,,,,,,,,,,,,,,,,,,,,,,,,,images/exp2a_trial_76_colour1_distractors1_r.png,r,2,014,001,2021-04-20_16h55.56.134,searchDisc4,2020.2.10,Win32,60,,,,space,0.09072,2,1,0.64463,,0,123,123,304,1,2a,76,1,1,
,,,,,,,,,,,,,,,,,,,,,,,,,images/exp2c_trial_17_colour3_distractors43_r.png,r,2,014,001,2021-04-20_16h55.56.134,searchDisc4,2020.2.10,Win32,60,,,,space,0.07368,2,1,0.52357,,0,124,124,473,1,2c,17,3,43,
,,,,,,,,,,,,,,,,,,,,,,,,,images/exp2b_trial_34_colour3_distractors31_l.png,l,1,014,001,2021-04-20_16h55.56.134,searchDisc4,2020.2.10,Win32,60,,,,space,0.11118,1,1,0.754035,,0,125,125,376,1,2b,34,3,31,
,,,,,,,,,,,,,,,,,,,,,,,,,images/exp2c_trial_52_colour3_distractors9_r.png,r,2,014,001,2021-04-20_16h55.56.134,searchDisc4,2020.2.10,Win32,60,,,,space,0.06687,2,1,0.589885,,0,126,126,508,1,2c,52,3,9,
,,,,,,,,,,,,,,,,,,,,,,,,,images/exp1a_trial_19_colour1_distractors4_l.png,l,1,014,001,2021-04-20_16h55.56.134,searchDisc4,2020.2.10,Win32,60,,,,space,0.10818,1,1,0.66454,,0,127,127,19,1,1a,19,1,4,
,,,,,,,,,,,,,,,,,,,,,,,,,images/exp1a_trial_18_colour1_distractors1_l.png,l,1,014,001,2021-04-20_16h55.56.134,searchDisc4,2020.2.10,Win32,60,,,,space,0.098135,1,1,0.65946,,0,128,128,18,1,1a,18,1,1,
,,,,,,,,,,,,,,,,,,,,,,,,,images/exp2b_trial_58_colour1_distractors9_l.png,l,1,014,001,2021-04-20_16h55.56.134,searchDisc4,2020.2.10,Win32,60,,,,space,0.12823,1,1,0.53055,,0,129,129,400,1,2b,58,1,9,
,,,,,,,,,,,,,,,,,,,,,,,,,images/exp1b_trial_9_colour2_distractors19_r.png,r,2,014,001,2021-04-20_16h55.56.134,searchDisc4,2020.2.10,Win32,60,,,,space,0.10442,2,1,0.63882,,0,130,130,123,1,1b,9,2,19,
,,,,,,,,,,,,,,,,,,,,,,,,,images/exp1b_trial_103_colour2_distractors19_l.png,l,1,014,001,2021-04-20_16h55.56.134,searchDisc4,2020.2.10,Win32,60,,,,space,0.069795,1,1,0.81943,,0,131,131,217,1,1b,103,2,19,
,,,,,,,,,,,,,,,,,,,,,,,,,images/exp2a_trial_55_colour3_distractors43_r.png,r,2,014,001,2021-04-20_16h55.56.134,searchDisc4,2020.2.10,Win32,60,,,,space,0.105005,2,1,1.16058,,0,132,132,283,1,2a,55,3,43,
,,,,,,,,,,,,,,,,,,,,,,,,,images/exp2a_trial_19_colour1_distractors4_l.png,l,1,014,001,2021-04-20_16h55.56.134,searchDisc4,2020.2.10,Win32,60,,,,space,0.082085,1,1,0.731385,,0,133,133,247,1,2a,19,1,4,
,,,,,,,,,,,,,,,,,,,,,,,,,images/exp1b_trial_89_colour3_distractors4_r.png,r,2,014,001,2021-04-20_16h55.56.134,searchDisc4,2020.2.10,Win32,60,,,,space,0.047425,2,1,0.929635,,0,134,134,203,1,1b,89,3,4,
,,,,,,,,,,,,,,,,,,,,,,,,,images/exp2c_trial_113_colour0_distractors0_l.png,l,1,014,001,2021-04-20_16h55.56.134,searchDisc4,2020.2.10,Win32,60,,,,space,0.061105,1,1,0.511735,,0,135,135,569,1,2c,113,0,0,
,,,,,,,,,,,,,,,,,,,,,,,,,images/exp2a_trial_17_colour3_distractors43_r.png,r,2,014,001,2021-04-20_16h55.56.134,searchDisc4,2020.2.10,Win32,60,,,,space,0.10157,2,1,0.751065,,0,136,136,245,1,2a,17,3,43,
,,,,,,,,,,,,,,,,,,,,,,,,,images/exp2b_trial_45_colour2_distractors4_r.png,r,2,014,001,2021-04-20_16h55.56.134,searchDisc4,2020.2.10,Win32,60,,,,space,0.097175,2,1,0.831015,,0,137,137,387,1,2b,45,2,4,
,,,,,,,,,,,,,,,,,,,,,,,,,images/exp1a_trial_16_colour3_distractors31_r.png,r,2,014,001,2021-04-20_16h55.56.134,searchDisc4,2020.2.10,Win32,60,,,,space,0.54913,2,1,0.533415,,0,138,138,16,1,1a,16,3,31,
,,,,,,,,,,,,,,,,,,,,,,,,,images/exp2c_trial_39_colour1_distractors4_r.png,r,2,014,001,2021-04-20_16h55.56.134,searchDisc4,2020.2.10,Win32,60,,,,space,0.42713,2,1,0.5505,,0,139,139,495,1,2c,39,1,4,
,,,,,,,,,,,,,,,,,,,,,,,,,images/exp1a_trial_103_colour2_distractors19_l.png,l,1,014,001,2021-04-20_16h55.56.134,searchDisc4,2020.2.10,Win32,60,,,,space,0.38567,1,1,0.972475,,0,140,140,103,1,1a,103,2,19,
,,,,,,,,,,,,,,,,,,,,,,,,,images/exp2b_trial_14_colour3_distractors9_r.png,r,2,014,001,2021-04-20_16h55.56.134,searchDisc4,2020.2.10,Win32,60,,,,space,0.097775,2,1,0.651545,,0,141,141,356,1,2b,14,3,9,
,,,,,,,,,,,,,,,,,,,,,,,,,images/exp1b_trial_20_colour1_distractors9_l.png,l,1,014,001,2021-04-20_16h55.56.134,searchDisc4,2020.2.10,Win32,60,,,,space,0.337455,1,1,1.361775,,0,142,142,134,1,1b,20,1,9,
,,,,,,,,,,,,,,,,,,,,,,,,,images/exp2c_trial_102_colour2_distractors9_l.png,l,1,014,001,2021-04-20_16h55.56.134,searchDisc4,2020.2.10,Win32,60,,,,space,0.12854,1,1,0.632445,,0,143,143,558,1,2c,102,2,9,
,,,,,,,,,,,,,,,,,,,,,,,,,images/exp1b_trial_39_colour1_distractors4_r.png,r,2,014,001,2021-04-20_16h55.56.134,searchDisc4,2020.2.10,Win32,60,,,,space,0.13405,2,1,0.76389,,0,144,144,153,1,1b,39,1,4,
,,,,,,,,,,,,,,,,,,,,,,,,,images/exp1b_trial_21_colour1_distractors19_l.png,l,1,014,001,2021-04-20_16h55.56.134,searchDisc4,2020.2.10,Win32,60,,,,space,0.13119,1,1,0.814655,,0,145,145,135,1,1b,21,1,19,
,,,,,,,,,,,,,,,,,,,,,,,,,images/exp1b_trial_37_colour0_distractors0_l.png,l,1,014,001,2021-04-20_16h55.56.134,searchDisc4,2020.2.10,Win32,60,,,,space,0.123345,1,1,0.590065,,0,146,146,151,1,1b,37,0,0,
,,,,,,,,,,,,,,,,,,,,,,,,,images/exp1b_trial_34_colour3_distractors31_l.png,l,1,014,001,2021-04-20_16h55.56.134,searchDisc4,2020.2.10,Win32,60,,,,space,0.1074,1,1,0.9982,,0,147,147,148,1,1b,34,3,31,
,,,,,,,,,,,,,,,,,,,,,,,,,images/exp2b_trial_21_colour1_distractors19_l.png,l,1,014,001,2021-04-20_16h55.56.134,searchDisc4,2020.2.10,Win32,60,,,,space,0.08472,1,1,0.717095,,0,148,148,363,1,2b,21,1,19,
,,,,,,,,,,,,,,,,,,,,,,,,,images/exp2c_trial_13_colour3_distractors4_r.png,r,2,014,001,2021-04-20_16h55.56.134,searchDisc4,2020.2.10,Win32,60,,,,space,0.073785,2,1,0.63591,,0,149,149,469,1,2c,13,3,4,
,,,,,,,,,,,,,,,,,,,,,,,,,images/exp2c_trial_111_colour3_distractors43_l.png,l,1,014,001,2021-04-20_16h55.56.134,searchDisc4,2020.2.10,Win32,60,,,,space,0.083635,1,1,0.66203,,0,150,150,567,1,2c,111,3,43,
,,,,,,,,,,,,,,,,,,,,,,,,,images/exp2c_trial_98_colour1_distractors31_l.png,l,1,014,001,2021-04-20_16h55.56.134,searchDisc4,2020.2.10,Win32,60,,,,space,0.053685,1,1,0.826535,,0,151,151,554,1,2c,98,1,31,
,,,,,,,,,,,,,,,,,,,,,,,,,images/exp1b_trial_110_colour3_distractors31_l.png,l,1,014,001,2021-04-20_16h55.56.134,searchDisc4,2020.2.10,Win32,60,,,,space,0.06528,1,1,1.62324,,0,152,152,224,1,1b,110,3,31,
,,,,,,,,,,,,,,,,,,,,,,,,,images/exp1b_trial_87_colour2_distractors43_r.png,r,2,014,001,2021-04-20_16h55.56.134,searchDisc4,2020.2.10,Win32,60,,,,space,0.06584,2,1,1.31848,,0,153,153,201,1,1b,87,2,43,
,,,,,,,,,,,,,,,,,,,,,,,,,images/exp2b_trial_62_colour2_distractors1_l.png,l,1,014,001,2021-04-20_16h55.56.134,searchDisc4,2020.2.10,Win32,60,,,,space,0.05826,1,1,0.816455,,0,154,154,404,1,2b,62,2,1,
,,,,,,,,,,,,,,,,,,,,,,,,,images/exp2a_trial_65_colour2_distractors19_l.png,l,1,014,001,2021-04-20_16h55.56.134,searchDisc4,2020.2.10,Win32,60,,,,space,0.07089,1,1,0.74529,,0,155,155,293,1,2a,65,2,19,
,,,,,,,,,,,,,,,,,,,,,,,,,images/exp2b_trial_79_colour1_distractors19_r.png,r,2,014,001,2021-04-20_16h55.56.134,searchDisc4,2020.2.10,Win32,60,,,,space,0.044315,2,1,0.816575,,0,156,156,421,1,2b,79,1,19,
,,,,,,,,,,,,,,,,,,,,,,,,,images/exp2c_trial_15_colour3_distractors19_r.png,r,2,014,001,2021-04-20_16h55.56.134,searchDisc4,2020.2.10,Win32,60,,,,space,0.11997,2,1,0.564085,,0,157,157,471,1,2c,15,3,19,
,,,,,,,,,,,,,,,,,,,,,,,,,images/exp1a_trial_32_colour3_distractors9_l.png,l,1,014,001,2021-04-20_16h55.56.134,searchDisc4,2020.2.10,Win32,60,,,,space,0.125045,1,1,0.480145,,0,158,158,32,1,1a,32,3,9,
,,,,,,,,,,,,,,,,,,,,,,,,,images/exp1b_trial_6_colour2_distractors1_r.png,r,2,014,001,2021-04-20_16h55.56.134,searchDisc4,2020.2.10,Win32,60,,,,space,0.27097,2,1,0.847025,,0,159,159,120,1,1b,6,2,1,
,,,,,,,,,,,,,,,,,,,,,,,,,images/exp2b_trial_99_colour1_distractors43_l.png,l,1,014,001,2021-04-20_16h55.56.134,searchDisc4,2020.2.10,Win32,60,,,,space,0.399475,1,1,0.65822,,0,160,160,441,1,2b,99,1,43,
,,,,,,,,,,,,,,,,,,,,,,,,,images/exp1a_trial_15_colour3_distractors19_r.png,r,2,014,001,2021-04-20_16h55.56.134,searchDisc4,2020.2.10,Win32,60,,,,space,0.281825,2,1,0.54831,,0,161,161,15,1,1a,15,3,19,
,,,,,,,,,,,,,,,,,,,,,,,,,images/exp1a_trial_110_colour3_distractors31_l.png,l,1,014,001,2021-04-20_16h55.56.134,searchDisc4,2020.2.10,Win32,60,,,,space,0.11898,1,1,0.679865,,0,162,162,110,1,1a,110,3,31,
,,,,,,,,,,,,,,,,,,,,,,,,,images/exp2b_trial_90_colour3_distractors9_r.png,r,2,014,001,2021-04-20_16h55.56.134,searchDisc4,2020.2.10,Win32,60,,,,space,0.135005,2,1,1.369015,,0,163,163,432,1,2b,90,3,9,
,,,,,,,,,,,,,,,,,,,,,,,,,images/exp2b_trial_4_colour1_distractors31_r.png,r,2,014,001,2021-04-20_16h55.56.134,searchDisc4,2020.2.10,Win32,60,,,,space,0.57032,2,1,0.738565,,0,164,164,346,1,2b,4,1,31,
,,,,,,,,,,,,,,,,,,,,,,,,,images/exp2a_trial_24_colour2_distractors1_l.png,l,1,014,001,2021-04-20_16h55.56.134,searchDisc4,2020.2.10,Win32,60,,,,space,0.44987,1,1,0.570725,,0,165,165,252,1,2a,24,2,1,
,,,,,,,,,,,,,,,,,,,,,,,,,images/exp2a_trial_80_colour1_distractors31_r.png,r,2,014,001,2021-04-20_16h55.56.134,searchDisc4,2020.2.10,Win32,60,,,,space,0.448295,2,1,0.53369,,0,166,166,308,1,2a,80,1,31,
,,,,,,,,,,,,,,,,,,,,,,,,,images/exp1b_trial_111_colour3_distractors43_l.png,l,1,014,001,2021-04-20_16h55.56.134,searchDisc4,2020.2.10,Win32,60,,,,space,0.38901,1,1,0.657485,,0,167,167,225,1,1b,111,3,43,
,,,,,,,,,,,,,,,,,,,,,,,,,images/exp1b_trial_16_colour3_distractors31_r.png,r,2,014,001,2021-04-20_16h55.56.134,searchDisc4,2020.2.10,Win32,60,,,,space,0.598455,2,1,0.87025,,0,168,168,130,1,1b,16,3,31,
,,,,,,,,,,,,,,,,,,,,,,,,,images/exp1a_trial_93_colour3_distractors43_r.png,r,2,014,001,2021-04-20_16h55.56.134,searchDisc4,2020.2.10,Win32,60,,,,space,0.38756,2,1,1.149705,,0,169,169,93,1,1a,93,3,43,
,,,,,,,,,,,,,,,,,,,,,,,,,images/exp1a_trial_38_colour1_distractors1_r.png,r,2,014,001,2021-04-20_16h55.56.134,searchDisc4,2020.2.10,Win32,60,,,,space,0.401925,1,0,1.025345,,0,170,170,38,1,1a,38,1,1,
,,,,,,,,,,,,,,,,,,,,,,,,,images/exp2c_trial_109_colour3_distractors19_l.png,l,1,014,001,2021-04-20_16h55.56.134,searchDisc4,2020.2.10,Win32,60,,,,space,0.7663,1,1,0.743595,,0,171,171,565,1,2c,109,3,19,
,,,,,,,,,,,,,,,,,,,,,,,,,images/exp2c_trial_42_colour1_distractors31_r.png,r,2,014,001,2021-04-20_16h55.56.134,searchDisc4,2020.2.10,Win32,60,,,,space,0.419235,2,1,0.708085,,0,172,172,498,1,2c,42,1,31,
,,,,,,,,,,,,,,,,,,,,,,,,,images/exp2c_trial_76_colour1_distractors1_r.png,r,2,014,001,2021-04-20_16h55.56.134,searchDisc4,2020.2.10,Win32,60,,,,space,0.34538,2,1,0.83739,,0,173,173,532,1,2c,76,1,1,
,,,,,,,,,,,,,,,,,,,,,,,,,images/exp2c_trial_74_colour0_distractors0_r.png,r,2,014,001,2021-04-20_16h55.56.134,searchDisc4,2020.2.10,Win32,60,,,,space,0.329765,2,1,0.5504,,0,174,174,530,1,2c,74,0,0,
,,,,,,,,,,,,,,,,,,,,,,,,,images/exp2c_trial_11_colour2_distractors43_r.png,r,2,014,001,2021-04-20_16h55.56.134,searchDisc4,2020.2.10,Win32,60,,,,space,0.28158,2,1,0.59749,,0,175,175,467,1,2c,11,2,43,
,,,,,,,,,,,,,,,,,,,,,,,,,images/exp2b_trial_84_colour2_distractors9_r.png,r,2,014,001,2021-04-20_16h55.56.134,searchDisc4,2020.2.10,Win32,60,,,,space,0.484835,2,1,0.466155,,0,176,176,426,1,2b,84,2,9,
,,,,,,,,,,,,,,,,,,,,,,,,,images/exp2b_trial_73_colour3_distractors43_l.png,l,1,014,001,2021-04-20_16h55.56.134,searchDisc4,2020.2.10,Win32,60,,,,space,0.42224,1,1,0.622755,,0,177,177,415,1,2b,73,3,43,
,,,,,,,,,,,,,,,,,,,,,,,,,images/exp1b_trial_43_colour1_distractors43_r.png,r,2,014,001,2021-04-20_16h55.56.134,searchDisc4,2020.2.10,Win32,60,,,,space,0.39332,2,1,0.84672,,0,178,178,157,1,1b,43,1,43,
,,,,,,,,,,,,,,,,,,,,,,,,,images/exp2b_trial_106_colour3_distractors1_l.png,l,1,014,001,2021-04-20_16h55.56.134,searchDisc4,2020.2.10,Win32,60,,,,space,0.47664,1,1,0.942495,space,0,179,179,448,1,2b,106,3,1,9.35572
,,,,,,,,,,,,,,,,,,,,,,,,,images/exp1a_trial_92_colour3_distractors31_r.png,r,2,014,001,2021-04-20_16h55.56.134,searchDisc4,2020.2.10,Win32,60,,,,space,0.8241,2,1,0.695465,,0,180,180,92,1,1a,92,3,31,
,,,,,,,,,,,,,,,,,,,,,,,,,images/exp2c_trial_68_colour3_distractors1_l.png,l,1,014,001,2021-04-20_16h55.56.134,searchDisc4,2020.2.10,Win32,60,,,,space,0.061075,1,1,0.690785,,0,181,181,524,1,2c,68,3,1,
,,,,,,,,,,,,,,,,,,,,,,,,,images/exp2c_trial_86_colour2_distractors31_r.png,r,2,014,001,2021-04-20_16h55.56.134,searchDisc4,2020.2.10,Win32,60,,,,space,0.069285,2,1,0.617935,,0,182,182,542,1,2c,86,2,31,
,,,,,,,,,,,,,,,,,,,,,,,,,images/exp2b_trial_87_colour2_distractors43_r.png,r,2,014,001,2021-04-20_16h55.56.134,searchDisc4,2020.2.10,Win32,60,,,,space,0.05191,2,1,0.632985,,0,183,183,429,1,2b,87,2,43,
,,,,,,,,,,,,,,,,,,,,,,,,,images/exp2b_trial_10_colour2_distractors31_r.png,r,2,014,001,2021-04-20_16h55.56.134,searchDisc4,2020.2.10,Win32,60,,,,space,0.0229,2,1,0.70447,,0,184,184,352,1,2b,10,2,31,
,,,,,,,,,,,,,,,,,,,,,,,,,images/exp2c_trial_26_colour2_distractors9_l.png,l,1,014,001,2021-04-20_16h55.56.134,searchDisc4,2020.2.10,Win32,60,,,,space,0.02407,1,1,0.755375,,0,185,185,482,1,2c,26,2,9,
,,,,,,,,,,,,,,,,,,,,,,,,,images/exp1a_trial_79_colour1_distractors19_r.png,r,2,014,001,2021-04-20_16h55.56.134,searchDisc4,2020.2.10,Win32,60,,,,space,0.04872,2,1,0.693955,,0,186,186,79,1,1a,79,1,19,
,,,,,,,,,,,,,,,,,,,,,,,,,images/exp2a_trial_79_colour1_distractors19_r.png,r,2,014,001,2021-04-20_16h55.56.134,searchDisc4,2020.2.10,Win32,60,,,,space,0.051865,2,1,0.706145,,0,187,187,307,1,2a,79,1,19,
,,,,,,,,,,,,,,,,,,,,,,,,,images/exp1b_trial_100_colour2_distractors1_l.png,l,1,014,001,2021-04-20_16h55.56.134,searchDisc4,2020.2.10,Win32,60,,,,space,0.036395,1,1,0.50233,,0,188,188,214,1,1b,100,2,1,
,,,,,,,,,,,,,,,,,,,,,,,,,images/exp1b_trial_83_colour2_distractors4_r.png,r,2,014,001,2021-04-20_16h55.56.134,searchDisc4,2020.2.10,Win32,60,,,,space,0.087215,2,1,0.537485,,0,189,189,197,1,1b,83,2,4,
,,,,,,,,,,,,,,,,,,,,,,,,,images/exp1b_trial_85_colour2_distractors19_r.png,r,2,014,001,2021-04-20_16h55.56.134,searchDisc4,2020.2.10,Win32,60,,,,space,0.10667,2,1,0.831805,,0,190,190,199,1,1b,85,2,19,
,,,,,,,,,,,,,,,,,,,,,,,,,images/exp1b_trial_80_colour1_distractors31_r.png,r,2,014,001,2021-04-20_16h55.56.134,searchDisc4,2020.2.10,Win32,60,,,,space,0.01007,2,1,0.849595,,0,191,191,194,1,1b,80,1,31,
,,,,,,,,,,,,,,,,,,,,,,,,,images/exp1a_trial_26_colour2_distractors9_l.png,l,1,014,001,2021-04-20_16h55.56.134,searchDisc4,2020.2.10,Win32,60,,,,space,0.038825,1,1,0.866765,,0,192,192,26,1,1a,26,2,9,
,,,,,,,,,,,,,,,,,,,,,,,,,images/exp1a_trial_34_colour3_distractors31_l.png,l,1,014,001,2021-04-20_16h55.56.134,searchDisc4,2020.2.10,Win32,60,,,,space,0.0382,1,1,0.69133,,0,193,193,34,1,1a,34,3,31,
,,,,,,,,,,,,,,,,,,,,,,,,,images/exp2a_trial_41_colour1_distractors19_r.png,r,2,014,001,2021-04-20_16h55.56.134,searchDisc4,2020.2.10,Win32,60,,,,space,0.014875,2,1,0.71514,,0,194,194,269,1,2a,41,1,19,
,,,,,,,,,,,,,,,,,,,,,,,,,images/exp2a_trial_62_colour2_distractors1_l.png,l,1,014,001,2021-04-20_16h55.56.134,searchDisc4,2020.2.10,Win32,60,,,,space,0.00084,1,1,0.756595,,0,195,195,290,1,2a,62,2,1,
,,,,,,,,,,,,,,,,,,,,,,,,,images/exp1a_trial_102_colour2_distractors9_l.png,l,1,014,001,2021-04-20_16h55.56.134,searchDisc4,2020.2.10,Win32,60,,,,space,0.03572,1,1,0.923145,,0,196,196,102,1,1a,102,2,9,
,,,,,,,,,,,,,,,,,,,,,,,,,images/exp1b_trial_29_colour2_distractors43_l.png,l,1,014,001,2021-04-20_16h55.56.134,searchDisc4,2020.2.10,Win32,60,,,,space,0.08296,1,1,1.111705,,0,197,197,143,1,1b,29,2,43,
,,,,,,,,,,,,,,,,,,,,,,,,,images/exp2c_trial_110_colour3_distractors31_l.png,l,1,014,001,2021-04-20_16h55.56.134,searchDisc4,2020.2.10,Win32,60,,,,space,0.098555,1,1,0.730055,,0,198,198,566,1,2c,110,3,31,
,,,,,,,,,,,,,,,,,,,,,,,,,images/exp2b_trial_76_colour1_distractors1_r.png,r,2,014,001,2021-04-20_16h55.56.134,searchDisc4,2020.2.10,Win32,60,,,,space,0.02043,2,1,0.56599,,0,199,199,418,1,2b,76,1,1,
,,,,,,,,,,,,,,,,,,,,,,,,,images/exp1a_trial_112_colour0_distractors0_r.png,r,2,014,001,2021-04-20_16h55.56.134,searchDisc4,2020.2.10,Win32,60,,,,space,0.00965,2,1,0.58204,,0,200,200,112,1,1a,112,0,0,
,,,,,,,,,,,,,,,,,,,,,,,,,images/exp1a_trial_61_colour1_distractors43_l.png,l,1,014,001,2021-04-20_16h55.56.134,searchDisc4,2020.2.10,Win32,60,,,,space,0.647475,1,1,0.77903,,0,201,201,61,1,1a,61,1,43,
,,,,,,,,,,,,,,,,,,,,,,,,,images/exp2b_trial_86_colour2_distractors31_r.png,r,2,014,001,2021-04-20_16h55.56.134,searchDisc4,2020.2.10,Win32,60,,,,space,0.10468,2,1,0.6401,,0,202,202,428,1,2b,86,2,31,
,,,,,,,,,,,,,,,,,,,,,,,,,images/exp2a_trial_16_colour3_distractors31_r.png,r,2,014,001,2021-04-20_16h55.56.134,searchDisc4,2020.2.10,Win32,60,,,,space,0.05037,2,1,0.619895,,0,203,203,244,1,2a,16,3,31,
,,,,,,,,,,,,,,,,,,,,,,,,,images/exp2b_trial_89_colour3_distractors4_r.png,r,2,014,001,2021-04-20_16h55.56.134,searchDisc4,2020.2.10,Win32,60,,,,space,0.44205,2,1,0.541755,,0,204,204,431,1,2b,89,3,4,
,,,,,,,,,,,,,,,,,,,,,,,,,images/exp1b_trial_19_colour1_distractors4_l.png,l,1,014,001,2021-04-20_16h55.56.134,searchDisc4,2020.2.10,Win32,60,,,,space,0.019045,1,1,0.692785,,0,205,205,133,1,1b,19,1,4,
,,,,,,,,,,,,,,,,,,,,,,,,,images/exp1a_trial_94_colour1_distractors1_l.png,l,1,014,001,2021-04-20_16h55.56.134,searchDisc4,2020.2.10,Win32,60,,,,space,0.008605,1,1,1.46153,,0,206,206,94,1,1a,94,1,1,
,,,,,,,,,,,,,,,,,,,,,,,,,images/exp1b_trial_36_colour0_distractors0_r.png,r,2,014,001,2021-04-20_16h55.56.134,searchDisc4,2020.2.10,Win32,60,,,,space,0.70491,2,1,1.071965,,0,207,207,150,1,1b,36,0,0,
,,,,,,,,,,,,,,,,,,,,,,,,,images/exp1a_trial_87_colour2_distractors43_r.png,r,2,014,001,2021-04-20_16h55.56.134,searchDisc4,2020.2.10,Win32,60,,,,space,0.423975,2,1,0.639555,,0,208,208,87,1,1a,87,2,43,
,,,,,,,,,,,,,,,,,,,,,,,,,images/exp1a_trial_74_colour0_distractors0_r.png,r,2,014,001,2021-04-20_16h55.56.134,searchDisc4,2020.2.10,Win32,60,,,,space,0.054105,2,1,0.50446,,0,209,209,74,1,1a,74,0,0,
,,,,,,,,,,,,,,,,,,,,,,,,,images/exp2b_trial_92_colour3_distractors31_r.png,r,2,014,001,2021-04-20_16h55.56.134,searchDisc4,2020.2.10,Win32,60,,,,space,0.02782,2,1,0.729675,,0,210,210,434,1,2b,92,3,31,
,,,,,,,,,,,,,,,,,,,,,,,,,images/exp2c_trial_45_colour2_distractors4_r.png,r,2,014,001,2021-04-20_16h55.56.134,searchDisc4,2020.2.10,Win32,60,,,,space,0.425475,2,1,0.8703,,0,211,211,501,1,2c,45,2,4,
,,,,,,,,,,,,,,,,,,,,,,,,,images/exp2b_trial_104_colour2_distractors31_l.png,l,1,014,001,2021-04-20_16h55.56.134,searchDisc4,2020.2.10,Win32,60,,,,space,0.02135,1,1,0.70393,,0,212,212,446,1,2b,104,2,31,
,,,,,,,,,,,,,,,,,,,,,,,,,images/exp2b_trial_55_colour3_distractors43_r.png,r,2,014,001,2021-04-20_16h55.56.134,searchDisc4,2020.2.10,Win32,60,,,,space,0.0417,2,1,0.60704,,0,213,213,397,1,2b,55,3,43,
,,,,,,,,,,,,,,,,,,,,,,,,,images/exp2c_trial_30_colour3_distractors1_l.png,l,1,014,001,2021-04-20_16h55.56.134,searchDisc4,2020.2.10,Win32,60,,,,space,0.072585,1,1,0.89085,,0,214,214,486,1,2c,30,3,1,
,,,,,,,,,,,,,,,,,,,,,,,,,images/exp2c_trial_107_colour3_distractors4_l.png,l,1,014,001,2021-04-20_16h55.56.134,searchDisc4,2020.2.10,Win32,60,,,,space,0.07502,1,1,0.626625,,0,215,215,563,1,2c,107,3,4,
,,,,,,,,,,,,,,,,,,,,,,,,,images/exp2c_trial_89_colour3_distractors4_r.png,r,2,014,001,2021-04-20_16h55.56.134,searchDisc4,2020.2.10,Win32,60,,,,space,0.055325,2,1,0.61529,,0,216,216,545,1,2c,89,3,4,
,,,,,,,,,,,,,,,,,,,,,,,,,images/exp1b_trial_13_colour3_distractors4_r.png,r,2,014,001,2021-04-20_16h55.56.134,searchDisc4,2020.2.10,Win32,60,,,,space,0.252085,2,1,0.521205,,0,217,217,127,1,1b,13,3,4,
,,,,,,,,,,,,,,,,,,,,,,,,,images/exp1a_trial_30_colour3_distractors1_l.png,l,1,014,001,2021-04-20_16h55.56.134,searchDisc4,2020.2.10,Win32,60,,,,space,0.17469,1,1,0.535735,,0,218,218,30,1,1a,30,3,1,
,,,,,,,,,,,,,,,,,,,,,,,,,images/exp1b_trial_22_colour1_distractors31_l.png,l,1,014,001,2021-04-20_16h55.56.134,searchDisc4,2020.2.10,Win32,60,,,,space,0.10276,1,1,0.832865,,0,219,219,136,1,1b,22,1,31,
,,,,,,,,,,,,,,,,,,,,,,,,,images/exp2c_trial_43_colour1_distractors43_r.png,r,2,014,001,2021-04-20_16h55.56.134,searchDisc4,2020.2.10,Win32,60,,,,space,0.10326,2,1,0.433515,,0,220,220,499,1,2c,43,1,43,
,,,,,,,,,,,,,,,,,,,,,,,,,images/exp2a_trial_45_colour2_distractors4_r.png,r,2,014,001,2021-04-20_16h55.56.134,searchDisc4,2020.2.10,Win32,60,,,,space,0.11883,2,1,0.454025,,0,221,221,273,1,2a,45,2,4,
,,,,,,,,,,,,,,,,,,,,,,,,,images/exp1a_trial_85_colour2_distractors19_r.png,r,2,014,001,2021-04-20_16h55.56.134,searchDisc4,2020.2.10,Win32,60,,,,space,0.20305,2,1,0.74693,,0,222,222,85,1,1a,85,2,19,
,,,,,,,,,,,,,,,,,,,,,,,,,images/exp1b_trial_56_colour1_distractors1_l.png,l,1,014,001,2021-04-20_16h55.56.134,searchDisc4,2020.2.10,Win32,60,,,,space,0.080675,2,0,0.523685,,0,223,223,170,1,1b,56,1,1,
,,,,,,,,,,,,,,,,,,,,,,,,,images/exp1b_trial_65_colour2_distractors19_l.png,l,1,014,001,2021-04-20_16h55.56.134,searchDisc4,2020.2.10,Win32,60,,,,space,1.405855,1,1,0.65825,,0,224,224,179,1,1b,65,2,19,
,,,,,,,,,,,,,,,,,,,,,,,,,images/exp1a_trial_37_colour0_distractors0_l.png,l,1,014,001,2021-04-20_16h55.56.134,searchDisc4,2020.2.10,Win32,60,,,,space,0.388425,2,0,0.48244,,0,225,225,37,1,1a,37,0,0,
,,,,,,,,,,,,,,,,,,,,,,,,,images/exp1a_trial_9_colour2_distractors19_r.png,r,2,014,001,2021-04-20_16h55.56.134,searchDisc4,2020.2.10,Win32,60,,,,space,0.36686,2,1,0.887325,,0,226,226,9,1,1a,9,2,19,
,,,,,,,,,,,,,,,,,,,,,,,,,images/exp2a_trial_1_colour1_distractors4_r.png,r,2,014,001,2021-04-20_16h55.56.134,searchDisc4,2020.2.10,Win32,60,,,,space,0.11443,2,1,0.62456,,0,227,227,229,1,2a,1,1,4,
,,,,,,,,,,,,,,,,,,,,,,,,,images/exp1b_trial_35_colour3_distractors43_l.png,l,1,014,001,2021-04-20_16h55.56.134,searchDisc4,2020.2.10,Win32,60,,,,space,0.0985,1,1,1.40707,,0,228,228,149,1,1b,35,3,43,
,,,,,,,,,,,,,,,,,,,,,,,,,images/exp1a_trial_7_colour2_distractors4_r.png,r,2,014,001,2021-04-20_16h55.56.134,searchDisc4,2020.2.10,Win32,60,,,,space,0.099405,2,1,0.67162,,0,229,229,7,1,1a,7,2,4,
,,,,,,,,,,,,,,,,,,,,,,,,,images/exp2a_trial_47_colour2_distractors19_r.png,r,2,014,001,2021-04-20_16h55.56.134,searchDisc4,2020.2.10,Win32,60,,,,space,0.0869,2,1,0.831125,,0,230,230,275,1,2a,47,2,19,
,,,,,,,,,,,,,,,,,,,,,,,,,images/exp1b_trial_101_colour2_distractors4_l.png,l,1,014,001,2021-04-20_16h55.56.134,searchDisc4,2020.2.10,Win32,60,,,,space,0.10007,1,1,0.60507,,0,231,231,215,1,1b,101,2,4,
,,,,,,,,,,,,,,,,,,,,,,,,,images/exp1a_trial_66_colour2_distractors31_l.png,l,1,014,001,2021-04-20_16h55.56.134,searchDisc4,2020.2.10,Win32,60,,,,space,0.058825,1,1,0.570125,,0,232,232,66,1,1a,66,2,31,
,,,,,,,,,,,,,,,,,,,,,,,,,images/exp2a_trial_102_colour2_distractors9_l.png,l,1,014,001,2021-04-20_16h55.56.134,searchDisc4,2020.2.10,Win32,60,,,,space,0.071735,1,1,0.56583,,0,233,233,330,1,2a,102,2,9,
,,,,,,,,,,,,,,,,,,,,,,,,,images/exp2b_trial_80_colour1_distractors31_r.png,r,2,014,001,2021-04-20_16h55.56.134,searchDisc4,2020.2.10,Win32,60,,,,space,0.093575,2,1,0.75256,,0,234,234,422,1,2b,80,1,31,
,,,,,,,,,,,,,,,,,,,,,,,,,images/exp1b_trial_32_colour3_distractors9_l.png,l,1,014,001,2021-04-20_16h55.56.134,searchDisc4,2020.2.10,Win32,60,,,,space,0.12187,1,1,0.848115,,0,235,235,146,1,1b,32,3,9,
,,,,,,,,,,,,,,,,,,,,,,,,,images/exp2b_trial_24_colour2_distractors1_l.png,l,1,014,001,2021-04-20_16h55.56.134,searchDisc4,2020.2.10,Win32,60,,,,space,0.08053,1,1,0.63405,,0,236,236,366,1,2b,24,2,1,
,,,,,,,,,,,,,,,,,,,,,,,,,images/exp1a_trial_52_colour3_distractors9_r.png,r,2,014,001,2021-04-20_16h55.56.134,searchDisc4,2020.2.10,Win32,60,,,,space,0.03761,2,1,0.835675,,0,237,237,52,1,1a,52,3,9,
,,,,,,,,,,,,,,,,,,,,,,,,,images/exp2c_trial_66_colour2_distractors31_l.png,l,1,014,001,2021-04-20_16h55.56.134,searchDisc4,2020.2.10,Win32,60,,,,space,0.068075,1,1,0.66348,,0,238,238,522,1,2c,66,2,31,
,,,,,,,,,,,,,,,,,,,,,,,,,images/exp1a_trial_62_colour2_distractors1_l.png,l,1,014,001,2021-04-20_16h55.56.134,searchDisc4,2020.2.10,Win32,60,,,,space,0.071015,2,0,0.481635,space,0,239,239,62,1,1a,62,2,1,13.731465
,,,,,,,,,,,,,,,,,,,,,,,,,images/exp1a_trial_51_colour3_distractors4_r.png,r,2,014,001,2021-04-20_16h55.56.134,searchDisc4,2020.2.10,Win32,60,,,,space,0.48385,2,1,0.58235,,0,240,240,51,1,1a,51,3,4,
,,,,,,,,,,,,,,,,,,,,,,,,,images/exp2b_trial_97_colour1_distractors19_l.png,l,1,014,001,2021-04-20_16h55.56.134,searchDisc4,2020.2.10,Win32,60,,,,space,0.049875,1,1,0.552745,,0,241,241,439,1,2b,97,1,19,
,,,,,,,,,,,,,,,,,,,,,,,,,images/exp2a_trial_77_colour1_distractors4_r.png,r,2,014,001,2021-04-20_16h55.56.134,searchDisc4,2020.2.10,Win32,60,,,,space,0.05086,2,1,0.73441,,0,242,242,305,1,2a,77,1,4,
,,,,,,,,,,,,,,,,,,,,,,,,,images/exp2a_trial_87_colour2_distractors43_r.png,r,2,014,001,2021-04-20_16h55.56.134,searchDisc4,2020.2.10,Win32,60,,,,space,0.03847,2,1,0.617405,,0,243,243,315,1,2a,87,2,43,
,,,,,,,,,,,,,,,,,,,,,,,,,images/exp2b_trial_113_colour0_distractors0_l.png,l,1,014,001,2021-04-20_16h55.56.134,searchDisc4,2020.2.10,Win32,60,,,,space,0.01573,1,1,0.49104,,0,244,244,455,1,2b,113,0,0,
,,,,,,,,,,,,,,,,,,,,,,,,,images/exp2c_trial_57_colour1_distractors4_l.png,l,1,014,001,2021-04-20_16h55.56.134,searchDisc4,2020.2.10,Win32,60,,,,space,0.009285,1,1,0.510325,,0,245,245,513,1,2c,57,1,4,
,,,,,,,,,,,,,,,,,,,,,,,,,images/exp2c_trial_73_colour3_distractors43_l.png,l,1,014,001,2021-04-20_16h55.56.134,searchDisc4,2020.2.10,Win32,60,,,,space,0.39008,1,1,0.610615,,0,246,246,529,1,2c,73,3,43,
,,,,,,,,,,,,,,,,,,,,,,,,,images/exp2a_trial_28_colour2_distractors31_l.png,l,1,014,001,2021-04-20_16h55.56.134,searchDisc4,2020.2.10,Win32,60,,,,space,0.06411,1,1,0.5014,,0,247,247,256,1,2a,28,2,31,
,,,,,,,,,,,,,,,,,,,,,,,,,images/exp2a_trial_89_colour3_distractors4_r.png,r,2,014,001,2021-04-20_16h55.56.134,searchDisc4,2020.2.10,Win32,60,,,,space,0.03355,2,1,0.697025,,0,248,248,317,1,2a,89,3,4,
,,,,,,,,,,,,,,,,,,,,,,,,,images/exp2b_trial_35_colour3_distractors43_l.png,l,1,014,001,2021-04-20_16h55.56.134,searchDisc4,2020.2.10,Win32,60,,,,space,0.036485,1,1,0.66479,,0,249,249,377,1,2b,35,3,43,
,,,,,,,,,,,,,,,,,,,,,,,,,images/exp1b_trial_11_colour2_distractors43_r.png,r,2,014,001,2021-04-20_16h55.56.134,searchDisc4,2020.2.10,Win32,60,,,,space,0.054135,2,1,0.799605,,0,250,250,125,1,1b,11,2,43,
,,,,,,,,,,,,,,,,,,,,,,,,,images/exp2b_trial_93_colour3_distractors43_r.png,r,2,014,001,2021-04-20_16h55.56.134,searchDisc4,2020.2.10,Win32,60,,,,space,0.80457,2,1,0.740595,,0,251,251,435,1,2b,93,3,43,
,,,,,,,,,,,,,,,,,,,,,,,,,images/exp1b_trial_71_colour3_distractors19_l.png,l,1,014,001,2021-04-20_16h55.56.134,searchDisc4,2020.2.10,Win32,60,,,,space,0.044565,1,1,1.004315,,0,252,252,185,1,1b,71,3,19,
,,,,,,,,,,,,,,,,,,,,,,,,,images/exp1a_trial_100_colour2_distractors1_l.png,l,1,014,001,2021-04-20_16h55.56.134,searchDisc4,2020.2.10,Win32,60,,,,space,0.024375,2,0,0.84017,,0,253,253,100,1,1a,100,2,1,
,,,,,,,,,,,,,,,,,,,,,,,,,images/exp1b_trial_38_colour1_distractors1_r.png,r,2,014,001,2021-04-20_16h55.56.134,searchDisc4,2020.2.10,Win32,60,,,,space,0.01795,2,1,0.983155,,0,254,254,152,1,1b,38,1,1,
,,,,,,,,,,,,,,,,,,,,,,,,,images/exp1b_trial_51_colour3_distractors4_r.png,r,2,014,001,2021-04-20_16h55.56.134,searchDisc4,2020.2.10,Win32,60,,,,space,0.40702,2,1,1.102065,,0,255,255,165,1,1b,51,3,4,
,,,,,,,,,,,,,,,,,,,,,,,,,images/exp2b_trial_25_colour2_distractors4_l.png,l,1,014,001,2021-04-20_16h55.56.134,searchDisc4,2020.2.10,Win32,60,,,,space,0.34732,1,1,0.541545,,0,256,256,367,1,2b,25,2,4,
,,,,,,,,,,,,,,,,,,,,,,,,,images/exp2c_trial_71_colour3_distractors19_l.png,l,1,014,001,2021-04-20_16h55.56.134,searchDisc4,2020.2.10,Win32,60,,,,space,0.04456,1,1,0.564465,,0,257,257,527,1,2c,71,3,19,
,,,,,,,,,,,,,,,,,,,,,,,,,images/exp1b_trial_24_colour2_distractors1_l.png,l,1,014,001,2021-04-20_16h55.56.134,searchDisc4,2020.2.10,Win32,60,,,,space,0.03654,1,1,0.66515,,0,258,258,138,1,1b,24,2,1,
,,,,,,,,,,,,,,,,,,,,,,,,,images/exp2a_trial_91_colour3_distractors19_r.png,r,2,014,001,2021-04-20_16h55.56.134,searchDisc4,2020.2.10,Win32,60,,,,space,0.07094,2,1,0.753885,,0,259,259,319,1,2a,91,3,19,
,,,,,,,,,,,,,,,,,,,,,,,,,images/exp2b_trial_95_colour1_distractors4_l.png,l,1,014,001,2021-04-20_16h55.56.134,searchDisc4,2020.2.10,Win32,60,,,,space,0.07222,1,1,0.730315,,0,260,260,437,1,2b,95,1,4,
,,,,,,,,,,,,,,,,,,,,,,,,,images/exp1b_trial_44_colour2_distractors1_r.png,r,2,014,001,2021-04-20_16h55.56.134,searchDisc4,2020.2.10,Win32,60,,,,space,0.090145,2,1,0.604085,,0,261,261,158,1,1b,44,2,1,
,,,,,,,,,,,,,,,,,,,,,,,,,images/exp2a_trial_85_colour2_distractors19_r.png,r,2,014,001,2021-04-20_16h55.56.134,searchDisc4,2020.2.10,Win32,60,,,,space,0.11628,2,1,0.716655,,0,262,262,313,1,2a,85,2,19,
,,,,,,,,,,,,,,,,,,,,,,,,,images/exp1b_trial_15_colour3_distractors19_r.png,r,2,014,001,2021-04-20_16h55.56.134,searchDisc4,2020.2.10,Win32,60,,,,space,0.137605,2,1,0.889185,,0,263,263,129,1,1b,15,3,19,
,,,,,,,,,,,,,,,,,,,,,,,,,images/exp1b_trial_76_colour1_distractors1_r.png,r,2,014,001,2021-04-20_16h55.56.134,searchDisc4,2020.2.10,Win32,60,,,,space,0.048355,2,1,0.80602,,0,264,264,190,1,1b,76,1,1,
,,,,,,,,,,,,,,,,,,,,,,,,,images/exp2a_trial_78_colour1_distractors9_r.png,r,2,014,001,2021-04-20_16h55.56.134,searchDisc4,2020.2.10,Win32,60,,,,space,0.014675,2,1,0.76739,,0,265,265,306,1,2a,78,1,9,
,,,,,,,,,,,,,,,,,,,,,,,,,images/exp2c_trial_2_colour1_distractors9_r.png,r,2,014,001,2021-04-20_16h55.56.134,searchDisc4,2020.2.10,Win32,60,,,,space,0.06553,2,1,0.73232,,0,266,266,458,1,2c,2,1,9,
,,,,,,,,,,,,,,,,,,,,,,,,,images/exp2b_trial_28_colour2_distractors31_l.png,l,1,014,001,2021-04-20_16h55.56.134,searchDisc4,2020.2.10,Win32,60,,,,space,0.01109,1,1,0.61966,,0,267,267,370,1,2b,28,2,31,
,,,,,,,,,,,,,,,,,,,,,,,,,images/exp1b_trial_7_colour2_distractors4_r.png,r,2,014,001,2021-04-20_16h55.56.134,searchDisc4,2020.2.10,Win32,60,,,,space,0.002805,2,1,0.873585,,0,268,268,121,1,1b,7,2,4,
,,,,,,,,,,,,,,,,,,,,,,,,,images/exp1b_trial_96_colour1_distractors9_l.png,l,1,014,001,2021-04-20_16h55.56.134,searchDisc4,2020.2.10,Win32,60,,,,space,0.01627,1,1,0.98075,,0,269,269,210,1,1b,96,1,9,
,,,,,,,,,,,,,,,,,,,,,,,,,images/exp2a_trial_54_colour3_distractors31_r.png,r,2,014,001,2021-04-20_16h55.56.134,searchDisc4,2020.2.10,Win32,60,,,,space,0.004845,2,1,0.474445,,0,270,270,282,1,2a,54,3,31,
,,,,,,,,,,,,,,,,,,,,,,,,,images/exp2b_trial_13_colour3_distractors4_r.png,r,2,014,001,2021-04-20_16h55.56.134,searchDisc4,2020.2.10,Win32,60,,,,space,0.03764,2,1,0.58715,,0,271,271,355,1,2b,13,3,4,
,,,,,,,,,,,,,,,,,,,,,,,,,images/exp2c_trial_25_colour2_distractors4_l.png,l,1,014,001,2021-04-20_16h55.56.134,searchDisc4,2020.2.10,Win32,60,,,,space,0.00098,1,1,0.5036,,0,272,272,481,1,2c,25,2,4,
,,,,,,,,,,,,,,,,,,,,,,,,,images/exp1b_trial_14_colour3_distractors9_r.png,r,2,014,001,2021-04-20_16h55.56.134,searchDisc4,2020.2.10,Win32,60,,,,space,0.000835,2,1,0.616975,,0,273,273,128,1,1b,14,3,9,
,,,,,,,,,,,,,,,,,,,,,,,,,images/exp2c_trial_22_colour1_distractors31_l.png,l,1,014,001,2021-04-20_16h55.56.134,searchDisc4,2020.2.10,Win32,60,,,,space,0.506925,1,1,0.731045,,0,274,274,478,1,2c,22,1,31,
,,,,,,,,,,,,,,,,,,,,,,,,,images/exp2c_trial_88_colour3_distractors1_r.png,r,2,014,001,2021-04-20_16h55.56.134,searchDisc4,2020.2.10,Win32,60,,,,space,0.11482,2,1,0.87849,,0,275,275,544,1,2c,88,3,1,
,,,,,,,,,,,,,,,,,,,,,,,,,images/exp2c_trial_33_colour3_distractors19_l.png,l,1,014,001,2021-04-20_16h55.56.134,searchDisc4,2020.2.10,Win32,60,,,,space,0.34776,1,1,0.559505,,0,276,276,489,1,2c,33,3,19,
,,,,,,,,,,,,,,,,,,,,,,,,,images/exp1a_trial_89_colour3_distractors4_r.png,r,2,014,001,2021-04-20_16h55.56.134,searchDisc4,2020.2.10,Win32,60,,,,space,0.11426,2,1,0.69425,,0,277,277,89,1,1a,89,3,4,
,,,,,,,,,,,,,,,,,,,,,,,,,images/exp2b_trial_42_colour1_distractors31_r.png,r,2,014,001,2021-04-20_16h55.56.134,searchDisc4,2020.2.10,Win32,60,,,,space,0.038315,2,1,0.69717,,0,278,278,384,1,2b,42,1,31,
,,,,,,,,,,,,,,,,,,,,,,,,,images/exp2c_trial_63_colour2_distractors4_l.png,l,1,014,001,2021-04-20_16h55.56.134,searchDisc4,2020.2.10,Win32,60,,,,space,0.013705,1,1,0.750475,,0,279,279,519,1,2c,63,2,4,
,,,,,,,,,,,,,,,,,,,,,,,,,images/exp1b_trial_91_colour3_distractors19_r.png,r,2,014,001,2021-04-20_16h55.56.134,searchDisc4,2020.2.10,Win32,60,,,,space,0.073395,2,1,1.813985,,0,280,280,205,1,1b,91,3,19,
,,,,,,,,,,,,,,,,,,,,,,,,,images/exp2a_trial_92_colour3_distractors31_r.png,r,2,014,001,2021-04-20_16h55.56.134,searchDisc4,2020.2.10,Win32,60,,,,space,0.342985,2,1,0.6784,,0,281,281,320,1,2a,92,3,31,
,,,,,,,,,,,,,,,,,,,,,,,,,images/exp1a_trial_53_colour3_distractors19_r.png,r,2,014,001,2021-04-20_16h55.56.134,searchDisc4,2020.2.10,Win32,60,,,,space,0.298515,2,1,0.79749,,0,282,282,53,1,1a,53,3,19,
,,,,,,,,,,,,,,,,,,,,,,,,,images/exp1b_trial_23_colour1_distractors43_l.png,l,1,014,001,2021-04-20_16h55.56.134,searchDisc4,2020.2.10,Win32,60,,,,space,0.285805,1,1,1.03909,,0,283,283,137,1,1b,23,1,43,
,,,,,,,,,,,,,,,,,,,,,,,,,images/exp2b_trial_19_colour1_distractors4_l.png,l,1,014,001,2021-04-20_16h55.56.134,searchDisc4,2020.2.10,Win32,60,,,,space,0.055875,1,1,0.68639,,0,284,284,361,1,2b,19,1,4,
,,,,,,,,,,,,,,,,,,,,,,,,,images/exp2b_trial_38_colour1_distractors1_r.png,r,2,014,001,2021-04-20_16h55.56.134,searchDisc4,2020.2.10,Win32,60,,,,space,0.00084,2,1,0.54122,,0,285,285,380,1,2b,38,1,1,
,,,,,,,,,,,,,,,,,,,,,,,,,images/exp2b_trial_110_colour3_distractors31_l.png,l,1,014,001,2021-04-20_16h55.56.134,searchDisc4,2020.2.10,Win32,60,,,,space,0.016565,1,1,0.654125,,0,286,286,452,1,2b,110,3,31,
,,,,,,,,,,,,,,,,,,,,,,,,,images/exp2b_trial_65_colour2_distractors19_l.png,l,1,014,001,2021-04-20_16h55.56.134,searchDisc4,2020.2.10,Win32,60,,,,space,0.034205,1,1,0.619215,,0,287,287,407,1,2b,65,2,19,
,,,,,,,,,,,,,,,,,,,,,,,,,images/exp1a_trial_104_colour2_distractors31_l.png,l,1,014,001,2021-04-20_16h55.56.134,searchDisc4,2020.2.10,Win32,60,,,,space,0.002925,1,1,0.84859,,0,288,288,104,1,1a,104,2,31,
,,,,,,,,,,,,,,,,,,,,,,,,,images/exp1b_trial_45_colour2_distractors4_r.png,r,2,014,001,2021-04-20_16h55.56.134,searchDisc4,2020.2.10,Win32,60,,,,space,0.0423,2,1,0.626785,,0,289,289,159,1,1b,45,2,4,
,,,,,,,,,,,,,,,,,,,,,,,,,images/exp2c_trial_112_colour0_distractors0_r.png,r,2,014,001,2021-04-20_16h55.56.134,searchDisc4,2020.2.10,Win32,60,,,,space,0.03278,2,1,0.58632,,0,290,290,568,1,2c,112,0,0,
,,,,,,,,,,,,,,,,,,,,,,,,,images/exp2a_trial_103_colour2_distractors19_l.png,l,1,014,001,2021-04-20_16h55.56.134,searchDisc4,2020.2.10,Win32,60,,,,space,0.0036,1,1,0.598365,,0,291,291,331,1,2a,103,2,19,
,,,,,,,,,,,,,,,,,,,,,,,,,images/exp2b_trial_56_colour1_distractors1_l.png,l,1,014,001,2021-04-20_16h55.56.134,searchDisc4,2020.2.10,Win32,60,,,,space,0.021065,1,1,0.58117,,0,292,292,398,1,2b,56,1,1,
,,,,,,,,,,,,,,,,,,,,,,,,,images/exp1a_trial_21_colour1_distractors19_l.png,l,1,014,001,2021-04-20_16h55.56.134,searchDisc4,2020.2.10,Win32,60,,,,space,0.00533,1,1,0.594225,,0,293,293,21,1,1a,21,1,19,
,,,,,,,,,,,,,,,,,,,,,,,,,images/exp1b_trial_90_colour3_distractors9_r.png,r,2,014,001,2021-04-20_16h55.56.134,searchDisc4,2020.2.10,Win32,60,,,,space,0.00684,2,1,0.786365,,0,294,294,204,1,1b,90,3,9,
,,,,,,,,,,,,,,,,,,,,,,,,,images/exp2a_trial_81_colour1_distractors43_r.png,r,2,014,001,2021-04-20_16h55.56.134,searchDisc4,2020.2.10,Win32,60,,,,space,0.085435,2,1,0.58946,,0,295,295,309,1,2a,81,1,43,
,,,,,,,,,,,,,,,,,,,,,,,,,images/exp2a_trial_106_colour3_distractors1_l.png,l,1,014,001,2021-04-20_16h55.56.134,searchDisc4,2020.2.10,Win32,60,,,,space,0.00089,2,0,0.654945,,0,296,296,334,1,2a,106,3,1,
,,,,,,,,,,,,,,,,,,,,,,,,,images/exp1b_trial_109_colour3_distractors19_l.png,l,1,014,001,2021-04-20_16h55.56.134,searchDisc4,2020.2.10,Win32,60,,,,space,0.0039,1,1,1.35088,,0,297,297,223,1,1b,109,3,19,
,,,,,,,,,,,,,,,,,,,,,,,,,images/exp1a_trial_4_colour1_distractors31_r.png,r,2,014,001,2021-04-20_16h55.56.134,searchDisc4,2020.2.10,Win32,60,,,,space,0.00389,2,1,0.678725,,0,298,298,4,1,1a,4,1,31,
,,,,,,,,,,,,,,,,,,,,,,,,,images/exp1b_trial_77_colour1_distractors4_r.png,r,2,014,001,2021-04-20_16h55.56.134,searchDisc4,2020.2.10,Win32,60,,,,space,0.281935,2,1,0.686305,space,0,299,299,191,1,1b,77,1,4,1.858875
,,,,,,,,,,,,,,,,,,,,,,,,,images/exp2c_trial_70_colour3_distractors9_l.png,l,1,014,001,2021-04-20_16h55.56.134,searchDisc4,2020.2.10,Win32,60,,,,space,0.412525,1,1,0.608555,,0,300,300,526,1,2c,70,3,9,
,,,,,,,,,,,,,,,,,,,,,,,,,images/exp2b_trial_16_colour3_distractors31_r.png,r,2,014,001,2021-04-20_16h55.56.134,searchDisc4,2020.2.10,Win32,60,,,,space,0.047885,2,1,0.798025,,0,301,301,358,1,2b,16,3,31,
,,,,,,,,,,,,,,,,,,,,,,,,,images/exp2b_trial_70_colour3_distractors9_l.png,l,1,014,001,2021-04-20_16h55.56.134,searchDisc4,2020.2.10,Win32,60,,,,space,0.00593,1,1,0.855485,,0,302,302,412,1,2b,70,3,9,
,,,,,,,,,,,,,,,,,,,,,,,,,images/exp2c_trial_58_colour1_distractors9_l.png,l,1,014,001,2021-04-20_16h55.56.134,searchDisc4,2020.2.10,Win32,60,,,,space,0.037525,1,1,0.63744,,0,303,303,514,1,2c,58,1,9,
,,,,,,,,,,,,,,,,,,,,,,,,,images/exp2b_trial_30_colour3_distractors1_l.png,l,1,014,001,2021-04-20_16h55.56.134,searchDisc4,2020.2.10,Win32,60,,,,space,0.041545,2,0,0.58252,,0,304,304,372,1,2b,30,3,1,
,,,,,,,,,,,,,,,,,,,,,,,,,images/exp1b_trial_41_colour1_distractors19_r.png,r,2,014,001,2021-04-20_16h55.56.134,searchDisc4,2020.2.10,Win32,60,,,,space,0.017365,2,1,1.16582,,0,305,305,155,1,1b,41,1,19,
,,,,,,,,,,,,,,,,,,,,,,,,,images/exp2c_trial_84_colour2_distractors9_r.png,r,2,014,001,2021-04-20_16h55.56.134,searchDisc4,2020.2.10,Win32,60,,,,space,0.367135,2,1,0.65785,,0,306,306,540,1,2c,84,2,9,
,,,,,,,,,,,,,,,,,,,,,,,,,images/exp2a_trial_53_colour3_distractors19_r.png,r,2,014,001,2021-04-20_16h55.56.134,searchDisc4,2020.2.10,Win32,60,,,,space,0.371815,2,1,0.503205,,0,307,307,281,1,2a,53,3,19,
,,,,,,,,,,,,,,,,,,,,,,,,,images/exp2c_trial_10_colour2_distractors31_r.png,r,2,014,001,2021-04-20_16h55.56.134,searchDisc4,2020.2.10,Win32,60,,,,space,0.03331,2,1,0.46648,,0,308,308,466,1,2c,10,2,31,
,,,,,,,,,,,,,,,,,,,,,,,,,images/exp2b_trial_108_colour3_distractors9_l.png,l,1,014,001,2021-04-20_16h55.56.134,searchDisc4,2020.2.10,Win32,60,,,,space,0.01747,1,1,0.68231,,0,309,309,450,1,2b,108,3,9,
,,,,,,,,,,,,,,,,,,,,,,,,,images/exp1b_trial_49_colour2_distractors43_r.png,r,2,014,001,2021-04-20_16h55.56.134,searchDisc4,2020.2.10,Win32,60,,,,space,0.001945,2,1,1.380175,,0,310,310,163,1,1b,49,2,43,
,,,,,,,,,,,,,,,,,,,,,,,,,images/exp2a_trial_44_colour2_distractors1_r.png,r,2,014,001,2021-04-20_16h55.56.134,searchDisc4,2020.2.10,Win32,60,,,,space,0.37168,2,1,0.8412,,0,311,311,272,1,2a,44,2,1,
,,,,,,,,,,,,,,,,,,,,,,,,,images/exp2b_trial_91_colour3_distractors19_r.png,r,2,014,001,2021-04-20_16h55.56.134,searchDisc4,2020.2.10,Win32,60,,,,space,0.270055,2,1,0.533305,,0,312,312,433,1,2b,91,3,19,
,,,,,,,,,,,,,,,,,,,,,,,,,images/exp2c_trial_0_colour1_distractors1_r.png,r,2,014,001,2021-04-20_16h55.56.134,searchDisc4,2020.2.10,Win32,60,,,,space,0.323765,2,1,0.45611,,0,313,313,456,1,2c,0,1,1,
,,,,,,,,,,,,,,,,,,,,,,,,,images/exp2b_trial_7_colour2_distractors4_r.png,r,2,014,001,2021-04-20_16h55.56.134,searchDisc4,2020.2.10,Win32,60,,,,space,0.00461,2,1,0.976475,,0,314,314,349,1,2b,7,2,4,
,,,,,,,,,,,,,,,,,,,,,,,,,images/exp1b_trial_48_colour2_distractors31_r.png,r,2,014,001,2021-04-20_16h55.56.134,searchDisc4,2020.2.10,Win32,60,,,,space,0.382525,2,1,0.605145,,0,315,315,162,1,1b,48,2,31,
,,,,,,,,,,,,,,,,,,,,,,,,,images/exp1a_trial_22_colour1_distractors31_l.png,l,1,014,001,2021-04-20_16h55.56.134,searchDisc4,2020.2.10,Win32,60,,,,space,0.765085,1,1,0.532025,,0,316,316,22,1,1a,22,1,31,
,,,,,,,,,,,,,,,,,,,,,,,,,images/exp1b_trial_98_colour1_distractors31_l.png,l,1,014,001,2021-04-20_16h55.56.134,searchDisc4,2020.2.10,Win32,60,,,,space,0.057265,1,1,1.468285,,0,317,317,212,1,1b,98,1,31,
,,,,,,,,,,,,,,,,,,,,,,,,,images/exp1a_trial_20_colour1_distractors9_l.png,l,1,014,001,2021-04-20_16h55.56.134,searchDisc4,2020.2.10,Win32,60,,,,space,0.034155,1,1,0.83562,,0,318,318,20,1,1a,20,1,9,
,,,,,,,,,,,,,,,,,,,,,,,,,images/exp2c_trial_91_colour3_distractors19_r.png,r,2,014,001,2021-04-20_16h55.56.134,searchDisc4,2020.2.10,Win32,60,,,,space,0.049665,2,1,0.70467,,0,319,319,547,1,2c,91,3,19,
,,,,,,,,,,,,,,,,,,,,,,,,,images/exp1a_trial_95_colour1_distractors4_l.png,l,1,014,001,2021-04-20_16h55.56.134,searchDisc4,2020.2.10,Win32,60,,,,space,0.01739,1,1,0.648295,,0,320,320,95,1,1a,95,1,4,
,,,,,,,,,,,,,,,,,,,,,,,,,images/exp2a_trial_101_colour2_distractors4_l.png,l,1,014,001,2021-04-20_16h55.56.134,searchDisc4,2020.2.10,Win32,60,,,,space,0.00709,1,1,0.698075,,0,321,321,329,1,2a,101,2,4,
,,,,,,,,,,,,,,,,,,,,,,,,,images/exp2b_trial_1_colour1_distractors4_r.png,r,2,014,001,2021-04-20_16h55.56.134,searchDisc4,2020.2.10,Win32,60,,,,space,0.03471,2,1,0.890055,,0,322,322,343,1,2b,1,1,4,
,,,,,,,,,,,,,,,,,,,,,,,,,images/exp2a_trial_107_colour3_distractors4_l.png,l,1,014,001,2021-04-20_16h55.56.134,searchDisc4,2020.2.10,Win32,60,,,,space,0.032535,1,1,0.580895,,0,323,323,335,1,2a,107,3,4,
,,,,,,,,,,,,,,,,,,,,,,,,,images/exp2c_trial_28_colour2_distractors31_l.png,l,1,014,001,2021-04-20_16h55.56.134,searchDisc4,2020.2.10,Win32,60,,,,space,0.0246,1,1,0.754375,,0,324,324,484,1,2c,28,2,31,
,,,,,,,,,,,,,,,,,,,,,,,,,images/exp2b_trial_57_colour1_distractors4_l.png,l,1,014,001,2021-04-20_16h55.56.134,searchDisc4,2020.2.10,Win32,60,,,,space,0.3662,1,1,0.6522,,0,325,325,399,1,2b,57,1,4,
,,,,,,,,,,,,,,,,,,,,,,,,,images/exp2c_trial_80_colour1_distractors31_r.png,r,2,014,001,2021-04-20_16h55.56.134,searchDisc4,2020.2.10,Win32,60,,,,space,0.30268,2,1,0.711635,,0,326,326,536,1,2c,80,1,31,
,,,,,,,,,,,,,,,,,,,,,,,,,images/exp1b_trial_69_colour3_distractors4_l.png,l,1,014,001,2021-04-20_16h55.56.134,searchDisc4,2020.2.10,Win32,60,,,,space,0.01651,1,1,0.80071,,0,327,327,183,1,1b,69,3,4,
,,,,,,,,,,,,,,,,,,,,,,,,,images/exp2a_trial_22_colour1_distractors31_l.png,l,1,014,001,2021-04-20_16h55.56.134,searchDisc4,2020.2.10,Win32,60,,,,space,0.031695,1,1,0.80399,,0,328,328,250,1,2a,22,1,31,
,,,,,,,,,,,,,,,,,,,,,,,,,images/exp2b_trial_12_colour3_distractors1_r.png,r,2,014,001,2021-04-20_16h55.56.134,searchDisc4,2020.2.10,Win32,60,,,,space,0.403985,2,1,0.687065,,0,329,329,354,1,2b,12,3,1,
,,,,,,,,,,,,,,,,,,,,,,,,,images/exp2b_trial_64_colour2_distractors9_l.png,l,1,014,001,2021-04-20_16h55.56.134,searchDisc4,2020.2.10,Win32,60,,,,space,0.3372,1,1,0.658235,,0,330,330,406,1,2b,64,2,9,
,,,,,,,,,,,,,,,,,,,,,,,,,images/exp2b_trial_47_colour2_distractors19_r.png,r,2,014,001,2021-04-20_16h55.56.134,searchDisc4,2020.2.10,Win32,60,,,,space,0.305805,2,1,0.62401,,0,331,331,389,1,2b,47,2,19,
,,,,,,,,,,,,,,,,,,,,,,,,,images/exp1a_trial_56_colour1_distractors1_l.png,l,1,014,001,2021-04-20_16h55.56.134,searchDisc4,2020.2.10,Win32,60,,,,space,0.02459,1,1,0.679495,,0,332,332,56,1,1a,56,1,1,
,,,,,,,,,,,,,,,,,,,,,,,,,images/exp2a_trial_31_colour3_distractors4_l.png,l,1,014,001,2021-04-20_16h55.56.134,searchDisc4,2020.2.10,Win32,60,,,,space,0.01655,1,1,0.57321,,0,333,333,259,1,2a,31,3,4,
,,,,,,,,,,,,,,,,,,,,,,,,,images/exp2c_trial_18_colour1_distractors1_l.png,l,1,014,001,2021-04-20_16h55.56.134,searchDisc4,2020.2.10,Win32,60,,,,space,0.025,1,1,0.45304,,0,334,334,474,1,2c,18,1,1,
,,,,,,,,,,,,,,,,,,,,,,,,,images/exp2a_trial_39_colour1_distractors4_r.png,r,2,014,001,2021-04-20_16h55.56.134,searchDisc4,2020.2.10,Win32,60,,,,space,0.00545,2,1,0.59867,,0,335,335,267,1,2a,39,1,4,
,,,,,,,,,,,,,,,,,,,,,,,,,images/exp2a_trial_86_colour2_distractors31_r.png,r,2,014,001,2021-04-20_16h55.56.134,searchDisc4,2020.2.10,Win32,60,,,,space,0.00087,2,1,0.58323,,0,336,336,314,1,2a,86,2,31,
,,,,,,,,,,,,,,,,,,,,,,,,,images/exp2c_trial_8_colour2_distractors9_r.png,r,2,014,001,2021-04-20_16h55.56.134,searchDisc4,2020.2.10,Win32,60,,,,space,0.013395,2,1,0.68775,,0,337,337,464,1,2c,8,2,9,
,,,,,,,,,,,,,,,,,,,,,,,,,images/exp1a_trial_54_colour3_distractors31_r.png,r,2,014,001,2021-04-20_16h55.56.134,searchDisc4,2020.2.10,Win32,60,,,,space,0.023565,2,1,0.620465,,0,338,338,54,1,1a,54,3,31,
,,,,,,,,,,,,,,,,,,,,,,,,,images/exp1a_trial_44_colour2_distractors1_r.png,r,2,014,001,2021-04-20_16h55.56.134,searchDisc4,2020.2.10,Win32,60,,,,space,0.71052,2,1,0.92771,,0,339,339,44,1,1a,44,2,1,
,,,,,,,,,,,,,,,,,,,,,,,,,images/exp2a_trial_40_colour1_distractors9_r.png,r,2,014,001,2021-04-20_16h55.56.134,searchDisc4,2020.2.10,Win32,60,,,,space,0.047395,2,1,0.615605,,0,340,340,268,1,2a,40,1,9,
,,,,,,,,,,,,,,,,,,,,,,,,,images/exp2c_trial_72_colour3_distractors31_l.png,l,1,014,001,2021-04-20_16h55.56.134,searchDisc4,2020.2.10,Win32,60,,,,space,0.33127,1,1,0.686175,,0,341,341,528,1,2c,72,3,31,
,,,,,,,,,,,,,,,,,,,,,,,,,images/exp1b_trial_40_colour1_distractors9_r.png,r,2,014,001,2021-04-20_16h55.56.134,searchDisc4,2020.2.10,Win32,60,,,,space,0.023215,2,1,0.8856,,0,342,342,154,1,1b,40,1,9,
,,,,,,,,,,,,,,,,,,,,,,,,,images/exp2a_trial_52_colour3_distractors9_r.png,r,2,014,001,2021-04-20_16h55.56.134,searchDisc4,2020.2.10,Win32,60,,,,space,0.01451,2,1,0.59954,,0,343,343,280,1,2a,52,3,9,
,,,,,,,,,,,,,,,,,,,,,,,,,images/exp1b_trial_72_colour3_distractors31_l.png,l,1,014,001,2021-04-20_16h55.56.134,searchDisc4,2020.2.10,Win32,60,,,,space,0.365605,1,1,1.06304,,0,344,344,186,1,1b,72,3,31,
,,,,,,,,,,,,,,,,,,,,,,,,,images/exp1b_trial_0_colour1_distractors1_r.png,r,2,014,001,2021-04-20_16h55.56.134,searchDisc4,2020.2.10,Win32,60,,,,space,0.000855,2,1,0.70041,,0,345,345,114,1,1b,0,1,1,
,,,,,,,,,,,,,,,,,,,,,,,,,images/exp2a_trial_21_colour1_distractors19_l.png,l,1,014,001,2021-04-20_16h55.56.134,searchDisc4,2020.2.10,Win32,60,,,,space,0.351785,1,1,0.76438,,0,346,346,249,1,2a,21,1,19,
,,,,,,,,,,,,,,,,,,,,,,,,,images/exp2b_trial_75_colour0_distractors0_l.png,l,1,014,001,2021-04-20_16h55.56.134,searchDisc4,2020.2.10,Win32,60,,,,space,0.3429,1,1,0.6093,,0,347,347,417,1,2b,75,0,0,
,,,,,,,,,,,,,,,,,,,,,,,,,images/exp1a_trial_1_colour1_distractors4_r.png,r,2,014,001,2021-04-20_16h55.56.134,searchDisc4,2020.2.10,Win32,60,,,,space,0.353715,2,1,0.499545,,0,348,348,1,1,1a,1,1,4,
,,,,,,,,,,,,,,,,,,,,,,,,,images/exp2c_trial_79_colour1_distractors19_r.png,r,2,014,001,2021-04-20_16h55.56.134,searchDisc4,2020.2.10,Win32,60,,,,space,0.022855,2,1,0.61586,,0,349,349,535,1,2c,79,1,19,
,,,,,,,,,,,,,,,,,,,,,,,,,images/exp1a_trial_27_colour2_distractors19_l.png,l,1,014,001,2021-04-20_16h55.56.134,searchDisc4,2020.2.10,Win32,60,,,,space,0.34146,1,1,0.651755,,0,350,350,27,1,1a,27,2,19,
,,,,,,,,,,,,,,,,,,,,,,,,,images/exp2c_trial_95_colour1_distractors4_l.png,l,1,014,001,2021-04-20_16h55.56.134,searchDisc4,2020.2.10,Win32,60,,,,space,0.366395,1,1,0.53656,,0,351,351,551,1,2c,95,1,4,
,,,,,,,,,,,,,,,,,,,,,,,,,images/exp1b_trial_50_colour3_distractors1_r.png,r,2,014,001,2021-04-20_16h55.56.134,searchDisc4,2020.2.10,Win32,60,,,,space,0.015325,2,1,0.81514,,0,352,352,164,1,1b,50,3,1,
,,,,,,,,,,,,,,,,,,,,,,,,,images/exp1b_trial_70_colour3_distractors9_l.png,l,1,014,001,2021-04-20_16h55.56.134,searchDisc4,2020.2.10,Win32,60,,,,space,0.014165,1,1,0.904505,,0,353,353,184,1,1b,70,3,9,
,,,,,,,,,,,,,,,,,,,,,,,,,images/exp2b_trial_0_colour1_distractors1_r.png,r,2,014,001,2021-04-20_16h55.56.134,searchDisc4,2020.2.10,Win32,60,,,,space,0.005685,2,1,0.784365,,0,354,354,342,1,2b,0,1,1,
,,,,,,,,,,,,,,,,,,,,,,,,,images/exp2a_trial_70_colour3_distractors9_l.png,l,1,014,001,2021-04-20_16h55.56.134,searchDisc4,2020.2.10,Win32,60,,,,space,0.348395,1,1,0.513555,,0,355,355,298,1,2a,70,3,9,
,,,,,,,,,,,,,,,,,,,,,,,,,images/exp1a_trial_40_colour1_distractors9_r.png,r,2,014,001,2021-04-20_16h55.56.134,searchDisc4,2020.2.10,Win32,60,,,,space,0.00095,2,1,0.682215,,0,356,356,40,1,1a,40,1,9,
,,,,,,,,,,,,,,,,,,,,,,,,,images/exp2c_trial_38_colour1_distractors1_r.png,r,2,014,001,2021-04-20_16h55.56.134,searchDisc4,2020.2.10,Win32,60,,,,space,0.01456,2,1,0.560375,,0,357,357,494,1,2c,38,1,1,
,,,,,,,,,,,,,,,,,,,,,,,,,images/exp2a_trial_96_colour1_distractors9_l.png,l,1,014,001,2021-04-20_16h55.56.134,searchDisc4,2020.2.10,Win32,60,,,,space,0.06552,1,1,0.56471,,0,358,358,324,1,2a,96,1,9,
,,,,,,,,,,,,,,,,,,,,,,,,,images/exp2a_trial_50_colour3_distractors1_r.png,r,2,014,001,2021-04-20_16h55.56.134,searchDisc4,2020.2.10,Win32,60,,,,space,0.01557,2,1,0.60181,space,0,359,359,278,1,2a,50,3,1,0.00072
,,,,,,,,,,,,,,,,,,,,,,,,,images/exp2c_trial_29_colour2_distractors43_l.png,l,1,014,001,2021-04-20_16h55.56.134,searchDisc4,2020.2.10,Win32,60,,,,space,0.36127,1,1,0.734865,,0,360,360,485,1,2c,29,2,43,
,,,,,,,,,,,,,,,,,,,,,,,,,images/exp1b_trial_97_colour1_distractors19_l.png,l,1,014,001,2021-04-20_16h55.56.134,searchDisc4,2020.2.10,Win32,60,,,,space,0.003005,1,1,0.797365,,0,361,361,211,1,1b,97,1,19,
,,,,,,,,,,,,,,,,,,,,,,,,,images/exp2c_trial_20_colour1_distractors9_l.png,l,1,014,001,2021-04-20_16h55.56.134,searchDisc4,2020.2.10,Win32,60,,,,space,0.41463,1,1,0.551115,,0,362,362,476,1,2c,20,1,9,
,,,,,,,,,,,,,,,,,,,,,,,,,images/exp2b_trial_51_colour3_distractors4_r.png,r,2,014,001,2021-04-20_16h55.56.134,searchDisc4,2020.2.10,Win32,60,,,,space,0.29096,2,1,0.626395,,0,363,363,393,1,2b,51,3,4,
,,,,,,,,,,,,,,,,,,,,,,,,,images/exp2c_trial_97_colour1_distractors19_l.png,l,1,014,001,2021-04-20_16h55.56.134,searchDisc4,2020.2.10,Win32,60,,,,space,0.01181,1,1,0.6807,,0,364,364,553,1,2c,97,1,19,
,,,,,,,,,,,,,,,,,,,,,,,,,images/exp1a_trial_58_colour1_distractors9_l.png,l,1,014,001,2021-04-20_16h55.56.134,searchDisc4,2020.2.10,Win32,60,,,,space,0.31388,1,1,0.78258,,0,365,365,58,1,1a,58,1,9,
,,,,,,,,,,,,,,,,,,,,,,,,,images/exp1b_trial_31_colour3_distractors4_l.png,l,1,014,001,2021-04-20_16h55.56.134,searchDisc4,2020.2.10,Win32,60,,,,space,0.002795,1,1,0.87461,,0,366,366,145,1,1b,31,3,4,
,,,,,,,,,,,,,,,,,,,,,,,,,images/exp1a_trial_8_colour2_distractors9_r.png,r,2,014,001,2021-04-20_16h55.56.134,searchDisc4,2020.2.10,Win32,60,,,,space,0.423295,2,1,0.51529,,0,367,367,8,1,1a,8,2,9,
,,,,,,,,,,,,,,,,,,,,,,,,,images/exp2a_trial_105_colour2_distractors43_l.png,l,1,014,001,2021-04-20_16h55.56.134,searchDisc4,2020.2.10,Win32,60,,,,space,0.00092,1,1,0.65277,,0,368,368,333,1,2a,105,2,43,
,,,,,,,,,,,,,,,,,,,,,,,,,images/exp2a_trial_109_colour3_distractors19_l.png,l,1,014,001,2021-04-20_16h55.56.134,searchDisc4,2020.2.10,Win32,60,,,,space,0.014805,1,1,0.53016,,0,369,369,337,1,2a,109,3,19,
,,,,,,,,,,,,,,,,,,,,,,,,,images/exp2c_trial_59_colour1_distractors19_l.png,l,1,014,001,2021-04-20_16h55.56.134,searchDisc4,2020.2.10,Win32,60,,,,space,0.411095,1,1,0.55519,,0,370,370,515,1,2c,59,1,19,
,,,,,,,,,,,,,,,,,,,,,,,,,images/exp2b_trial_112_colour0_distractors0_r.png,r,2,014,001,2021-04-20_16h55.56.134,searchDisc4,2020.2.10,Win32,60,,,,space,0.33257,2,1,0.66121,,0,371,371,454,1,2b,112,0,0,
,,,,,,,,,,,,,,,,,,,,,,,,,images/exp2c_trial_37_colour0_distractors0_l.png,l,1,014,001,2021-04-20_16h55.56.134,searchDisc4,2020.2.10,Win32,60,,,,space,0.3733,1,1,0.46231,,0,372,372,493,1,2c,37,0,0,
,,,,,,,,,,,,,,,,,,,,,,,,,images/exp1b_trial_108_colour3_distractors9_l.png,l,1,014,001,2021-04-20_16h55.56.134,searchDisc4,2020.2.10,Win32,60,,,,space,0.00693,2,0,0.69735,,0,373,373,222,1,1b,108,3,9,
,,,,,,,,,,,,,,,,,,,,,,,,,images/exp2b_trial_103_colour2_distractors19_l.png,l,1,014,001,2021-04-20_16h55.56.134,searchDisc4,2020.2.10,Win32,60,,,,space,0.34275,1,1,0.58211,,0,374,374,445,1,2b,103,2,19,
,,,,,,,,,,,,,,,,,,,,,,,,,images/exp2b_trial_22_colour1_distractors31_l.png,l,1,014,001,2021-04-20_16h55.56.134,searchDisc4,2020.2.10,Win32,60,,,,space,0.03619,1,1,0.53071,,0,375,375,364,1,2b,22,1,31,
,,,,,,,,,,,,,,,,,,,,,,,,,images/exp1a_trial_24_colour2_distractors1_l.png,l,1,014,001,2021-04-20_16h55.56.134,searchDisc4,2020.2.10,Win32,60,,,,space,0.32263,1,1,0.5236,,0,376,376,24,1,1a,24,2,1,
,,,,,,,,,,,,,,,,,,,,,,,,,images/exp1b_trial_112_colour0_distractors0_r.png,r,2,014,001,2021-04-20_16h55.56.134,searchDisc4,2020.2.10,Win32,60,,,,space,0.27963,2,1,0.681655,,0,377,377,226,1,1b,112,0,0,
,,,,,,,,,,,,,,,,,,,,,,,,,images/exp2b_trial_67_colour2_distractors43_l.png,l,1,014,001,2021-04-20_16h55.56.134,searchDisc4,2020.2.10,Win32,60,,,,space,0.0009,1,1,0.84434,,0,378,378,409,1,2b,67,2,43,
,,,,,,,,,,,,,,,,,,,,,,,,,images/exp1a_trial_97_colour1_distractors19_l.png,l,1,014,001,2021-04-20_16h55.56.134,searchDisc4,2020.2.10,Win32,60,,,,space,0.337205,1,1,0.591915,,0,379,379,97,1,1a,97,1,19,
,,,,,,,,,,,,,,,,,,,,,,,,,images/exp2b_trial_20_colour1_distractors9_l.png,l,1,014,001,2021-04-20_16h55.56.134,searchDisc4,2020.2.10,Win32,60,,,,space,0.27456,1,1,0.61489,,0,380,380,362,1,2b,20,1,9,
,,,,,,,,,,,,,,,,,,,,,,,,,images/exp1a_trial_78_colour1_distractors9_r.png,r,2,014,001,2021-04-20_16h55.56.134,searchDisc4,2020.2.10,Win32,60,,,,space,0.265095,2,1,0.97389,,0,381,381,78,1,1a,78,1,9,
,,,,,,,,,,,,,,,,,,,,,,,,,images/exp2b_trial_68_colour3_distractors1_l.png,l,1,014,001,2021-04-20_16h55.56.134,searchDisc4,2020.2.10,Win32,60,,,,space,0.099385,1,1,0.72512,,0,382,382,410,1,2b,68,3,1,
,,,,,,,,,,,,,,,,,,,,,,,,,images/exp1b_trial_93_colour3_distractors43_r.png,r,2,014,001,2021-04-20_16h55.56.134,searchDisc4,2020.2.10,Win32,60,,,,space,0.054225,2,1,1.28556,,0,383,383,207,1,1b,93,3,43,
,,,,,,,,,,,,,,,,,,,,,,,,,images/exp1b_trial_79_colour1_distractors19_r.png,r,2,014,001,2021-04-20_16h55.56.134,searchDisc4,2020.2.10,Win32,60,,,,space,0.32137,2,1,0.703535,,0,384,384,193,1,1b,79,1,19,
,,,,,,,,,,,,,,,,,,,,,,,,,images/exp2b_trial_77_colour1_distractors4_r.png,r,2,014,001,2021-04-20_16h55.56.134,searchDisc4,2020.2.10,Win32,60,,,,space,0.29392,2,1,0.65533,,0,385,385,419,1,2b,77,1,4,
,,,,,,,,,,,,,,,,,,,,,,,,,images/exp1b_trial_28_colour2_distractors31_l.png,l,1,014,001,2021-04-20_16h55.56.134,searchDisc4,2020.2.10,Win32,60,,,,space,0.025915,1,1,0.79854,,0,386,386,142,1,1b,28,2,31,
,,,,,,,,,,,,,,,,,,,,,,,,,images/exp2a_trial_88_colour3_distractors1_r.png,r,2,014,001,2021-04-20_16h55.56.134,searchDisc4,2020.2.10,Win32,60,,,,space,0.36635,2,1,1.13951,,0,387,387,316,1,2a,88,3,1,
,,,,,,,,,,,,,,,,,,,,,,,,,images/exp2b_trial_26_colour2_distractors9_l.png,l,1,014,001,2021-04-20_16h55.56.134,searchDisc4,2020.2.10,Win32,60,,,,space,0.025505,1,1,0.745395,,0,388,388,368,1,2b,26,2,9,
,,,,,,,,,,,,,,,,,,,,,,,,,images/exp1b_trial_104_colour2_distractors31_l.png,l,1,014,001,2021-04-20_16h55.56.134,searchDisc4,2020.2.10,Win32,60,,,,space,0.30071,1,1,1.32079,,0,389,389,218,1,1b,104,2,31,
,,,,,,,,,,,,,,,,,,,,,,,,,images/exp2b_trial_54_colour3_distractors31_r.png,r,2,014,001,2021-04-20_16h55.56.134,searchDisc4,2020.2.10,Win32,60,,,,space,0.3322,2,1,0.70547,,0,390,390,396,1,2b,54,3,31,
,,,,,,,,,,,,,,,,,,,,,,,,,images/exp2c_trial_9_colour2_distractors19_r.png,r,2,014,001,2021-04-20_16h55.56.134,searchDisc4,2020.2.10,Win32,60,,,,space,0.28663,2,1,0.494375,,0,391,391,465,1,2c,9,2,19,
,,,,,,,,,,,,,,,,,,,,,,,,,images/exp2c_trial_69_colour3_distractors4_l.png,l,1,014,001,2021-04-20_16h55.56.134,searchDisc4,2020.2.10,Win32,60,,,,space,0.255715,1,1,0.72208,,0,392,392,525,1,2c,69,3,4,
,,,,,,,,,,,,,,,,,,,,,,,,,images/exp2b_trial_48_colour2_distractors31_r.png,r,2,014,001,2021-04-20_16h55.56.134,searchDisc4,2020.2.10,Win32,60,,,,space,0.224725,2,1,0.761695,,0,393,393,390,1,2b,48,2,31,
,,,,,,,,,,,,,,,,,,,,,,,,,images/exp2a_trial_4_colour1_distractors31_r.png,r,2,014,001,2021-04-20_16h55.56.134,searchDisc4,2020.2.10,Win32,60,,,,space,0.01529,2,1,0.77368,,0,394,394,232,1,2a,4,1,31,
,,,,,,,,,,,,,,,,,,,,,,,,,images/exp1b_trial_12_colour3_distractors1_r.png,r,2,014,001,2021-04-20_16h55.56.134,searchDisc4,2020.2.10,Win32,60,,,,space,0.318675,2,1,0.57393,,0,395,395,126,1,1b,12,3,1,
,,,,,,,,,,,,,,,,,,,,,,,,,images/exp2b_trial_37_colour0_distractors0_l.png,l,1,014,001,2021-04-20_16h55.56.134,searchDisc4,2020.2.10,Win32,60,,,,space,0.01018,1,1,0.607135,,0,396,396,379,1,2b,37,0,0,
,,,,,,,,,,,,,,,,,,,,,,,,,images/exp2c_trial_46_colour2_distractors9_r.png,r,2,014,001,2021-04-20_16h55.56.134,searchDisc4,2020.2.10,Win32,60,,,,space,0.33742,2,1,0.54742,,0,397,397,502,1,2c,46,2,9,
,,,,,,,,,,,,,,,,,,,,,,,,,images/exp2b_trial_101_colour2_distractors4_l.png,l,1,014,001,2021-04-20_16h55.56.134,searchDisc4,2020.2.10,Win32,60,,,,space,0.35186,1,1,0.53591,,0,398,398,443,1,2b,101,2,4,
,,,,,,,,,,,,,,,,,,,,,,,,,images/exp2a_trial_100_colour2_distractors1_l.png,l,1,014,001,2021-04-20_16h55.56.134,searchDisc4,2020.2.10,Win32,60,,,,space,0.27659,1,1,0.464835,,0,399,399,328,1,2a,100,2,1,
,,,,,,,,,,,,,,,,,,,,,,,,,images/exp1a_trial_10_colour2_distractors31_r.png,r,2,014,001,2021-04-20_16h55.56.134,searchDisc4,2020.2.10,Win32,60,,,,space,0.244185,2,1,0.787275,,0,400,400,10,1,1a,10,2,31,
,,,,,,,,,,,,,,,,,,,,,,,,,images/exp2c_trial_41_colour1_distractors19_r.png,r,2,014,001,2021-04-20_16h55.56.134,searchDisc4,2020.2.10,Win32,60,,,,space,0.341185,2,1,0.66978,,0,401,401,497,1,2c,41,1,19,
,,,,,,,,,,,,,,,,,,,,,,,,,images/exp1a_trial_5_colour1_distractors43_r.png,r,2,014,001,2021-04-20_16h55.56.134,searchDisc4,2020.2.10,Win32,60,,,,space,0.004375,2,1,0.660115,,0,402,402,5,1,1a,5,1,43,
,,,,,,,,,,,,,,,,,,,,,,,,,images/exp2b_trial_17_colour3_distractors43_r.png,r,2,014,001,2021-04-20_16h55.56.134,searchDisc4,2020.2.10,Win32,60,,,,space,0.000985,2,1,0.634765,,0,403,403,359,1,2b,17,3,43,
,,,,,,,,,,,,,,,,,,,,,,,,,images/exp2c_trial_16_colour3_distractors31_r.png,r,2,014,001,2021-04-20_16h55.56.134,searchDisc4,2020.2.10,Win32,60,,,,space,0.36707,2,1,0.55319,,0,404,404,472,1,2c,16,3,31,
,,,,,,,,,,,,,,,,,,,,,,,,,images/exp2a_trial_34_colour3_distractors31_l.png,l,1,014,001,2021-04-20_16h55.56.134,searchDisc4,2020.2.10,Win32,60,,,,space,0.38504,2,0,0.557135,,0,405,405,262,1,2a,34,3,31,
,,,,,,,,,,,,,,,,,,,,,,,,,images/exp1a_trial_48_colour2_distractors31_r.png,r,2,014,001,2021-04-20_16h55.56.134,searchDisc4,2020.2.10,Win32,60,,,,space,0.293355,2,1,0.59718,,0,406,406,48,1,1a,48,2,31,
,,,,,,,,,,,,,,,,,,,,,,,,,images/exp1b_trial_33_colour3_distractors19_l.png,l,1,014,001,2021-04-20_16h55.56.134,searchDisc4,2020.2.10,Win32,60,,,,space,0.259225,1,1,2.915785,,0,407,407,147,1,1b,33,3,19,
,,,,,,,,,,,,,,,,,,,,,,,,,images/exp1b_trial_18_colour1_distractors1_l.png,l,1,014,001,2021-04-20_16h55.56.134,searchDisc4,2020.2.10,Win32,60,,,,space,0.27125,1,1,0.83126,,0,408,408,132,1,1b,18,1,1,
,,,,,,,,,,,,,,,,,,,,,,,,,images/exp1b_trial_4_colour1_distractors31_r.png,r,2,014,001,2021-04-20_16h55.56.134,searchDisc4,2020.2.10,Win32,60,,,,space,0.243075,2,1,1.698055,,0,409,409,118,1,1b,4,1,31,
,,,,,,,,,,,,,,,,,,,,,,,,,images/exp2c_trial_44_colour2_distractors1_r.png,r,2,014,001,2021-04-20_16h55.56.134,searchDisc4,2020.2.10,Win32,60,,,,space,0.23596,2,1,0.53967,,0,410,410,500,1,2c,44,2,1,
,,,,,,,,,,,,,,,,,,,,,,,,,images/exp1a_trial_76_colour1_distractors1_r.png,r,2,014,001,2021-04-20_16h55.56.134,searchDisc4,2020.2.10,Win32,60,,,,space,0.224865,1,0,0.636405,,0,411,411,76,1,1a,76,1,1,
,,,,,,,,,,,,,,,,,,,,,,,,,images/exp2b_trial_81_colour1_distractors43_r.png,r,2,014,001,2021-04-20_16h55.56.134,searchDisc4,2020.2.10,Win32,60,,,,space,0.349465,2,1,1.305885,,0,412,412,423,1,2b,81,1,43,
,,,,,,,,,,,,,,,,,,,,,,,,,images/exp1a_trial_67_colour2_distractors43_l.png,l,1,014,001,2021-04-20_16h55.56.134,searchDisc4,2020.2.10,Win32,60,,,,space,0.00087,1,1,0.671,,0,413,413,67,1,1a,67,2,43,
,,,,,,,,,,,,,,,,,,,,,,,,,images/exp1b_trial_102_colour2_distractors9_l.png,l,1,014,001,2021-04-20_16h55.56.134,searchDisc4,2020.2.10,Win32,60,,,,space,0.323105,1,1,0.582555,,0,414,414,216,1,1b,102,2,9,
,,,,,,,,,,,,,,,,,,,,,,,,,images/exp1b_trial_58_colour1_distractors9_l.png,l,1,014,001,2021-04-20_16h55.56.134,searchDisc4,2020.2.10,Win32,60,,,,space,0.26675,1,1,1.11249,,0,415,415,172,1,1b,58,1,9,
,,,,,,,,,,,,,,,,,,,,,,,,,images/exp2a_trial_42_colour1_distractors31_r.png,r,2,014,001,2021-04-20_16h55.56.134,searchDisc4,2020.2.10,Win32,60,,,,space,0.06299,2,1,0.618175,,0,416,416,270,1,2a,42,1,31,
,,,,,,,,,,,,,,,,,,,,,,,,,images/exp2a_trial_35_colour3_distractors43_l.png,l,1,014,001,2021-04-20_16h55.56.134,searchDisc4,2020.2.10,Win32,60,,,,space,0.040375,1,1,0.59214,,0,417,417,263,1,2a,35,3,43,
,,,,,,,,,,,,,,,,,,,,,,,,,images/exp2c_trial_1_colour1_distractors4_r.png,r,2,014,001,2021-04-20_16h55.56.134,searchDisc4,2020.2.10,Win32,60,,,,space,0.053175,2,1,0.67501,,0,418,418,457,1,2c,1,1,4,
,,,,,,,,,,,,,,,,,,,,,,,,,images/exp2a_trial_95_colour1_distractors4_l.png,l,1,014,001,2021-04-20_16h55.56.134,searchDisc4,2020.2.10,Win32,60,,,,space,0.09086,2,0,0.582835,space,0,419,419,323,1,2a,95,1,4,24.760775
,,,,,,,,,,,,,,,,,,,,,,,,,images/exp2a_trial_27_colour2_distractors19_l.png,l,1,014,001,2021-04-20_16h55.56.134,searchDisc4,2020.2.10,Win32,60,,,,space,0.384895,1,1,1.258245,,0,420,420,255,1,2a,27,2,19,
,,,,,,,,,,,,,,,,,,,,,,,,,images/exp2b_trial_27_colour2_distractors19_l.png,l,1,014,001,2021-04-20_16h55.56.134,searchDisc4,2020.2.10,Win32,60,,,,space,0.619505,1,1,0.570655,,0,421,421,369,1,2b,27,2,19,
,,,,,,,,,,,,,,,,,,,,,,,,,images/exp2c_trial_75_colour0_distractors0_l.png,l,1,014,001,2021-04-20_16h55.56.134,searchDisc4,2020.2.10,Win32,60,,,,space,0.313265,1,1,0.469175,,0,422,422,531,1,2c,75,0,0,
,,,,,,,,,,,,,,,,,,,,,,,,,images/exp2a_trial_64_colour2_distractors9_l.png,l,1,014,001,2021-04-20_16h55.56.134,searchDisc4,2020.2.10,Win32,60,,,,space,0.031245,1,1,0.54295,,0,423,423,292,1,2a,64,2,9,
,,,,,,,,,,,,,,,,,,,,,,,,,images/exp1a_trial_80_colour1_distractors31_r.png,r,2,014,001,2021-04-20_16h55.56.134,searchDisc4,2020.2.10,Win32,60,,,,space,0.0313,2,1,0.57388,,0,424,424,80,1,1a,80,1,31,
,,,,,,,,,,,,,,,,,,,,,,,,,images/exp2a_trial_38_colour1_distractors1_r.png,r,2,014,001,2021-04-20_16h55.56.134,searchDisc4,2020.2.10,Win32,60,,,,space,0.00265,2,1,0.517535,,0,425,425,266,1,2a,38,1,1,
,,,,,,,,,,,,,,,,,,,,,,,,,images/exp2b_trial_88_colour3_distractors1_r.png,r,2,014,001,2021-04-20_16h55.56.134,searchDisc4,2020.2.10,Win32,60,,,,space,0.330285,2,1,0.43119,,0,426,426,430,1,2b,88,3,1,
,,,,,,,,,,,,,,,,,,,,,,,,,images/exp2c_trial_36_colour0_distractors0_r.png,r,2,014,001,2021-04-20_16h55.56.134,searchDisc4,2020.2.10,Win32,60,,,,space,0.003115,2,1,0.581595,,0,427,427,492,1,2c,36,0,0,
,,,,,,,,,,,,,,,,,,,,,,,,,images/exp2b_trial_78_colour1_distractors9_r.png,r,2,014,001,2021-04-20_16h55.56.134,searchDisc4,2020.2.10,Win32,60,,,,space,0.31663,2,1,0.583025,,0,428,428,420,1,2b,78,1,9,
,,,,,,,,,,,,,,,,,,,,,,,,,images/exp2c_trial_50_colour3_distractors1_r.png,r,2,014,001,2021-04-20_16h55.56.134,searchDisc4,2020.2.10,Win32,60,,,,space,0.0097,2,1,0.6614,,0,429,429,506,1,2c,50,3,1,
,,,,,,,,,,,,,,,,,,,,,,,,,images/exp2a_trial_13_colour3_distractors4_r.png,r,2,014,001,2021-04-20_16h55.56.134,searchDisc4,2020.2.10,Win32,60,,,,space,0.0008,2,1,0.63291,,0,430,430,241,1,2a,13,3,4,
,,,,,,,,,,,,,,,,,,,,,,,,,images/exp2b_trial_32_colour3_distractors9_l.png,l,1,014,001,2021-04-20_16h55.56.134,searchDisc4,2020.2.10,Win32,60,,,,space,0.00079,1,1,0.76608,,0,431,431,374,1,2b,32,3,9,
,,,,,,,,,,,,,,,,,,,,,,,,,images/exp2b_trial_52_colour3_distractors9_r.png,r,2,014,001,2021-04-20_16h55.56.134,searchDisc4,2020.2.10,Win32,60,,,,space,0.33094,2,1,0.65245,,0,432,432,394,1,2b,52,3,9,
,,,,,,,,,,,,,,,,,,,,,,,,,images/exp2b_trial_18_colour1_distractors1_l.png,l,1,014,001,2021-04-20_16h55.56.134,searchDisc4,2020.2.10,Win32,60,,,,space,0.01262,1,1,0.54796,,0,433,433,360,1,2b,18,1,1,
,,,,,,,,,,,,,,,,,,,,,,,,,images/exp2a_trial_43_colour1_distractors43_r.png,r,2,014,001,2021-04-20_16h55.56.134,searchDisc4,2020.2.10,Win32,60,,,,space,0.34311,2,1,0.46225,,0,434,434,271,1,2a,43,1,43,
,,,,,,,,,,,,,,,,,,,,,,,,,images/exp1b_trial_68_colour3_distractors1_l.png,l,1,014,001,2021-04-20_16h55.56.134,searchDisc4,2020.2.10,Win32,60,,,,space,0.297565,1,1,0.749365,,0,435,435,182,1,1b,68,3,1,
,,,,,,,,,,,,,,,,,,,,,,,,,images/exp2a_trial_18_colour1_distractors1_l.png,l,1,014,001,2021-04-20_16h55.56.134,searchDisc4,2020.2.10,Win32,60,,,,space,0.000915,1,1,0.85866,,0,436,436,246,1,2a,18,1,1,
,,,,,,,,,,,,,,,,,,,,,,,,,images/exp1b_trial_66_colour2_distractors31_l.png,l,1,014,001,2021-04-20_16h55.56.134,searchDisc4,2020.2.10,Win32,60,,,,space,0.299905,1,1,0.99761,,0,437,437,180,1,1b,66,2,31,
,,,,,,,,,,,,,,,,,,,,,,,,,images/exp1a_trial_0_colour1_distractors1_r.png,r,2,014,001,2021-04-20_16h55.56.134,searchDisc4,2020.2.10,Win32,60,,,,space,0.298525,2,1,0.803245,,0,438,438,0,1,1a,0,1,1,
,,,,,,,,,,,,,,,,,,,,,,,,,images/exp2b_trial_100_colour2_distractors1_l.png,l,1,014,001,2021-04-20_16h55.56.134,searchDisc4,2020.2.10,Win32,60,,,,space,0.01496,1,1,0.584385,,0,439,439,442,1,2b,100,2,1,
,,,,,,,,,,,,,,,,,,,,,,,,,images/exp2a_trial_48_colour2_distractors31_r.png,r,2,014,001,2021-04-20_16h55.56.134,searchDisc4,2020.2.10,Win32,60,,,,space,0.35554,2,1,0.66608,,0,440,440,276,1,2a,48,2,31,
,,,,,,,,,,,,,,,,,,,,,,,,,images/exp2b_trial_49_colour2_distractors43_r.png,r,2,014,001,2021-04-20_16h55.56.134,searchDisc4,2020.2.10,Win32,60,,,,space,0.354535,2,1,0.65112,,0,441,441,391,1,2b,49,2,43,
,,,,,,,,,,,,,,,,,,,,,,,,,images/exp2a_trial_0_colour1_distractors1_r.png,r,2,014,001,2021-04-20_16h55.56.134,searchDisc4,2020.2.10,Win32,60,,,,space,0.42476,2,1,0.56126,,0,442,442,228,1,2a,0,1,1,
,,,,,,,,,,,,,,,,,,,,,,,,,images/exp1b_trial_95_colour1_distractors4_l.png,l,1,014,001,2021-04-20_16h55.56.134,searchDisc4,2020.2.10,Win32,60,,,,space,0.301355,1,1,0.673125,,0,443,443,209,1,1b,95,1,4,
,,,,,,,,,,,,,,,,,,,,,,,,,images/exp2b_trial_8_colour2_distractors9_r.png,r,2,014,001,2021-04-20_16h55.56.134,searchDisc4,2020.2.10,Win32,60,,,,space,0.033425,2,1,0.88085,,0,444,444,350,1,2b,8,2,9,
,,,,,,,,,,,,,,,,,,,,,,,,,images/exp2a_trial_112_colour0_distractors0_r.png,r,2,014,001,2021-04-20_16h55.56.134,searchDisc4,2020.2.10,Win32,60,,,,space,0.282275,2,1,0.626055,,0,445,445,340,1,2a,112,0,0,
,,,,,,,,,,,,,,,,,,,,,,,,,images/exp2a_trial_74_colour0_distractors0_r.png,r,2,014,001,2021-04-20_16h55.56.134,searchDisc4,2020.2.10,Win32,60,,,,space,0.32691,2,1,0.46475,,0,446,446,302,1,2a,74,0,0,
,,,,,,,,,,,,,,,,,,,,,,,,,images/exp1a_trial_96_colour1_distractors9_l.png,l,1,014,001,2021-04-20_16h55.56.134,searchDisc4,2020.2.10,Win32,60,,,,space,0.225595,2,0,0.000795,,0,447,447,96,1,1a,96,1,9,
,,,,,,,,,,,,,,,,,,,,,,,,,images/exp2a_trial_3_colour1_distractors19_r.png,r,2,014,001,2021-04-20_16h55.56.134,searchDisc4,2020.2.10,Win32,60,,,,space,0.718465,2,1,0.52547,,0,448,448,231,1,2a,3,1,19,
,,,,,,,,,,,,,,,,,,,,,,,,,images/exp1a_trial_14_colour3_distractors9_r.png,r,2,014,001,2021-04-20_16h55.56.134,searchDisc4,2020.2.10,Win32,60,,,,space,0.00436,2,1,0.701285,,0,449,449,14,1,1a,14,3,9,
,,,,,,,,,,,,,,,,,,,,,,,,,images/exp1a_trial_75_colour0_distractors0_l.png,l,1,014,001,2021-04-20_16h55.56.134,searchDisc4,2020.2.10,Win32,60,,,,space,0.399145,1,1,0.60663,,0,450,450,75,1,1a,75,0,0,
,,,,,,,,,,,,,,,,,,,,,,,,,images/exp2a_trial_59_colour1_distractors19_l.png,l,1,014,001,2021-04-20_16h55.56.134,searchDisc4,2020.2.10,Win32,60,,,,space,0.017545,1,1,0.59634,,0,451,451,287,1,2a,59,1,19,
,,,,,,,,,,,,,,,,,,,,,,,,,images/exp1b_trial_64_colour2_distractors9_l.png,l,1,014,001,2021-04-20_16h55.56.134,searchDisc4,2020.2.10,Win32,60,,,,space,0.111715,1,1,0.980015,,0,452,452,178,1,1b,64,2,9,
,,,,,,,,,,,,,,,,,,,,,,,,,images/exp1a_trial_36_colour0_distractors0_r.png,r,2,014,001,2021-04-20_16h55.56.134,searchDisc4,2020.2.10,Win32,60,,,,space,0.064515,2,1,0.733195,,0,453,453,36,1,1a,36,0,0,
,,,,,,,,,,,,,,,,,,,,,,,,,images/exp2a_trial_71_colour3_distractors19_l.png,l,1,014,001,2021-04-20_16h55.56.134,searchDisc4,2020.2.10,Win32,60,,,,space,0.051175,1,1,0.64996,,0,454,454,299,1,2a,71,3,19,
,,,,,,,,,,,,,,,,,,,,,,,,,images/exp1a_trial_72_colour3_distractors31_l.png,l,1,014,001,2021-04-20_16h55.56.134,searchDisc4,2020.2.10,Win32,60,,,,space,0.06907,1,1,0.60871,,0,455,455,72,1,1a,72,3,31,
,,,,,,,,,,,,,,,,,,,,,,,,,images/exp2b_trial_83_colour2_distractors4_r.png,r,2,014,001,2021-04-20_16h55.56.134,searchDisc4,2020.2.10,Win32,60,,,,space,0.05042,2,1,0.582575,,0,456,456,425,1,2b,83,2,4,
,,,,,,,,,,,,,,,,,,,,,,,,,images/exp1b_trial_113_colour0_distractors0_l.png,l,1,014,001,2021-04-20_16h55.56.134,searchDisc4,2020.2.10,Win32,60,,,,space,0.052965,1,1,0.58421,,0,457,457,227,1,1b,113,0,0,
,,,,,,,,,,,,,,,,,,,,,,,,,images/exp2a_trial_49_colour2_distractors43_r.png,r,2,014,001,2021-04-20_16h55.56.134,searchDisc4,2020.2.10,Win32,60,,,,space,0.18115,2,1,0.74755,,0,458,458,277,1,2a,49,2,43,
,,,,,,,,,,,,,,,,,,,,,,,,,images/exp1b_trial_62_colour2_distractors1_l.png,l,1,014,001,2021-04-20_16h55.56.134,searchDisc4,2020.2.10,Win32,60,,,,space,0.88636,1,1,0.69296,,0,459,459,176,1,1b,62,2,1,
,,,,,,,,,,,,,,,,,,,,,,,,,images/exp1a_trial_45_colour2_distractors4_r.png,r,2,014,001,2021-04-20_16h55.56.134,searchDisc4,2020.2.10,Win32,60,,,,space,0.12868,2,1,0.881975,,0,460,460,45,1,1a,45,2,4,
,,,,,,,,,,,,,,,,,,,,,,,,,images/exp2c_trial_103_colour2_distractors19_l.png,l,1,014,001,2021-04-20_16h55.56.134,searchDisc4,2020.2.10,Win32,60,,,,space,0.74693,1,1,0.384075,,0,461,461,559,1,2c,103,2,19,
,,,,,,,,,,,,,,,,,,,,,,,,,images/exp1a_trial_73_colour3_distractors43_l.png,l,1,014,001,2021-04-20_16h55.56.134,searchDisc4,2020.2.10,Win32,60,,,,space,0.93366,1,1,0.56367,,0,462,462,73,1,1a,73,3,43,
,,,,,,,,,,,,,,,,,,,,,,,,,images/exp2c_trial_32_colour3_distractors9_l.png,l,1,014,001,2021-04-20_16h55.56.134,searchDisc4,2020.2.10,Win32,60,,,,space,0.433115,1,1,0.49063,,0,463,463,488,1,2c,32,3,9,
,,,,,,,,,,,,,,,,,,,,,,,,,images/exp2c_trial_40_colour1_distractors9_r.png,r,2,014,001,2021-04-20_16h55.56.134,searchDisc4,2020.2.10,Win32,60,,,,space,0.38556,2,1,0.54921,,0,464,464,496,1,2c,40,1,9,
,,,,,,,,,,,,,,,,,,,,,,,,,images/exp1a_trial_46_colour2_distractors9_r.png,r,2,014,001,2021-04-20_16h55.56.134,searchDisc4,2020.2.10,Win32,60,,,,space,0.289035,2,1,0.841665,,0,465,465,46,1,1a,46,2,9,
,,,,,,,,,,,,,,,,,,,,,,,,,images/exp2a_trial_14_colour3_distractors9_r.png,r,2,014,001,2021-04-20_16h55.56.134,searchDisc4,2020.2.10,Win32,60,,,,space,0.1179,2,1,0.53435,,0,466,466,242,1,2a,14,3,9,
,,,,,,,,,,,,,,,,,,,,,,,,,images/exp1a_trial_29_colour2_distractors43_l.png,l,1,014,001,2021-04-20_16h55.56.134,searchDisc4,2020.2.10,Win32,60,,,,space,0.473935,1,1,0.7305,,0,467,467,29,1,1a,29,2,43,
,,,,,,,,,,,,,,,,,,,,,,,,,images/exp2a_trial_26_colour2_distractors9_l.png,l,1,014,001,2021-04-20_16h55.56.134,searchDisc4,2020.2.10,Win32,60,,,,space,0.97568,1,1,0.535255,,0,468,468,254,1,2a,26,2,9,
,,,,,,,,,,,,,,,,,,,,,,,,,images/exp1b_trial_2_colour1_distractors9_r.png,r,2,014,001,2021-04-20_16h55.56.134,searchDisc4,2020.2.10,Win32,60,,,,space,0.194355,2,1,0.629155,,0,469,469,116,1,1b,2,1,9,
,,,,,,,,,,,,,,,,,,,,,,,,,images/exp1a_trial_64_colour2_distractors9_l.png,l,1,014,001,2021-04-20_16h55.56.134,searchDisc4,2020.2.10,Win32,60,,,,space,0.715925,2,0,0.46333,,0,470,470,64,1,1a,64,2,9,
,,,,,,,,,,,,,,,,,,,,,,,,,images/exp1a_trial_23_colour1_distractors43_l.png,l,1,014,001,2021-04-20_16h55.56.134,searchDisc4,2020.2.10,Win32,60,,,,space,0.35702,1,1,0.587895,,0,471,471,23,1,1a,23,1,43,
,,,,,,,,,,,,,,,,,,,,,,,,,images/exp1a_trial_47_colour2_distractors19_r.png,r,2,014,001,2021-04-20_16h55.56.134,searchDisc4,2020.2.10,Win32,60,,,,space,0.42348,2,1,1.225925,,0,472,472,47,1,1a,47,2,19,
,,,,,,,,,,,,,,,,,,,,,,,,,images/exp1a_trial_88_colour3_distractors1_r.png,r,2,014,001,2021-04-20_16h55.56.134,searchDisc4,2020.2.10,Win32,60,,,,space,0.30111,2,1,0.47612,,0,473,473,88,1,1a,88,3,1,
,,,,,,,,,,,,,,,,,,,,,,,,,images/exp2c_trial_6_colour2_distractors1_r.png,r,2,014,001,2021-04-20_16h55.56.134,searchDisc4,2020.2.10,Win32,60,,,,space,0.17207,2,1,1.03907,,0,474,474,462,1,2c,6,2,1,
,,,,,,,,,,,,,,,,,,,,,,,,,images/exp2b_trial_44_colour2_distractors1_r.png,r,2,014,001,2021-04-20_16h55.56.134,searchDisc4,2020.2.10,Win32,60,,,,space,0.177885,2,1,0.498955,,0,475,475,386,1,2b,44,2,1,
,,,,,,,,,,,,,,,,,,,,,,,,,images/exp2c_trial_93_colour3_distractors43_r.png,r,2,014,001,2021-04-20_16h55.56.134,searchDisc4,2020.2.10,Win32,60,,,,space,0.347745,2,1,0.55791,,0,476,476,549,1,2c,93,3,43,
