X Scale,Y Scale,key_resp_10.keys,key_resp_10.rt,key_resp_11.keys,key_resp_11.rt,key_resp_12.keys,key_resp_12.rt,key_resp_13.keys,key_resp_13.rt,key_resp_5.keys,key_resp_5.rt,key_resp_8.keys,key_resp_8.rt,key_resp_6.keys,key_resp_6.rt,key_resp_7.keys,key_resp_7.rt,key_resp_4.keys,key_resp_4.corr,key_resp_4.rt,trials_2.thisRepN,trials_2.thisTrialN,trials_2.thisN,trials_2.thisIndex,trials_2.ran,ImageFile,targ_side,correctAnswer,participant,session,date,expName,psychopyVersion,OS,frameRate,key_resp_3.keys,key_resp_3.rt,key_resp_9.keys,key_resp_9.rt,key_resp_2.keys,key_resp_2.corr,key_resp_2.rt,key_resp.keys,trials.thisRepN,trials.thisTrialN,trials.thisN,trials.thisIndex,trials.ran,exp,trial,colour,distNo,key_resp.rt
12.9,13.1,space,31.90871,space,17.795125,space,6.677155,space,8.702325,space,11.119335,space,10.40088,space,4.1324,space,38.21027,2,1,3.86765,0,0,0,5,1,Practice arrays/exp1a_trial_10_colour2_distractors31_r.png,r,2,015,001,2021-04-20_17h28.59.871,searchDisc4,2020.2.10,Win32,60,,,,,,,,,,,,,,,,,,
,,,,,,,,,,,,,,,,space,1.07079,2,1,1.06469,0,1,1,18,1,Practice arrays/exp1a_trial_36_colour0_distractors0_r.png,r,2,015,001,2021-04-20_17h28.59.871,searchDisc4,2020.2.10,Win32,60,,,,,,,,,,,,,,,,,,
,,,,,,,,,,,,,,,,space,0.28411,1,1,1.940095,0,2,2,10,1,Practice arrays/exp1a_trial_20_colour1_distractors9_l.png,l,1,015,001,2021-04-20_17h28.59.871,searchDisc4,2020.2.10,Win32,60,,,,,,,,,,,,,,,,,,
,,,,,,,,,,,,,,,,space,0.186025,1,1,0.960965,0,3,3,19,1,Practice arrays/exp1a_trial_37_colour0_distractors0_l.png,l,1,015,001,2021-04-20_17h28.59.871,searchDisc4,2020.2.10,Win32,60,,,,,,,,,,,,,,,,,,
,,,,,,,,,,,,,,,,space,0.42066,1,1,1.818545,0,4,4,14,1,Practice arrays/exp1a_trial_29_colour2_distractors43_l.png,l,1,015,001,2021-04-20_17h28.59.871,searchDisc4,2020.2.10,Win32,60,,,,,,,,,,,,,,,,,,
,,,,,,,,,,,,,,,,space,0.45075,2,1,1.20463,0,5,5,8,1,Practice arrays/exp1a_trial_16_colour3_distractors31_r.png,r,2,015,001,2021-04-20_17h28.59.871,searchDisc4,2020.2.10,Win32,60,,,,,,,,,,,,,,,,,,
,,,,,,,,,,,,,,,,space,0.190325,2,0,3.59783,0,6,6,17,1,Practice arrays/exp1a_trial_35_colour3_distractors43_l.png,l,1,015,001,2021-04-20_17h28.59.871,searchDisc4,2020.2.10,Win32,60,,,,,,,,,,,,,,,,,,
,,,,,,,,,,,,,,,,space,0.550675,2,1,1.73433,0,7,7,1,1,Practice arrays/exp1a_trial_3_colour1_distractors19_r.png,r,2,015,001,2021-04-20_17h28.59.871,searchDisc4,2020.2.10,Win32,60,,,,,,,,,,,,,,,,,,
,,,,,,,,,,,,,,,,space,0.42571,1,1,0.849305,0,8,8,11,1,Practice arrays/exp1a_trial_21_colour1_distractors19_l.png,l,1,015,001,2021-04-20_17h28.59.871,searchDisc4,2020.2.10,Win32,60,,,,,,,,,,,,,,,,,,
,,,,,,,,,,,,,,,,space,0.21865,2,1,0.72923,0,9,9,4,1,Practice arrays/exp1a_trial_8_colour2_distractors9_r.png,r,2,015,001,2021-04-20_17h28.59.871,searchDisc4,2020.2.10,Win32,60,,,,,,,,,,,,,,,,,,
,,,,,,,,,,,,,,,,space,0.455345,2,1,0.86441,0,10,10,2,1,Practice arrays/exp1a_trial_5_colour1_distractors43_r.png,r,2,015,001,2021-04-20_17h28.59.871,searchDisc4,2020.2.10,Win32,60,,,,,,,,,,,,,,,,,,
,,,,,,,,,,,,,,,,space,0.19964,1,1,0.909285,0,11,11,15,1,Practice arrays/exp1a_trial_32_colour3_distractors9_l.png,l,1,015,001,2021-04-20_17h28.59.871,searchDisc4,2020.2.10,Win32,60,,,,,,,,,,,,,,,,,,
,,,,,,,,,,,,,,,,space,0.12348,2,1,0.88772,0,12,12,3,1,Practice arrays/exp1a_trial_7_colour2_distractors4_r.png,r,2,015,001,2021-04-20_17h28.59.871,searchDisc4,2020.2.10,Win32,60,,,,,,,,,,,,,,,,,,
,,,,,,,,,,,,,,,,space,0.16995,2,1,1.43317,0,13,13,0,1,Practice arrays/exp1a_trial_0_colour1_distractors1_r.png,r,2,015,001,2021-04-20_17h28.59.871,searchDisc4,2020.2.10,Win32,60,,,,,,,,,,,,,,,,,,
,,,,,,,,,,,,,,,,space,0.215885,2,1,1.01361,0,14,14,6,1,Practice arrays/exp1a_trial_12_colour3_distractors1_r.png,r,2,015,001,2021-04-20_17h28.59.871,searchDisc4,2020.2.10,Win32,60,,,,,,,,,,,,,,,,,,
,,,,,,,,,,,,,,,,space,0.2005,1,1,0.75994,0,15,15,9,1,Practice arrays/exp1a_trial_19_colour1_distractors4_l.png,l,1,015,001,2021-04-20_17h28.59.871,searchDisc4,2020.2.10,Win32,60,,,,,,,,,,,,,,,,,,
,,,,,,,,,,,,,,,,space,0.13573,2,1,0.72906,0,16,16,7,1,Practice arrays/exp1a_trial_13_colour3_distractors4_r.png,r,2,015,001,2021-04-20_17h28.59.871,searchDisc4,2020.2.10,Win32,60,,,,,,,,,,,,,,,,,,
,,,,,,,,,,,,,,,,space,0.040205,1,1,0.89782,0,17,17,13,1,Practice arrays/exp1a_trial_28_colour2_distractors31_l.png,l,1,015,001,2021-04-20_17h28.59.871,searchDisc4,2020.2.10,Win32,60,,,,,,,,,,,,,,,,,,
,,,,,,,,,,,,,,,,space,0.001545,1,1,0.683555,0,18,18,12,1,Practice arrays/exp1a_trial_25_colour2_distractors4_l.png,l,1,015,001,2021-04-20_17h28.59.871,searchDisc4,2020.2.10,Win32,60,,,,,,,,,,,,,,,,,,
,,,,,,,,,,,,,,,,space,0.174235,1,1,2.03305,0,19,19,16,1,Practice arrays/exp1a_trial_33_colour3_distractors19_l.png,l,1,015,001,2021-04-20_17h28.59.871,searchDisc4,2020.2.10,Win32,60,,,,,,,,,,,,,,,,,,
,,,,,,,,,,,,,,,,,,,,,,,,,,images/exp2c_trial_85_colour2_distractors19_r.png,r,2,015,001,2021-04-20_17h28.59.871,searchDisc4,2020.2.10,Win32,60,space,5.817,space,0.87068,2,1,0.97321,,0,0,0,541,1,2c,85,2,19,
,,,,,,,,,,,,,,,,,,,,,,,,,,images/exp2a_trial_71_colour3_distractors19_l.png,l,1,015,001,2021-04-20_17h28.59.871,searchDisc4,2020.2.10,Win32,60,,,space,1.30389,1,1,0.84886,,0,1,1,299,1,2a,71,3,19,
,,,,,,,,,,,,,,,,,,,,,,,,,,images/exp2b_trial_36_colour0_distractors0_r.png,r,2,015,001,2021-04-20_17h28.59.871,searchDisc4,2020.2.10,Win32,60,,,space,0.487335,2,1,0.755665,,0,2,2,378,1,2b,36,0,0,
,,,,,,,,,,,,,,,,,,,,,,,,,,images/exp1a_trial_108_colour3_distractors9_l.png,l,1,015,001,2021-04-20_17h28.59.871,searchDisc4,2020.2.10,Win32,60,,,space,0.415945,1,1,0.83246,,0,3,3,108,1,1a,108,3,9,
,,,,,,,,,,,,,,,,,,,,,,,,,,images/exp1b_trial_61_colour1_distractors43_l.png,l,1,015,001,2021-04-20_17h28.59.871,searchDisc4,2020.2.10,Win32,60,,,space,0.373205,1,1,2.45766,,0,4,4,175,1,1b,61,1,43,
,,,,,,,,,,,,,,,,,,,,,,,,,,images/exp1a_trial_0_colour1_distractors1_r.png,r,2,015,001,2021-04-20_17h28.59.871,searchDisc4,2020.2.10,Win32,60,,,space,0.397245,2,1,1.01659,,0,5,5,0,1,1a,0,1,1,
,,,,,,,,,,,,,,,,,,,,,,,,,,images/exp2c_trial_86_colour2_distractors31_r.png,r,2,015,001,2021-04-20_17h28.59.871,searchDisc4,2020.2.10,Win32,60,,,space,0.333215,2,1,0.702445,,0,6,6,542,1,2c,86,2,31,
,,,,,,,,,,,,,,,,,,,,,,,,,,images/exp2a_trial_63_colour2_distractors4_l.png,l,1,015,001,2021-04-20_17h28.59.871,searchDisc4,2020.2.10,Win32,60,,,space,0.301775,2,0,0.722935,,0,7,7,291,1,2a,63,2,4,
,,,,,,,,,,,,,,,,,,,,,,,,,,images/exp2b_trial_94_colour1_distractors1_l.png,l,1,015,001,2021-04-20_17h28.59.871,searchDisc4,2020.2.10,Win32,60,,,space,0.884495,1,1,0.95978,,0,8,8,436,1,2b,94,1,1,
,,,,,,,,,,,,,,,,,,,,,,,,,,images/exp2b_trial_92_colour3_distractors31_r.png,r,2,015,001,2021-04-20_17h28.59.871,searchDisc4,2020.2.10,Win32,60,,,space,0.40244,2,1,0.73579,,0,9,9,434,1,2b,92,3,31,
,,,,,,,,,,,,,,,,,,,,,,,,,,images/exp2c_trial_26_colour2_distractors9_l.png,l,1,015,001,2021-04-20_17h28.59.871,searchDisc4,2020.2.10,Win32,60,,,space,0.322525,1,1,0.6388,,0,10,10,482,1,2c,26,2,9,
,,,,,,,,,,,,,,,,,,,,,,,,,,images/exp2a_trial_104_colour2_distractors31_l.png,l,1,015,001,2021-04-20_17h28.59.871,searchDisc4,2020.2.10,Win32,60,,,space,0.34877,1,1,0.698385,,0,11,11,332,1,2a,104,2,31,
,,,,,,,,,,,,,,,,,,,,,,,,,,images/exp2a_trial_33_colour3_distractors19_l.png,l,1,015,001,2021-04-20_17h28.59.871,searchDisc4,2020.2.10,Win32,60,,,space,0.403795,1,1,0.692815,,0,12,12,261,1,2a,33,3,19,
,,,,,,,,,,,,,,,,,,,,,,,,,,images/exp2b_trial_1_colour1_distractors4_r.png,r,2,015,001,2021-04-20_17h28.59.871,searchDisc4,2020.2.10,Win32,60,,,space,0.284435,2,1,0.634975,,0,13,13,343,1,2b,1,1,4,
,,,,,,,,,,,,,,,,,,,,,,,,,,images/exp1a_trial_102_colour2_distractors9_l.png,l,1,015,001,2021-04-20_17h28.59.871,searchDisc4,2020.2.10,Win32,60,,,space,0.273845,1,1,0.61548,,0,14,14,102,1,1a,102,2,9,
,,,,,,,,,,,,,,,,,,,,,,,,,,images/exp1b_trial_105_colour2_distractors43_l.png,l,1,015,001,2021-04-20_17h28.59.871,searchDisc4,2020.2.10,Win32,60,,,space,0.349215,1,1,1.70231,,0,15,15,219,1,1b,105,2,43,
,,,,,,,,,,,,,,,,,,,,,,,,,,images/exp1b_trial_34_colour3_distractors31_l.png,l,1,015,001,2021-04-20_17h28.59.871,searchDisc4,2020.2.10,Win32,60,,,space,0.356575,1,1,3.407505,,0,16,16,148,1,1b,34,3,31,
,,,,,,,,,,,,,,,,,,,,,,,,,,images/exp2b_trial_81_colour1_distractors43_r.png,r,2,015,001,2021-04-20_17h28.59.871,searchDisc4,2020.2.10,Win32,60,,,space,0.300925,2,1,0.782785,,0,17,17,423,1,2b,81,1,43,
,,,,,,,,,,,,,,,,,,,,,,,,,,images/exp2c_trial_75_colour0_distractors0_l.png,l,1,015,001,2021-04-20_17h28.59.871,searchDisc4,2020.2.10,Win32,60,,,space,0.395215,1,1,0.891755,,0,18,18,531,1,2c,75,0,0,
,,,,,,,,,,,,,,,,,,,,,,,,,,images/exp1b_trial_80_colour1_distractors31_r.png,r,2,015,001,2021-04-20_17h28.59.871,searchDisc4,2020.2.10,Win32,60,,,space,0.364965,2,1,0.862555,,0,19,19,194,1,1b,80,1,31,
,,,,,,,,,,,,,,,,,,,,,,,,,,images/exp2c_trial_67_colour2_distractors43_l.png,l,1,015,001,2021-04-20_17h28.59.871,searchDisc4,2020.2.10,Win32,60,,,space,0.31025,1,1,0.737695,,0,20,20,523,1,2c,67,2,43,
,,,,,,,,,,,,,,,,,,,,,,,,,,images/exp2b_trial_5_colour1_distractors43_r.png,r,2,015,001,2021-04-20_17h28.59.871,searchDisc4,2020.2.10,Win32,60,,,space,0.36285,2,1,0.76058,,0,21,21,347,1,2b,5,1,43,
,,,,,,,,,,,,,,,,,,,,,,,,,,images/exp2c_trial_59_colour1_distractors19_l.png,l,1,015,001,2021-04-20_17h28.59.871,searchDisc4,2020.2.10,Win32,60,,,space,0.34023,1,1,0.61472,,0,22,22,515,1,2c,59,1,19,
,,,,,,,,,,,,,,,,,,,,,,,,,,images/exp2a_trial_80_colour1_distractors31_r.png,r,2,015,001,2021-04-20_17h28.59.871,searchDisc4,2020.2.10,Win32,60,,,space,0.33716,2,1,0.74883,,0,23,23,308,1,2a,80,1,31,
,,,,,,,,,,,,,,,,,,,,,,,,,,images/exp2a_trial_111_colour3_distractors43_l.png,l,1,015,001,2021-04-20_17h28.59.871,searchDisc4,2020.2.10,Win32,60,,,space,0.369545,1,1,0.54694,,0,24,24,339,1,2a,111,3,43,
,,,,,,,,,,,,,,,,,,,,,,,,,,images/exp2a_trial_28_colour2_distractors31_l.png,l,1,015,001,2021-04-20_17h28.59.871,searchDisc4,2020.2.10,Win32,60,,,space,0.374655,1,1,0.61741,,0,25,25,256,1,2a,28,2,31,
,,,,,,,,,,,,,,,,,,,,,,,,,,images/exp1b_trial_48_colour2_distractors31_r.png,r,2,015,001,2021-04-20_17h28.59.871,searchDisc4,2020.2.10,Win32,60,,,space,0.384855,2,1,0.720885,,0,26,26,162,1,1b,48,2,31,
,,,,,,,,,,,,,,,,,,,,,,,,,,images/exp2b_trial_17_colour3_distractors43_r.png,r,2,015,001,2021-04-20_17h28.59.871,searchDisc4,2020.2.10,Win32,60,,,space,0.335975,2,1,0.85146,,0,27,27,359,1,2b,17,3,43,
,,,,,,,,,,,,,,,,,,,,,,,,,,images/exp2a_trial_109_colour3_distractors19_l.png,l,1,015,001,2021-04-20_17h28.59.871,searchDisc4,2020.2.10,Win32,60,,,space,0.30063,1,1,0.57776,,0,28,28,337,1,2a,109,3,19,
,,,,,,,,,,,,,,,,,,,,,,,,,,images/exp2c_trial_27_colour2_distractors19_l.png,l,1,015,001,2021-04-20_17h28.59.871,searchDisc4,2020.2.10,Win32,60,,,space,0.356015,1,1,0.904865,,0,29,29,483,1,2c,27,2,19,
,,,,,,,,,,,,,,,,,,,,,,,,,,images/exp1a_trial_6_colour2_distractors1_r.png,r,2,015,001,2021-04-20_17h28.59.871,searchDisc4,2020.2.10,Win32,60,,,space,0.356015,2,1,1.512775,,0,30,30,6,1,1a,6,2,1,
,,,,,,,,,,,,,,,,,,,,,,,,,,images/exp1a_trial_109_colour3_distractors19_l.png,l,1,015,001,2021-04-20_17h28.59.871,searchDisc4,2020.2.10,Win32,60,,,space,0.31858,1,1,0.858665,,0,31,31,109,1,1a,109,3,19,
,,,,,,,,,,,,,,,,,,,,,,,,,,images/exp2b_trial_107_colour3_distractors4_l.png,l,1,015,001,2021-04-20_17h28.59.871,searchDisc4,2020.2.10,Win32,60,,,space,0.41893,2,0,0.5924,,0,32,32,449,1,2b,107,3,4,
,,,,,,,,,,,,,,,,,,,,,,,,,,images/exp2b_trial_46_colour2_distractors9_r.png,r,2,015,001,2021-04-20_17h28.59.871,searchDisc4,2020.2.10,Win32,60,,,space,0.60548,2,1,0.715205,,0,33,33,388,1,2b,46,2,9,
,,,,,,,,,,,,,,,,,,,,,,,,,,images/exp1b_trial_17_colour3_distractors43_r.png,r,2,015,001,2021-04-20_17h28.59.871,searchDisc4,2020.2.10,Win32,60,,,space,0.3169,2,1,2.24452,,0,34,34,131,1,1b,17,3,43,
,,,,,,,,,,,,,,,,,,,,,,,,,,images/exp2a_trial_77_colour1_distractors4_r.png,r,2,015,001,2021-04-20_17h28.59.871,searchDisc4,2020.2.10,Win32,60,,,space,0.364335,2,1,0.90109,,0,35,35,305,1,2a,77,1,4,
,,,,,,,,,,,,,,,,,,,,,,,,,,images/exp1b_trial_66_colour2_distractors31_l.png,l,1,015,001,2021-04-20_17h28.59.871,searchDisc4,2020.2.10,Win32,60,,,space,0.350365,1,1,0.800945,,0,36,36,180,1,1b,66,2,31,
,,,,,,,,,,,,,,,,,,,,,,,,,,images/exp2c_trial_20_colour1_distractors9_l.png,l,1,015,001,2021-04-20_17h28.59.871,searchDisc4,2020.2.10,Win32,60,,,space,0.38544,1,1,0.707305,,0,37,37,476,1,2c,20,1,9,
,,,,,,,,,,,,,,,,,,,,,,,,,,images/exp1b_trial_0_colour1_distractors1_r.png,r,2,015,001,2021-04-20_17h28.59.871,searchDisc4,2020.2.10,Win32,60,,,space,0.43196,2,1,0.776935,,0,38,38,114,1,1b,0,1,1,
,,,,,,,,,,,,,,,,,,,,,,,,,,images/exp2a_trial_79_colour1_distractors19_r.png,r,2,015,001,2021-04-20_17h28.59.871,searchDisc4,2020.2.10,Win32,60,,,space,0.321585,2,1,0.72073,,0,39,39,307,1,2a,79,1,19,
,,,,,,,,,,,,,,,,,,,,,,,,,,images/exp2b_trial_68_colour3_distractors1_l.png,l,1,015,001,2021-04-20_17h28.59.871,searchDisc4,2020.2.10,Win32,60,,,space,0.38394,1,1,0.64559,,0,40,40,410,1,2b,68,3,1,
,,,,,,,,,,,,,,,,,,,,,,,,,,images/exp2c_trial_93_colour3_distractors43_r.png,r,2,015,001,2021-04-20_17h28.59.871,searchDisc4,2020.2.10,Win32,60,,,space,0.39781,2,1,0.76081,,0,41,41,549,1,2c,93,3,43,
,,,,,,,,,,,,,,,,,,,,,,,,,,images/exp2a_trial_59_colour1_distractors19_l.png,l,1,015,001,2021-04-20_17h28.59.871,searchDisc4,2020.2.10,Win32,60,,,space,0.33647,1,1,0.521255,,0,42,42,287,1,2a,59,1,19,
,,,,,,,,,,,,,,,,,,,,,,,,,,images/exp2a_trial_26_colour2_distractors9_l.png,l,1,015,001,2021-04-20_17h28.59.871,searchDisc4,2020.2.10,Win32,60,,,space,0.399655,2,0,0.56488,,0,43,43,254,1,2a,26,2,9,
,,,,,,,,,,,,,,,,,,,,,,,,,,images/exp1b_trial_5_colour1_distractors43_r.png,r,2,015,001,2021-04-20_17h28.59.871,searchDisc4,2020.2.10,Win32,60,,,space,0.62613,2,1,0.75111,,0,44,44,119,1,1b,5,1,43,
,,,,,,,,,,,,,,,,,,,,,,,,,,images/exp1a_trial_112_colour0_distractors0_r.png,r,2,015,001,2021-04-20_17h28.59.871,searchDisc4,2020.2.10,Win32,60,,,space,0.33548,2,1,0.80472,,0,45,45,112,1,1a,112,0,0,
,,,,,,,,,,,,,,,,,,,,,,,,,,images/exp1b_trial_9_colour2_distractors19_r.png,r,2,015,001,2021-04-20_17h28.59.871,searchDisc4,2020.2.10,Win32,60,,,space,0.33545,2,1,0.90671,,0,46,46,123,1,1b,9,2,19,
,,,,,,,,,,,,,,,,,,,,,,,,,,images/exp2a_trial_7_colour2_distractors4_r.png,r,2,015,001,2021-04-20_17h28.59.871,searchDisc4,2020.2.10,Win32,60,,,space,0.411605,2,1,0.71668,,0,47,47,235,1,2a,7,2,4,
,,,,,,,,,,,,,,,,,,,,,,,,,,images/exp1a_trial_25_colour2_distractors4_l.png,l,1,015,001,2021-04-20_17h28.59.871,searchDisc4,2020.2.10,Win32,60,,,space,0.392525,1,1,0.57687,,0,48,48,25,1,1a,25,2,4,
,,,,,,,,,,,,,,,,,,,,,,,,,,images/exp2a_trial_64_colour2_distractors9_l.png,l,1,015,001,2021-04-20_17h28.59.871,searchDisc4,2020.2.10,Win32,60,,,space,0.4587,1,1,0.58971,,0,49,49,292,1,2a,64,2,9,
,,,,,,,,,,,,,,,,,,,,,,,,,,images/exp2c_trial_61_colour1_distractors43_l.png,l,1,015,001,2021-04-20_17h28.59.871,searchDisc4,2020.2.10,Win32,60,,,space,0.43216,1,1,0.89909,,0,50,50,517,1,2c,61,1,43,
,,,,,,,,,,,,,,,,,,,,,,,,,,images/exp2a_trial_88_colour3_distractors1_r.png,r,2,015,001,2021-04-20_17h28.59.871,searchDisc4,2020.2.10,Win32,60,,,space,0.397145,2,1,0.79816,,0,51,51,316,1,2a,88,3,1,
,,,,,,,,,,,,,,,,,,,,,,,,,,images/exp1b_trial_63_colour2_distractors4_l.png,l,1,015,001,2021-04-20_17h28.59.871,searchDisc4,2020.2.10,Win32,60,,,space,0.384335,1,1,0.784715,,0,52,52,177,1,1b,63,2,4,
,,,,,,,,,,,,,,,,,,,,,,,,,,images/exp2a_trial_17_colour3_distractors43_r.png,r,2,015,001,2021-04-20_17h28.59.871,searchDisc4,2020.2.10,Win32,60,,,space,0.415,2,1,1.07698,,0,53,53,245,1,2a,17,3,43,
,,,,,,,,,,,,,,,,,,,,,,,,,,images/exp2c_trial_74_colour0_distractors0_r.png,r,2,015,001,2021-04-20_17h28.59.871,searchDisc4,2020.2.10,Win32,60,,,space,0.35511,2,1,0.791625,,0,54,54,530,1,2c,74,0,0,
,,,,,,,,,,,,,,,,,,,,,,,,,,images/exp1b_trial_24_colour2_distractors1_l.png,l,1,015,001,2021-04-20_17h28.59.871,searchDisc4,2020.2.10,Win32,60,,,space,0.37341,1,1,0.778025,,0,55,55,138,1,1b,24,2,1,
,,,,,,,,,,,,,,,,,,,,,,,,,,images/exp2a_trial_8_colour2_distractors9_r.png,r,2,015,001,2021-04-20_17h28.59.871,searchDisc4,2020.2.10,Win32,60,,,space,0.460235,2,1,0.65011,,0,56,56,236,1,2a,8,2,9,
,,,,,,,,,,,,,,,,,,,,,,,,,,images/exp1a_trial_75_colour0_distractors0_l.png,l,1,015,001,2021-04-20_17h28.59.871,searchDisc4,2020.2.10,Win32,60,,,space,0.37516,1,1,0.724085,,0,57,57,75,1,1a,75,0,0,
,,,,,,,,,,,,,,,,,,,,,,,,,,images/exp2a_trial_27_colour2_distractors19_l.png,l,1,015,001,2021-04-20_17h28.59.871,searchDisc4,2020.2.10,Win32,60,,,space,0.433845,1,1,0.687145,,0,58,58,255,1,2a,27,2,19,
,,,,,,,,,,,,,,,,,,,,,,,,,,images/exp1a_trial_13_colour3_distractors4_r.png,r,2,015,001,2021-04-20_17h28.59.871,searchDisc4,2020.2.10,Win32,60,,,space,0.435055,2,1,0.668515,space,0,59,59,13,1,1a,13,3,4,5.88757
,,,,,,,,,,,,,,,,,,,,,,,,,,images/exp1b_trial_60_colour1_distractors31_l.png,l,1,015,001,2021-04-20_17h28.59.871,searchDisc4,2020.2.10,Win32,60,,,space,2.450605,1,1,0.78288,,0,60,60,174,1,1b,60,1,31,
,,,,,,,,,,,,,,,,,,,,,,,,,,images/exp2b_trial_4_colour1_distractors31_r.png,r,2,015,001,2021-04-20_17h28.59.871,searchDisc4,2020.2.10,Win32,60,,,space,0.35644,2,1,0.627185,,0,61,61,346,1,2b,4,1,31,
,,,,,,,,,,,,,,,,,,,,,,,,,,images/exp2b_trial_21_colour1_distractors19_l.png,l,1,015,001,2021-04-20_17h28.59.871,searchDisc4,2020.2.10,Win32,60,,,space,0.297735,1,1,0.960645,,0,62,62,363,1,2b,21,1,19,
,,,,,,,,,,,,,,,,,,,,,,,,,,images/exp2b_trial_60_colour1_distractors31_l.png,l,1,015,001,2021-04-20_17h28.59.871,searchDisc4,2020.2.10,Win32,60,,,space,0.19742,1,1,0.712135,,0,63,63,402,1,2b,60,1,31,
,,,,,,,,,,,,,,,,,,,,,,,,,,images/exp1a_trial_61_colour1_distractors43_l.png,l,1,015,001,2021-04-20_17h28.59.871,searchDisc4,2020.2.10,Win32,60,,,space,0.32947,1,1,1.060965,,0,64,64,61,1,1a,61,1,43,
,,,,,,,,,,,,,,,,,,,,,,,,,,images/exp2c_trial_79_colour1_distractors19_r.png,r,2,015,001,2021-04-20_17h28.59.871,searchDisc4,2020.2.10,Win32,60,,,space,0.18415,2,1,0.778555,,0,65,65,535,1,2c,79,1,19,
,,,,,,,,,,,,,,,,,,,,,,,,,,images/exp1a_trial_29_colour2_distractors43_l.png,l,1,015,001,2021-04-20_17h28.59.871,searchDisc4,2020.2.10,Win32,60,,,space,0.273835,1,1,0.77075,,0,66,66,29,1,1a,29,2,43,
,,,,,,,,,,,,,,,,,,,,,,,,,,images/exp1b_trial_16_colour3_distractors31_r.png,r,2,015,001,2021-04-20_17h28.59.871,searchDisc4,2020.2.10,Win32,60,,,space,0.231605,,0,,,0,67,67,130,1,1b,16,3,31,
,,,,,,,,,,,,,,,,,,,,,,,,,,images/exp2c_trial_90_colour3_distractors9_r.png,r,2,015,001,2021-04-20_17h28.59.871,searchDisc4,2020.2.10,Win32,60,,,space,0.85111,2,1,0.8176,,0,68,68,546,1,2c,90,3,9,
,,,,,,,,,,,,,,,,,,,,,,,,,,images/exp1a_trial_56_colour1_distractors1_l.png,l,1,015,001,2021-04-20_17h28.59.871,searchDisc4,2020.2.10,Win32,60,,,space,0.24705,1,1,0.911295,,0,69,69,56,1,1a,56,1,1,
,,,,,,,,,,,,,,,,,,,,,,,,,,images/exp2b_trial_52_colour3_distractors9_r.png,r,2,015,001,2021-04-20_17h28.59.871,searchDisc4,2020.2.10,Win32,60,,,space,0.255665,2,1,0.6796,,0,70,70,394,1,2b,52,3,9,
,,,,,,,,,,,,,,,,,,,,,,,,,,images/exp2a_trial_57_colour1_distractors4_l.png,l,1,015,001,2021-04-20_17h28.59.871,searchDisc4,2020.2.10,Win32,60,,,space,0.260555,1,1,0.80166,,0,71,71,285,1,2a,57,1,4,
,,,,,,,,,,,,,,,,,,,,,,,,,,images/exp1b_trial_95_colour1_distractors4_l.png,l,1,015,001,2021-04-20_17h28.59.871,searchDisc4,2020.2.10,Win32,60,,,space,0.334835,1,1,0.95814,,0,72,72,209,1,1b,95,1,4,
,,,,,,,,,,,,,,,,,,,,,,,,,,images/exp1a_trial_64_colour2_distractors9_l.png,l,1,015,001,2021-04-20_17h28.59.871,searchDisc4,2020.2.10,Win32,60,,,space,0.253,1,1,0.78645,,0,73,73,64,1,1a,64,2,9,
,,,,,,,,,,,,,,,,,,,,,,,,,,images/exp1b_trial_45_colour2_distractors4_r.png,r,2,015,001,2021-04-20_17h28.59.871,searchDisc4,2020.2.10,Win32,60,,,space,0.306645,2,1,0.652435,,0,74,74,159,1,1b,45,2,4,
,,,,,,,,,,,,,,,,,,,,,,,,,,images/exp1b_trial_90_colour3_distractors9_r.png,r,2,015,001,2021-04-20_17h28.59.871,searchDisc4,2020.2.10,Win32,60,,,space,0.299275,2,1,1.010995,,0,75,75,204,1,1b,90,3,9,
,,,,,,,,,,,,,,,,,,,,,,,,,,images/exp2b_trial_110_colour3_distractors31_l.png,l,1,015,001,2021-04-20_17h28.59.871,searchDisc4,2020.2.10,Win32,60,,,space,0.235365,1,1,0.67974,,0,76,76,452,1,2b,110,3,31,
,,,,,,,,,,,,,,,,,,,,,,,,,,images/exp2c_trial_39_colour1_distractors4_r.png,r,2,015,001,2021-04-20_17h28.59.871,searchDisc4,2020.2.10,Win32,60,,,space,0.21834,2,1,0.63136,,0,77,77,495,1,2c,39,1,4,
,,,,,,,,,,,,,,,,,,,,,,,,,,images/exp1b_trial_64_colour2_distractors9_l.png,l,1,015,001,2021-04-20_17h28.59.871,searchDisc4,2020.2.10,Win32,60,,,space,0.2803,1,1,0.791095,,0,78,78,178,1,1b,64,2,9,
,,,,,,,,,,,,,,,,,,,,,,,,,,images/exp2c_trial_70_colour3_distractors9_l.png,l,1,015,001,2021-04-20_17h28.59.871,searchDisc4,2020.2.10,Win32,60,,,space,0.2834,1,1,0.59942,,0,79,79,526,1,2c,70,3,9,
,,,,,,,,,,,,,,,,,,,,,,,,,,images/exp1b_trial_78_colour1_distractors9_r.png,r,2,015,001,2021-04-20_17h28.59.871,searchDisc4,2020.2.10,Win32,60,,,space,0.222575,2,1,0.59006,,0,80,80,192,1,1b,78,1,9,
,,,,,,,,,,,,,,,,,,,,,,,,,,images/exp1a_trial_110_colour3_distractors31_l.png,l,1,015,001,2021-04-20_17h28.59.871,searchDisc4,2020.2.10,Win32,60,,,space,0.322525,1,1,0.690915,,0,81,81,110,1,1a,110,3,31,
,,,,,,,,,,,,,,,,,,,,,,,,,,images/exp2b_trial_71_colour3_distractors19_l.png,l,1,015,001,2021-04-20_17h28.59.871,searchDisc4,2020.2.10,Win32,60,,,space,0.333065,1,1,0.55005,,0,82,82,413,1,2b,71,3,19,
,,,,,,,,,,,,,,,,,,,,,,,,,,images/exp2a_trial_60_colour1_distractors31_l.png,l,1,015,001,2021-04-20_17h28.59.871,searchDisc4,2020.2.10,Win32,60,,,space,0.34837,1,1,0.82958,,0,83,83,288,1,2a,60,1,31,
,,,,,,,,,,,,,,,,,,,,,,,,,,images/exp2a_trial_13_colour3_distractors4_r.png,r,2,015,001,2021-04-20_17h28.59.871,searchDisc4,2020.2.10,Win32,60,,,space,0.255145,2,1,0.5752,,0,84,84,241,1,2a,13,3,4,
,,,,,,,,,,,,,,,,,,,,,,,,,,images/exp2a_trial_61_colour1_distractors43_l.png,l,1,015,001,2021-04-20_17h28.59.871,searchDisc4,2020.2.10,Win32,60,,,space,0.330955,1,1,0.594975,,0,85,85,289,1,2a,61,1,43,
,,,,,,,,,,,,,,,,,,,,,,,,,,images/exp2b_trial_56_colour1_distractors1_l.png,l,1,015,001,2021-04-20_17h28.59.871,searchDisc4,2020.2.10,Win32,60,,,space,0.46666,1,1,0.821695,,0,86,86,398,1,2b,56,1,1,
,,,,,,,,,,,,,,,,,,,,,,,,,,images/exp1a_trial_36_colour0_distractors0_r.png,r,2,015,001,2021-04-20_17h28.59.871,searchDisc4,2020.2.10,Win32,60,,,space,0.294765,2,1,0.627705,,0,87,87,36,1,1a,36,0,0,
,,,,,,,,,,,,,,,,,,,,,,,,,,images/exp2a_trial_11_colour2_distractors43_r.png,r,2,015,001,2021-04-20_17h28.59.871,searchDisc4,2020.2.10,Win32,60,,,space,0.297685,2,1,0.82817,,0,88,88,239,1,2a,11,2,43,
,,,,,,,,,,,,,,,,,,,,,,,,,,images/exp2b_trial_9_colour2_distractors19_r.png,r,2,015,001,2021-04-20_17h28.59.871,searchDisc4,2020.2.10,Win32,60,,,space,0.235465,2,1,0.643085,,0,89,89,351,1,2b,9,2,19,
,,,,,,,,,,,,,,,,,,,,,,,,,,images/exp1b_trial_91_colour3_distractors19_r.png,r,2,015,001,2021-04-20_17h28.59.871,searchDisc4,2020.2.10,Win32,60,,,space,0.300545,2,1,4.58451,,0,90,90,205,1,1b,91,3,19,
,,,,,,,,,,,,,,,,,,,,,,,,,,images/exp2a_trial_40_colour1_distractors9_r.png,r,2,015,001,2021-04-20_17h28.59.871,searchDisc4,2020.2.10,Win32,60,,,space,0.327975,2,1,0.69643,,0,91,91,268,1,2a,40,1,9,
,,,,,,,,,,,,,,,,,,,,,,,,,,images/exp2b_trial_0_colour1_distractors1_r.png,r,2,015,001,2021-04-20_17h28.59.871,searchDisc4,2020.2.10,Win32,60,,,space,0.199115,2,1,0.58301,,0,92,92,342,1,2b,0,1,1,
,,,,,,,,,,,,,,,,,,,,,,,,,,images/exp2a_trial_0_colour1_distractors1_r.png,r,2,015,001,2021-04-20_17h28.59.871,searchDisc4,2020.2.10,Win32,60,,,space,0.37351,2,1,0.58584,,0,93,93,228,1,2a,0,1,1,
,,,,,,,,,,,,,,,,,,,,,,,,,,images/exp1a_trial_103_colour2_distractors19_l.png,l,1,015,001,2021-04-20_17h28.59.871,searchDisc4,2020.2.10,Win32,60,,,space,0.29918,1,1,0.878465,,0,94,94,103,1,1a,103,2,19,
,,,,,,,,,,,,,,,,,,,,,,,,,,images/exp1a_trial_88_colour3_distractors1_r.png,r,2,015,001,2021-04-20_17h28.59.871,searchDisc4,2020.2.10,Win32,60,,,space,0.204795,1,0,0.642985,,0,95,95,88,1,1a,88,3,1,
,,,,,,,,,,,,,,,,,,,,,,,,,,images/exp1a_trial_76_colour1_distractors1_r.png,r,2,015,001,2021-04-20_17h28.59.871,searchDisc4,2020.2.10,Win32,60,,,space,0.496455,2,1,0.65631,,0,96,96,76,1,1a,76,1,1,
,,,,,,,,,,,,,,,,,,,,,,,,,,images/exp2b_trial_65_colour2_distractors19_l.png,l,1,015,001,2021-04-20_17h28.59.871,searchDisc4,2020.2.10,Win32,60,,,space,0.243425,1,1,0.703275,,0,97,97,407,1,2b,65,2,19,
,,,,,,,,,,,,,,,,,,,,,,,,,,images/exp1a_trial_67_colour2_distractors43_l.png,l,1,015,001,2021-04-20_17h28.59.871,searchDisc4,2020.2.10,Win32,60,,,space,0.347465,1,1,0.60398,,0,98,98,67,1,1a,67,2,43,
,,,,,,,,,,,,,,,,,,,,,,,,,,images/exp2c_trial_58_colour1_distractors9_l.png,l,1,015,001,2021-04-20_17h28.59.871,searchDisc4,2020.2.10,Win32,60,,,space,0.27181,1,1,0.8425,,0,99,99,514,1,2c,58,1,9,
,,,,,,,,,,,,,,,,,,,,,,,,,,images/exp2b_trial_25_colour2_distractors4_l.png,l,1,015,001,2021-04-20_17h28.59.871,searchDisc4,2020.2.10,Win32,60,,,space,0.21873,1,1,0.5686,,0,100,100,367,1,2b,25,2,4,
,,,,,,,,,,,,,,,,,,,,,,,,,,images/exp1a_trial_66_colour2_distractors31_l.png,l,1,015,001,2021-04-20_17h28.59.871,searchDisc4,2020.2.10,Win32,60,,,space,0.27984,1,1,0.6808,,0,101,101,66,1,1a,66,2,31,
,,,,,,,,,,,,,,,,,,,,,,,,,,images/exp1b_trial_40_colour1_distractors9_r.png,r,2,015,001,2021-04-20_17h28.59.871,searchDisc4,2020.2.10,Win32,60,,,space,0.266005,2,1,0.97243,,0,102,102,154,1,1b,40,1,9,
,,,,,,,,,,,,,,,,,,,,,,,,,,images/exp2b_trial_2_colour1_distractors9_r.png,r,2,015,001,2021-04-20_17h28.59.871,searchDisc4,2020.2.10,Win32,60,,,space,0.28023,2,1,0.66282,,0,103,103,344,1,2b,2,1,9,
,,,,,,,,,,,,,,,,,,,,,,,,,,images/exp2a_trial_3_colour1_distractors19_r.png,r,2,015,001,2021-04-20_17h28.59.871,searchDisc4,2020.2.10,Win32,60,,,space,0.23987,2,1,0.76364,,0,104,104,231,1,2a,3,1,19,
,,,,,,,,,,,,,,,,,,,,,,,,,,images/exp1a_trial_12_colour3_distractors1_r.png,r,2,015,001,2021-04-20_17h28.59.871,searchDisc4,2020.2.10,Win32,60,,,space,0.222835,2,1,0.697115,,0,105,105,12,1,1a,12,3,1,
,,,,,,,,,,,,,,,,,,,,,,,,,,images/exp1b_trial_51_colour3_distractors4_r.png,r,2,015,001,2021-04-20_17h28.59.871,searchDisc4,2020.2.10,Win32,60,,,space,0.258725,2,1,0.73784,,0,106,106,165,1,1b,51,3,4,
,,,,,,,,,,,,,,,,,,,,,,,,,,images/exp2b_trial_59_colour1_distractors19_l.png,l,1,015,001,2021-04-20_17h28.59.871,searchDisc4,2020.2.10,Win32,60,,,space,0.2326,1,1,0.695315,,0,107,107,401,1,2b,59,1,19,
,,,,,,,,,,,,,,,,,,,,,,,,,,images/exp2a_trial_51_colour3_distractors4_r.png,r,2,015,001,2021-04-20_17h28.59.871,searchDisc4,2020.2.10,Win32,60,,,space,0.303635,2,1,0.75125,,0,108,108,279,1,2a,51,3,4,
,,,,,,,,,,,,,,,,,,,,,,,,,,images/exp2c_trial_12_colour3_distractors1_r.png,r,2,015,001,2021-04-20_17h28.59.871,searchDisc4,2020.2.10,Win32,60,,,space,0.31781,2,1,0.67714,,0,109,109,468,1,2c,12,3,1,
,,,,,,,,,,,,,,,,,,,,,,,,,,images/exp2a_trial_69_colour3_distractors4_l.png,l,1,015,001,2021-04-20_17h28.59.871,searchDisc4,2020.2.10,Win32,60,,,space,0.232575,1,1,0.71634,,0,110,110,297,1,2a,69,3,4,
,,,,,,,,,,,,,,,,,,,,,,,,,,images/exp2c_trial_57_colour1_distractors4_l.png,l,1,015,001,2021-04-20_17h28.59.871,searchDisc4,2020.2.10,Win32,60,,,space,0.25405,1,1,0.5425,,0,111,111,513,1,2c,57,1,4,
,,,,,,,,,,,,,,,,,,,,,,,,,,images/exp1b_trial_58_colour1_distractors9_l.png,l,1,015,001,2021-04-20_17h28.59.871,searchDisc4,2020.2.10,Win32,60,,,space,0.33737,1,1,0.788925,,0,112,112,172,1,1b,58,1,9,
,,,,,,,,,,,,,,,,,,,,,,,,,,images/exp1a_trial_70_colour3_distractors9_l.png,l,1,015,001,2021-04-20_17h28.59.871,searchDisc4,2020.2.10,Win32,60,,,space,0.250325,1,1,0.719905,,0,113,113,70,1,1a,70,3,9,
,,,,,,,,,,,,,,,,,,,,,,,,,,images/exp2c_trial_44_colour2_distractors1_r.png,r,2,015,001,2021-04-20_17h28.59.871,searchDisc4,2020.2.10,Win32,60,,,space,0.29288,2,1,0.59974,,0,114,114,500,1,2c,44,2,1,
,,,,,,,,,,,,,,,,,,,,,,,,,,images/exp2c_trial_30_colour3_distractors1_l.png,l,1,015,001,2021-04-20_17h28.59.871,searchDisc4,2020.2.10,Win32,60,,,space,0.31835,2,0,0.83065,,0,115,115,486,1,2c,30,3,1,
,,,,,,,,,,,,,,,,,,,,,,,,,,images/exp2a_trial_5_colour1_distractors43_r.png,r,2,015,001,2021-04-20_17h28.59.871,searchDisc4,2020.2.10,Win32,60,,,space,0.53099,2,1,0.67969,,0,116,116,233,1,2a,5,1,43,
,,,,,,,,,,,,,,,,,,,,,,,,,,images/exp2b_trial_58_colour1_distractors9_l.png,l,1,015,001,2021-04-20_17h28.59.871,searchDisc4,2020.2.10,Win32,60,,,space,0.273275,1,1,0.58447,,0,117,117,400,1,2b,58,1,9,
,,,,,,,,,,,,,,,,,,,,,,,,,,images/exp2c_trial_96_colour1_distractors9_l.png,l,1,015,001,2021-04-20_17h28.59.871,searchDisc4,2020.2.10,Win32,60,,,space,0.28248,1,1,0.82685,,0,118,118,552,1,2c,96,1,9,
,,,,,,,,,,,,,,,,,,,,,,,,,,images/exp1a_trial_5_colour1_distractors43_r.png,r,2,015,001,2021-04-20_17h28.59.871,searchDisc4,2020.2.10,Win32,60,,,space,0.276965,2,1,0.915645,space,0,119,119,5,1,1a,5,1,43,0.28054
,,,,,,,,,,,,,,,,,,,,,,,,,,images/exp1b_trial_19_colour1_distractors4_l.png,l,1,015,001,2021-04-20_17h28.59.871,searchDisc4,2020.2.10,Win32,60,,,space,1.26702,1,1,0.864865,,0,120,120,133,1,1b,19,1,4,
,,,,,,,,,,,,,,,,,,,,,,,,,,images/exp2c_trial_41_colour1_distractors19_r.png,r,2,015,001,2021-04-20_17h28.59.871,searchDisc4,2020.2.10,Win32,60,,,space,0.43082,2,1,0.66658,,0,121,121,497,1,2c,41,1,19,
,,,,,,,,,,,,,,,,,,,,,,,,,,images/exp1b_trial_108_colour3_distractors9_l.png,l,1,015,001,2021-04-20_17h28.59.871,searchDisc4,2020.2.10,Win32,60,,,space,0.32945,1,1,1.154505,,0,122,122,222,1,1b,108,3,9,
,,,,,,,,,,,,,,,,,,,,,,,,,,images/exp2a_trial_54_colour3_distractors31_r.png,r,2,015,001,2021-04-20_17h28.59.871,searchDisc4,2020.2.10,Win32,60,,,space,0.30793,2,1,0.75432,,0,123,123,282,1,2a,54,3,31,
,,,,,,,,,,,,,,,,,,,,,,,,,,images/exp1b_trial_29_colour2_distractors43_l.png,l,1,015,001,2021-04-20_17h28.59.871,searchDisc4,2020.2.10,Win32,60,,,space,0.41505,1,1,2.271195,,0,124,124,143,1,1b,29,2,43,
,,,,,,,,,,,,,,,,,,,,,,,,,,images/exp2a_trial_25_colour2_distractors4_l.png,l,1,015,001,2021-04-20_17h28.59.871,searchDisc4,2020.2.10,Win32,60,,,space,0.201525,1,1,0.679405,,0,125,125,253,1,2a,25,2,4,
,,,,,,,,,,,,,,,,,,,,,,,,,,images/exp2b_trial_28_colour2_distractors31_l.png,l,1,015,001,2021-04-20_17h28.59.871,searchDisc4,2020.2.10,Win32,60,,,space,0.275075,1,1,0.63362,,0,126,126,370,1,2b,28,2,31,
,,,,,,,,,,,,,,,,,,,,,,,,,,images/exp2c_trial_89_colour3_distractors4_r.png,r,2,015,001,2021-04-20_17h28.59.871,searchDisc4,2020.2.10,Win32,60,,,space,0.315715,2,1,0.562645,,0,127,127,545,1,2c,89,3,4,
,,,,,,,,,,,,,,,,,,,,,,,,,,images/exp1a_trial_8_colour2_distractors9_r.png,r,2,015,001,2021-04-20_17h28.59.871,searchDisc4,2020.2.10,Win32,60,,,space,0.284205,2,1,0.640245,,0,128,128,8,1,1a,8,2,9,
,,,,,,,,,,,,,,,,,,,,,,,,,,images/exp2b_trial_50_colour3_distractors1_r.png,r,2,015,001,2021-04-20_17h28.59.871,searchDisc4,2020.2.10,Win32,60,,,space,0.296035,2,1,0.68405,,0,129,129,392,1,2b,50,3,1,
,,,,,,,,,,,,,,,,,,,,,,,,,,images/exp1b_trial_77_colour1_distractors4_r.png,r,2,015,001,2021-04-20_17h28.59.871,searchDisc4,2020.2.10,Win32,60,,,space,0.27381,2,1,0.597955,,0,130,130,191,1,1b,77,1,4,
,,,,,,,,,,,,,,,,,,,,,,,,,,images/exp1b_trial_14_colour3_distractors9_r.png,r,2,015,001,2021-04-20_17h28.59.871,searchDisc4,2020.2.10,Win32,60,,,space,0.30473,2,1,0.78443,,0,131,131,128,1,1b,14,3,9,
,,,,,,,,,,,,,,,,,,,,,,,,,,images/exp2b_trial_8_colour2_distractors9_r.png,r,2,015,001,2021-04-20_17h28.59.871,searchDisc4,2020.2.10,Win32,60,,,space,0.24605,2,1,0.77177,,0,132,132,350,1,2b,8,2,9,
,,,,,,,,,,,,,,,,,,,,,,,,,,images/exp2b_trial_14_colour3_distractors9_r.png,r,2,015,001,2021-04-20_17h28.59.871,searchDisc4,2020.2.10,Win32,60,,,space,0.24968,2,1,0.65218,,0,133,133,356,1,2b,14,3,9,
,,,,,,,,,,,,,,,,,,,,,,,,,,images/exp1b_trial_84_colour2_distractors9_r.png,r,2,015,001,2021-04-20_17h28.59.871,searchDisc4,2020.2.10,Win32,60,,,space,0.25149,2,1,0.901655,,0,134,134,198,1,1b,84,2,9,
,,,,,,,,,,,,,,,,,,,,,,,,,,images/exp2a_trial_48_colour2_distractors31_r.png,r,2,015,001,2021-04-20_17h28.59.871,searchDisc4,2020.2.10,Win32,60,,,space,0.21768,2,1,0.653405,,0,135,135,276,1,2a,48,2,31,
,,,,,,,,,,,,,,,,,,,,,,,,,,images/exp2c_trial_103_colour2_distractors19_l.png,l,1,015,001,2021-04-20_17h28.59.871,searchDisc4,2020.2.10,Win32,60,,,space,0.24699,1,1,0.67262,,0,136,136,559,1,2c,103,2,19,
,,,,,,,,,,,,,,,,,,,,,,,,,,images/exp1a_trial_91_colour3_distractors19_r.png,r,2,015,001,2021-04-20_17h28.59.871,searchDisc4,2020.2.10,Win32,60,,,space,0.1948,2,1,0.801275,,0,137,137,91,1,1a,91,3,19,
,,,,,,,,,,,,,,,,,,,,,,,,,,images/exp2a_trial_32_colour3_distractors9_l.png,l,1,015,001,2021-04-20_17h28.59.871,searchDisc4,2020.2.10,Win32,60,,,space,0.150675,1,1,1.665505,,0,138,138,260,1,2a,32,3,9,
,,,,,,,,,,,,,,,,,,,,,,,,,,images/exp2b_trial_22_colour1_distractors31_l.png,l,1,015,001,2021-04-20_17h28.59.871,searchDisc4,2020.2.10,Win32,60,,,space,0.501815,1,1,0.707145,,0,139,139,364,1,2b,22,1,31,
,,,,,,,,,,,,,,,,,,,,,,,,,,images/exp1a_trial_26_colour2_distractors9_l.png,l,1,015,001,2021-04-20_17h28.59.871,searchDisc4,2020.2.10,Win32,60,,,space,0.243185,1,1,0.753545,,0,140,140,26,1,1a,26,2,9,
,,,,,,,,,,,,,,,,,,,,,,,,,,images/exp1a_trial_7_colour2_distractors4_r.png,r,2,015,001,2021-04-20_17h28.59.871,searchDisc4,2020.2.10,Win32,60,,,space,0.36566,2,1,0.68496,,0,141,141,7,1,1a,7,2,4,
,,,,,,,,,,,,,,,,,,,,,,,,,,images/exp2c_trial_5_colour1_distractors43_r.png,r,2,015,001,2021-04-20_17h28.59.871,searchDisc4,2020.2.10,Win32,60,,,space,0.27566,2,1,0.73501,,0,142,142,461,1,2c,5,1,43,
,,,,,,,,,,,,,,,,,,,,,,,,,,images/exp2c_trial_9_colour2_distractors19_r.png,r,2,015,001,2021-04-20_17h28.59.871,searchDisc4,2020.2.10,Win32,60,,,space,0.300415,2,1,0.55991,,0,143,143,465,1,2c,9,2,19,
,,,,,,,,,,,,,,,,,,,,,,,,,,images/exp1a_trial_32_colour3_distractors9_l.png,l,1,015,001,2021-04-20_17h28.59.871,searchDisc4,2020.2.10,Win32,60,,,space,0.336025,1,1,0.514175,,0,144,144,32,1,1a,32,3,9,
,,,,,,,,,,,,,,,,,,,,,,,,,,images/exp2c_trial_113_colour0_distractors0_l.png,l,1,015,001,2021-04-20_17h28.59.871,searchDisc4,2020.2.10,Win32,60,,,space,0.31498,1,1,0.521835,,0,145,145,569,1,2c,113,0,0,
,,,,,,,,,,,,,,,,,,,,,,,,,,images/exp2c_trial_24_colour2_distractors1_l.png,l,1,015,001,2021-04-20_17h28.59.871,searchDisc4,2020.2.10,Win32,60,,,space,0.36618,1,1,0.480515,,0,146,146,480,1,2c,24,2,1,
,,,,,,,,,,,,,,,,,,,,,,,,,,images/exp1b_trial_6_colour2_distractors1_r.png,r,2,015,001,2021-04-20_17h28.59.871,searchDisc4,2020.2.10,Win32,60,,,space,0.34872,2,1,0.787495,,0,147,147,120,1,1b,6,2,1,
,,,,,,,,,,,,,,,,,,,,,,,,,,images/exp2c_trial_14_colour3_distractors9_r.png,r,2,015,001,2021-04-20_17h28.59.871,searchDisc4,2020.2.10,Win32,60,,,space,0.32201,2,1,0.73313,,0,148,148,470,1,2c,14,3,9,
,,,,,,,,,,,,,,,,,,,,,,,,,,images/exp1b_trial_79_colour1_distractors19_r.png,r,2,015,001,2021-04-20_17h28.59.871,searchDisc4,2020.2.10,Win32,60,,,space,0.295185,2,1,1.11797,,0,149,149,193,1,1b,79,1,19,
,,,,,,,,,,,,,,,,,,,,,,,,,,images/exp2c_trial_0_colour1_distractors1_r.png,r,2,015,001,2021-04-20_17h28.59.871,searchDisc4,2020.2.10,Win32,60,,,space,0.22868,2,1,0.620015,,0,150,150,456,1,2c,0,1,1,
,,,,,,,,,,,,,,,,,,,,,,,,,,images/exp1b_trial_111_colour3_distractors43_l.png,l,1,015,001,2021-04-20_17h28.59.871,searchDisc4,2020.2.10,Win32,60,,,space,0.252225,1,1,1.12216,,0,151,151,225,1,1b,111,3,43,
,,,,,,,,,,,,,,,,,,,,,,,,,,images/exp2c_trial_80_colour1_distractors31_r.png,r,2,015,001,2021-04-20_17h28.59.871,searchDisc4,2020.2.10,Win32,60,,,space,0.23964,2,1,0.76316,,0,152,152,536,1,2c,80,1,31,
,,,,,,,,,,,,,,,,,,,,,,,,,,images/exp1a_trial_99_colour1_distractors43_l.png,l,1,015,001,2021-04-20_17h28.59.871,searchDisc4,2020.2.10,Win32,60,,,space,0.306885,1,1,0.738045,,0,153,153,99,1,1a,99,1,43,
,,,,,,,,,,,,,,,,,,,,,,,,,,images/exp2a_trial_6_colour2_distractors1_r.png,r,2,015,001,2021-04-20_17h28.59.871,searchDisc4,2020.2.10,Win32,60,,,space,0.32911,2,1,0.616675,,0,154,154,234,1,2a,6,2,1,
,,,,,,,,,,,,,,,,,,,,,,,,,,images/exp1a_trial_45_colour2_distractors4_r.png,r,2,015,001,2021-04-20_17h28.59.871,searchDisc4,2020.2.10,Win32,60,,,space,0.305005,2,1,0.625505,,0,155,155,45,1,1a,45,2,4,
,,,,,,,,,,,,,,,,,,,,,,,,,,images/exp2b_trial_13_colour3_distractors4_r.png,r,2,015,001,2021-04-20_17h28.59.871,searchDisc4,2020.2.10,Win32,60,,,space,0.23107,2,1,0.64637,,0,156,156,355,1,2b,13,3,4,
,,,,,,,,,,,,,,,,,,,,,,,,,,images/exp1b_trial_39_colour1_distractors4_r.png,r,2,015,001,2021-04-20_17h28.59.871,searchDisc4,2020.2.10,Win32,60,,,space,0.25105,2,1,0.58459,,0,157,157,153,1,1b,39,1,4,
,,,,,,,,,,,,,,,,,,,,,,,,,,images/exp2a_trial_19_colour1_distractors4_l.png,l,1,015,001,2021-04-20_17h28.59.871,searchDisc4,2020.2.10,Win32,60,,,space,0.268395,1,1,0.656565,,0,158,158,247,1,2a,19,1,4,
,,,,,,,,,,,,,,,,,,,,,,,,,,images/exp2c_trial_32_colour3_distractors9_l.png,l,1,015,001,2021-04-20_17h28.59.871,searchDisc4,2020.2.10,Win32,60,,,space,0.243155,2,0,0.661505,,0,159,159,488,1,2c,32,3,9,
,,,,,,,,,,,,,,,,,,,,,,,,,,images/exp2a_trial_1_colour1_distractors4_r.png,r,2,015,001,2021-04-20_17h28.59.871,searchDisc4,2020.2.10,Win32,60,,,space,0.510415,2,1,0.65824,,0,160,160,229,1,2a,1,1,4,
,,,,,,,,,,,,,,,,,,,,,,,,,,images/exp2c_trial_105_colour2_distractors43_l.png,l,1,015,001,2021-04-20_17h28.59.871,searchDisc4,2020.2.10,Win32,60,,,space,0.21143,1,1,0.74069,,0,161,161,561,1,2c,105,2,43,
,,,,,,,,,,,,,,,,,,,,,,,,,,images/exp1b_trial_71_colour3_distractors19_l.png,l,1,015,001,2021-04-20_17h28.59.871,searchDisc4,2020.2.10,Win32,60,,,space,0.255185,,0,,,0,162,162,185,1,1b,71,3,19,
,,,,,,,,,,,,,,,,,,,,,,,,,,images/exp1b_trial_4_colour1_distractors31_r.png,r,2,015,001,2021-04-20_17h28.59.871,searchDisc4,2020.2.10,Win32,60,,,space,0.55087,2,1,0.861575,,0,163,163,118,1,1b,4,1,31,
,,,,,,,,,,,,,,,,,,,,,,,,,,images/exp2b_trial_33_colour3_distractors19_l.png,l,1,015,001,2021-04-20_17h28.59.871,searchDisc4,2020.2.10,Win32,60,,,space,0.216095,1,1,0.69553,,0,164,164,375,1,2b,33,3,19,
,,,,,,,,,,,,,,,,,,,,,,,,,,images/exp2c_trial_47_colour2_distractors19_r.png,r,2,015,001,2021-04-20_17h28.59.871,searchDisc4,2020.2.10,Win32,60,,,space,0.29266,2,1,0.972565,,0,165,165,503,1,2c,47,2,19,
,,,,,,,,,,,,,,,,,,,,,,,,,,images/exp2a_trial_103_colour2_distractors19_l.png,l,1,015,001,2021-04-20_17h28.59.871,searchDisc4,2020.2.10,Win32,60,,,space,0.33875,1,1,0.69408,,0,166,166,331,1,2a,103,2,19,
,,,,,,,,,,,,,,,,,,,,,,,,,,images/exp2b_trial_100_colour2_distractors1_l.png,l,1,015,001,2021-04-20_17h28.59.871,searchDisc4,2020.2.10,Win32,60,,,space,0.298235,1,1,0.62647,,0,167,167,442,1,2b,100,2,1,
,,,,,,,,,,,,,,,,,,,,,,,,,,images/exp2b_trial_89_colour3_distractors4_r.png,r,2,015,001,2021-04-20_17h28.59.871,searchDisc4,2020.2.10,Win32,60,,,space,0.333895,2,1,0.58193,,0,168,168,431,1,2b,89,3,4,
,,,,,,,,,,,,,,,,,,,,,,,,,,images/exp2a_trial_52_colour3_distractors9_r.png,r,2,015,001,2021-04-20_17h28.59.871,searchDisc4,2020.2.10,Win32,60,,,space,0.364795,2,1,0.61097,,0,169,169,280,1,2a,52,3,9,
,,,,,,,,,,,,,,,,,,,,,,,,,,images/exp2a_trial_83_colour2_distractors4_r.png,r,2,015,001,2021-04-20_17h28.59.871,searchDisc4,2020.2.10,Win32,60,,,space,0.333325,2,1,0.740905,,0,170,170,311,1,2a,83,2,4,
,,,,,,,,,,,,,,,,,,,,,,,,,,images/exp1b_trial_75_colour0_distractors0_l.png,l,1,015,001,2021-04-20_17h28.59.871,searchDisc4,2020.2.10,Win32,60,,,space,0.230375,1,1,0.751505,,0,171,171,189,1,1b,75,0,0,
,,,,,,,,,,,,,,,,,,,,,,,,,,images/exp1a_trial_35_colour3_distractors43_l.png,l,1,015,001,2021-04-20_17h28.59.871,searchDisc4,2020.2.10,Win32,60,,,space,0.31958,1,1,0.894965,,0,172,172,35,1,1a,35,3,43,
,,,,,,,,,,,,,,,,,,,,,,,,,,images/exp2c_trial_31_colour3_distractors4_l.png,l,1,015,001,2021-04-20_17h28.59.871,searchDisc4,2020.2.10,Win32,60,,,space,0.323715,1,1,0.574205,,0,173,173,487,1,2c,31,3,4,
,,,,,,,,,,,,,,,,,,,,,,,,,,images/exp1b_trial_89_colour3_distractors4_r.png,r,2,015,001,2021-04-20_17h28.59.871,searchDisc4,2020.2.10,Win32,60,,,space,0.34825,2,1,0.85293,,0,174,174,203,1,1b,89,3,4,
,,,,,,,,,,,,,,,,,,,,,,,,,,images/exp1b_trial_103_colour2_distractors19_l.png,l,1,015,001,2021-04-20_17h28.59.871,searchDisc4,2020.2.10,Win32,60,,,space,0.304735,1,1,1.5513,,0,175,175,217,1,1b,103,2,19,
,,,,,,,,,,,,,,,,,,,,,,,,,,images/exp1a_trial_94_colour1_distractors1_l.png,l,1,015,001,2021-04-20_17h28.59.871,searchDisc4,2020.2.10,Win32,60,,,space,0.213545,2,0,0.97887,,0,176,176,94,1,1a,94,1,1,
,,,,,,,,,,,,,,,,,,,,,,,,,,images/exp1b_trial_81_colour1_distractors43_r.png,r,2,015,001,2021-04-20_17h28.59.871,searchDisc4,2020.2.10,Win32,60,,,space,0.5724,2,1,1.488755,,0,177,177,195,1,1b,81,1,43,
,,,,,,,,,,,,,,,,,,,,,,,,,,images/exp1b_trial_56_colour1_distractors1_l.png,l,1,015,001,2021-04-20_17h28.59.871,searchDisc4,2020.2.10,Win32,60,,,space,0.28261,1,1,1.038355,,0,178,178,170,1,1b,56,1,1,
,,,,,,,,,,,,,,,,,,,,,,,,,,images/exp2a_trial_18_colour1_distractors1_l.png,l,1,015,001,2021-04-20_17h28.59.871,searchDisc4,2020.2.10,Win32,60,,,space,0.16496,1,1,1.05118,space,0,179,179,246,1,2a,18,1,1,0.24448
,,,,,,,,,,,,,,,,,,,,,,,,,,images/exp2a_trial_21_colour1_distractors19_l.png,l,1,015,001,2021-04-20_17h28.59.871,searchDisc4,2020.2.10,Win32,60,,,space,1.26994,1,1,0.7067,,0,180,180,249,1,2a,21,1,19,
,,,,,,,,,,,,,,,,,,,,,,,,,,images/exp1a_trial_9_colour2_distractors19_r.png,r,2,015,001,2021-04-20_17h28.59.871,searchDisc4,2020.2.10,Win32,60,,,space,0.25704,1,0,0.628795,,0,181,181,9,1,1a,9,2,19,
,,,,,,,,,,,,,,,,,,,,,,,,,,images/exp1a_trial_19_colour1_distractors4_l.png,l,1,015,001,2021-04-20_17h28.59.871,searchDisc4,2020.2.10,Win32,60,,,space,0.59859,1,1,0.748205,,0,182,182,19,1,1a,19,1,4,
,,,,,,,,,,,,,,,,,,,,,,,,,,images/exp2b_trial_7_colour2_distractors4_r.png,r,2,015,001,2021-04-20_17h28.59.871,searchDisc4,2020.2.10,Win32,60,,,space,0.23934,2,1,0.64784,,0,183,183,349,1,2b,7,2,4,
,,,,,,,,,,,,,,,,,,,,,,,,,,images/exp1b_trial_36_colour0_distractors0_r.png,r,2,015,001,2021-04-20_17h28.59.871,searchDisc4,2020.2.10,Win32,60,,,space,0.34925,2,1,0.59055,,0,184,184,150,1,1b,36,0,0,
,,,,,,,,,,,,,,,,,,,,,,,,,,images/exp2b_trial_45_colour2_distractors4_r.png,r,2,015,001,2021-04-20_17h28.59.871,searchDisc4,2020.2.10,Win32,60,,,space,0.342885,2,1,0.71508,,0,185,185,387,1,2b,45,2,4,
,,,,,,,,,,,,,,,,,,,,,,,,,,images/exp2c_trial_51_colour3_distractors4_r.png,r,2,015,001,2021-04-20_17h28.59.871,searchDisc4,2020.2.10,Win32,60,,,space,0.28479,2,1,0.74768,,0,186,186,507,1,2c,51,3,4,
,,,,,,,,,,,,,,,,,,,,,,,,,,images/exp2c_trial_16_colour3_distractors31_r.png,r,2,015,001,2021-04-20_17h28.59.871,searchDisc4,2020.2.10,Win32,60,,,space,0.23214,2,1,0.706045,,0,187,187,472,1,2c,16,3,31,
,,,,,,,,,,,,,,,,,,,,,,,,,,images/exp1b_trial_70_colour3_distractors9_l.png,l,1,015,001,2021-04-20_17h28.59.871,searchDisc4,2020.2.10,Win32,60,,,space,0.25359,1,1,0.980875,,0,188,188,184,1,1b,70,3,9,
,,,,,,,,,,,,,,,,,,,,,,,,,,images/exp2b_trial_103_colour2_distractors19_l.png,l,1,015,001,2021-04-20_17h28.59.871,searchDisc4,2020.2.10,Win32,60,,,space,0.298035,1,1,0.552095,,0,189,189,445,1,2b,103,2,19,
,,,,,,,,,,,,,,,,,,,,,,,,,,images/exp2c_trial_56_colour1_distractors1_l.png,l,1,015,001,2021-04-20_17h28.59.871,searchDisc4,2020.2.10,Win32,60,,,space,0.39889,1,1,0.682785,,0,190,190,512,1,2c,56,1,1,
,,,,,,,,,,,,,,,,,,,,,,,,,,images/exp1a_trial_113_colour0_distractors0_l.png,l,1,015,001,2021-04-20_17h28.59.871,searchDisc4,2020.2.10,Win32,60,,,space,0.329325,1,1,0.55626,,0,191,191,113,1,1a,113,0,0,
,,,,,,,,,,,,,,,,,,,,,,,,,,images/exp2a_trial_47_colour2_distractors19_r.png,r,2,015,001,2021-04-20_17h28.59.871,searchDisc4,2020.2.10,Win32,60,,,space,0.33207,2,1,0.645875,,0,192,192,275,1,2a,47,2,19,
,,,,,,,,,,,,,,,,,,,,,,,,,,images/exp2b_trial_35_colour3_distractors43_l.png,l,1,015,001,2021-04-20_17h28.59.871,searchDisc4,2020.2.10,Win32,60,,,space,0.3009,1,1,0.55101,,0,193,193,377,1,2b,35,3,43,
,,,,,,,,,,,,,,,,,,,,,,,,,,images/exp2b_trial_83_colour2_distractors4_r.png,r,2,015,001,2021-04-20_17h28.59.871,searchDisc4,2020.2.10,Win32,60,,,space,0.34936,2,1,0.618165,,0,194,194,425,1,2b,83,2,4,
,,,,,,,,,,,,,,,,,,,,,,,,,,images/exp1b_trial_26_colour2_distractors9_l.png,l,1,015,001,2021-04-20_17h28.59.871,searchDisc4,2020.2.10,Win32,60,,,space,0.345,1,1,0.552075,,0,195,195,140,1,1b,26,2,9,
,,,,,,,,,,,,,,,,,,,,,,,,,,images/exp1b_trial_87_colour2_distractors43_r.png,r,2,015,001,2021-04-20_17h28.59.871,searchDisc4,2020.2.10,Win32,60,,,space,0.371455,2,1,0.9708,,0,196,196,201,1,1b,87,2,43,
,,,,,,,,,,,,,,,,,,,,,,,,,,images/exp2b_trial_87_colour2_distractors43_r.png,r,2,015,001,2021-04-20_17h28.59.871,searchDisc4,2020.2.10,Win32,60,,,space,0.23714,1,0,0.762245,,0,197,197,429,1,2b,87,2,43,
,,,,,,,,,,,,,,,,,,,,,,,,,,images/exp2a_trial_2_colour1_distractors9_r.png,r,2,015,001,2021-04-20_17h28.59.871,searchDisc4,2020.2.10,Win32,60,,,space,0.600225,2,1,0.71601,,0,198,198,230,1,2a,2,1,9,
,,,,,,,,,,,,,,,,,,,,,,,,,,images/exp1b_trial_68_colour3_distractors1_l.png,l,1,015,001,2021-04-20_17h28.59.871,searchDisc4,2020.2.10,Win32,60,,,space,0.283895,1,1,0.776025,,0,199,199,182,1,1b,68,3,1,
,,,,,,,,,,,,,,,,,,,,,,,,,,images/exp1b_trial_72_colour3_distractors31_l.png,l,1,015,001,2021-04-20_17h28.59.871,searchDisc4,2020.2.10,Win32,60,,,space,0.264685,1,1,1.006495,,0,200,200,186,1,1b,72,3,31,
,,,,,,,,,,,,,,,,,,,,,,,,,,images/exp1b_trial_57_colour1_distractors4_l.png,l,1,015,001,2021-04-20_17h28.59.871,searchDisc4,2020.2.10,Win32,60,,,space,0.30443,1,1,0.88151,,0,201,201,171,1,1b,57,1,4,
,,,,,,,,,,,,,,,,,,,,,,,,,,images/exp2a_trial_53_colour3_distractors19_r.png,r,2,015,001,2021-04-20_17h28.59.871,searchDisc4,2020.2.10,Win32,60,,,space,0.211815,2,1,0.83277,,0,202,202,281,1,2a,53,3,19,
,,,,,,,,,,,,,,,,,,,,,,,,,,images/exp2b_trial_69_colour3_distractors4_l.png,l,1,015,001,2021-04-20_17h28.59.871,searchDisc4,2020.2.10,Win32,60,,,space,0.26939,1,1,0.751455,,0,203,203,411,1,2b,69,3,4,
,,,,,,,,,,,,,,,,,,,,,,,,,,images/exp1b_trial_86_colour2_distractors31_r.png,r,2,015,001,2021-04-20_17h28.59.871,searchDisc4,2020.2.10,Win32,60,,,space,0.316085,2,1,0.90385,,0,204,204,200,1,1b,86,2,31,
,,,,,,,,,,,,,,,,,,,,,,,,,,images/exp2a_trial_31_colour3_distractors4_l.png,l,1,015,001,2021-04-20_17h28.59.871,searchDisc4,2020.2.10,Win32,60,,,space,0.301155,1,1,0.897715,,0,205,205,259,1,2a,31,3,4,
,,,,,,,,,,,,,,,,,,,,,,,,,,images/exp1b_trial_102_colour2_distractors9_l.png,l,1,015,001,2021-04-20_17h28.59.871,searchDisc4,2020.2.10,Win32,60,,,space,0.23851,1,1,0.601335,,0,206,206,216,1,1b,102,2,9,
,,,,,,,,,,,,,,,,,,,,,,,,,,images/exp2a_trial_107_colour3_distractors4_l.png,l,1,015,001,2021-04-20_17h28.59.871,searchDisc4,2020.2.10,Win32,60,,,space,0.199155,1,1,0.66916,,0,207,207,335,1,2a,107,3,4,
,,,,,,,,,,,,,,,,,,,,,,,,,,images/exp2c_trial_107_colour3_distractors4_l.png,l,1,015,001,2021-04-20_17h28.59.871,searchDisc4,2020.2.10,Win32,60,,,space,0.23761,1,1,0.80901,,0,208,208,563,1,2c,107,3,4,
,,,,,,,,,,,,,,,,,,,,,,,,,,images/exp2c_trial_2_colour1_distractors9_r.png,r,2,015,001,2021-04-20_17h28.59.871,searchDisc4,2020.2.10,Win32,60,,,space,0.200985,2,1,0.590315,,0,209,209,458,1,2c,2,1,9,
,,,,,,,,,,,,,,,,,,,,,,,,,,images/exp2b_trial_53_colour3_distractors19_r.png,r,2,015,001,2021-04-20_17h28.59.871,searchDisc4,2020.2.10,Win32,60,,,space,0.301595,2,1,0.705675,,0,210,210,395,1,2b,53,3,19,
,,,,,,,,,,,,,,,,,,,,,,,,,,images/exp2b_trial_113_colour0_distractors0_l.png,l,1,015,001,2021-04-20_17h28.59.871,searchDisc4,2020.2.10,Win32,60,,,space,0.20288,1,1,0.65218,,0,211,211,455,1,2b,113,0,0,
,,,,,,,,,,,,,,,,,,,,,,,,,,images/exp2a_trial_10_colour2_distractors31_r.png,r,2,015,001,2021-04-20_17h28.59.871,searchDisc4,2020.2.10,Win32,60,,,space,0.24736,2,1,0.67396,,0,212,212,238,1,2a,10,2,31,
,,,,,,,,,,,,,,,,,,,,,,,,,,images/exp2c_trial_42_colour1_distractors31_r.png,r,2,015,001,2021-04-20_17h28.59.871,searchDisc4,2020.2.10,Win32,60,,,space,0.28357,2,1,0.7038,,0,213,213,498,1,2c,42,1,31,
,,,,,,,,,,,,,,,,,,,,,,,,,,images/exp2b_trial_93_colour3_distractors43_r.png,r,2,015,001,2021-04-20_17h28.59.871,searchDisc4,2020.2.10,Win32,60,,,space,0.09156,2,1,1.016445,,0,214,214,435,1,2b,93,3,43,
,,,,,,,,,,,,,,,,,,,,,,,,,,images/exp2b_trial_88_colour3_distractors1_r.png,r,2,015,001,2021-04-20_17h28.59.871,searchDisc4,2020.2.10,Win32,60,,,space,0.167325,2,1,0.68057,,0,215,215,430,1,2b,88,3,1,
,,,,,,,,,,,,,,,,,,,,,,,,,,images/exp2a_trial_67_colour2_distractors43_l.png,l,1,015,001,2021-04-20_17h28.59.871,searchDisc4,2020.2.10,Win32,60,,,space,0.131065,1,1,0.746085,,0,216,216,295,1,2a,67,2,43,
,,,,,,,,,,,,,,,,,,,,,,,,,,images/exp2a_trial_89_colour3_distractors4_r.png,r,2,015,001,2021-04-20_17h28.59.871,searchDisc4,2020.2.10,Win32,60,,,space,0.227875,2,1,0.82819,,0,217,217,317,1,2a,89,3,4,
,,,,,,,,,,,,,,,,,,,,,,,,,,images/exp2c_trial_40_colour1_distractors9_r.png,r,2,015,001,2021-04-20_17h28.59.871,searchDisc4,2020.2.10,Win32,60,,,space,0.19845,2,1,0.707555,,0,218,218,496,1,2c,40,1,9,
,,,,,,,,,,,,,,,,,,,,,,,,,,images/exp2c_trial_88_colour3_distractors1_r.png,r,2,015,001,2021-04-20_17h28.59.871,searchDisc4,2020.2.10,Win32,60,,,space,0.067795,2,1,0.634525,,0,219,219,544,1,2c,88,3,1,
,,,,,,,,,,,,,,,,,,,,,,,,,,images/exp2c_trial_95_colour1_distractors4_l.png,l,1,015,001,2021-04-20_17h28.59.871,searchDisc4,2020.2.10,Win32,60,,,space,0.72965,1,1,0.639145,,0,220,220,551,1,2c,95,1,4,
,,,,,,,,,,,,,,,,,,,,,,,,,,images/exp2b_trial_77_colour1_distractors4_r.png,r,2,015,001,2021-04-20_17h28.59.871,searchDisc4,2020.2.10,Win32,60,,,space,0.461335,2,1,0.61807,,0,221,221,419,1,2b,77,1,4,
,,,,,,,,,,,,,,,,,,,,,,,,,,images/exp1b_trial_112_colour0_distractors0_r.png,r,2,015,001,2021-04-20_17h28.59.871,searchDisc4,2020.2.10,Win32,60,,,space,0.48209,2,1,0.745445,,0,222,222,226,1,1b,112,0,0,
,,,,,,,,,,,,,,,,,,,,,,,,,,images/exp1b_trial_94_colour1_distractors1_l.png,l,1,015,001,2021-04-20_17h28.59.871,searchDisc4,2020.2.10,Win32,60,,,space,0.27289,1,1,0.49454,,0,223,223,208,1,1b,94,1,1,
,,,,,,,,,,,,,,,,,,,,,,,,,,images/exp1a_trial_20_colour1_distractors9_l.png,l,1,015,001,2021-04-20_17h28.59.871,searchDisc4,2020.2.10,Win32,60,,,space,0.346055,1,1,0.72914,,0,224,224,20,1,1a,20,1,9,
,,,,,,,,,,,,,,,,,,,,,,,,,,images/exp1a_trial_84_colour2_distractors9_r.png,r,2,015,001,2021-04-20_17h28.59.871,searchDisc4,2020.2.10,Win32,60,,,space,0.17219,2,1,0.728335,,0,225,225,84,1,1a,84,2,9,
,,,,,,,,,,,,,,,,,,,,,,,,,,images/exp2b_trial_37_colour0_distractors0_l.png,l,1,015,001,2021-04-20_17h28.59.871,searchDisc4,2020.2.10,Win32,60,,,space,0.21247,1,1,0.669975,,0,226,226,379,1,2b,37,0,0,
,,,,,,,,,,,,,,,,,,,,,,,,,,images/exp2a_trial_62_colour2_distractors1_l.png,l,1,015,001,2021-04-20_17h28.59.871,searchDisc4,2020.2.10,Win32,60,,,space,0.208095,1,1,0.53175,,0,227,227,290,1,2a,62,2,1,
,,,,,,,,,,,,,,,,,,,,,,,,,,images/exp2b_trial_80_colour1_distractors31_r.png,r,2,015,001,2021-04-20_17h28.59.871,searchDisc4,2020.2.10,Win32,60,,,space,0.175265,2,1,0.857805,,0,228,228,422,1,2b,80,1,31,
,,,,,,,,,,,,,,,,,,,,,,,,,,images/exp2a_trial_76_colour1_distractors1_r.png,r,2,015,001,2021-04-20_17h28.59.871,searchDisc4,2020.2.10,Win32,60,,,space,0.3537,2,1,0.98707,,0,229,229,304,1,2a,76,1,1,
,,,,,,,,,,,,,,,,,,,,,,,,,,images/exp1a_trial_79_colour1_distractors19_r.png,r,2,015,001,2021-04-20_17h28.59.871,searchDisc4,2020.2.10,Win32,60,,,space,0.29485,2,1,0.72729,,0,230,230,79,1,1a,79,1,19,
,,,,,,,,,,,,,,,,,,,,,,,,,,images/exp2b_trial_62_colour2_distractors1_l.png,l,1,015,001,2021-04-20_17h28.59.871,searchDisc4,2020.2.10,Win32,60,,,space,0.30308,1,1,0.53372,,0,231,231,404,1,2b,62,2,1,
,,,,,,,,,,,,,,,,,,,,,,,,,,images/exp2a_trial_93_colour3_distractors43_r.png,r,2,015,001,2021-04-20_17h28.59.871,searchDisc4,2020.2.10,Win32,60,,,space,0.340695,2,1,0.637715,,0,232,232,321,1,2a,93,3,43,
,,,,,,,,,,,,,,,,,,,,,,,,,,images/exp2c_trial_38_colour1_distractors1_r.png,r,2,015,001,2021-04-20_17h28.59.871,searchDisc4,2020.2.10,Win32,60,,,space,0.303125,2,1,0.801785,,0,233,233,494,1,2c,38,1,1,
,,,,,,,,,,,,,,,,,,,,,,,,,,images/exp1a_trial_40_colour1_distractors9_r.png,r,2,015,001,2021-04-20_17h28.59.871,searchDisc4,2020.2.10,Win32,60,,,space,0.320955,2,1,0.641195,,0,234,234,40,1,1a,40,1,9,
,,,,,,,,,,,,,,,,,,,,,,,,,,images/exp2b_trial_108_colour3_distractors9_l.png,l,1,015,001,2021-04-20_17h28.59.871,searchDisc4,2020.2.10,Win32,60,,,space,0.282155,1,1,0.849055,,0,235,235,450,1,2b,108,3,9,
,,,,,,,,,,,,,,,,,,,,,,,,,,images/exp2c_trial_50_colour3_distractors1_r.png,r,2,015,001,2021-04-20_17h28.59.871,searchDisc4,2020.2.10,Win32,60,,,space,0.205035,2,1,0.59423,,0,236,236,506,1,2c,50,3,1,
,,,,,,,,,,,,,,,,,,,,,,,,,,images/exp1a_trial_55_colour3_distractors43_r.png,r,2,015,001,2021-04-20_17h28.59.871,searchDisc4,2020.2.10,Win32,60,,,space,0.301875,2,1,0.664255,,0,237,237,55,1,1a,55,3,43,
,,,,,,,,,,,,,,,,,,,,,,,,,,images/exp2c_trial_4_colour1_distractors31_r.png,r,2,015,001,2021-04-20_17h28.59.871,searchDisc4,2020.2.10,Win32,60,,,space,0.213815,2,1,0.74599,,0,238,238,460,1,2c,4,1,31,
,,,,,,,,,,,,,,,,,,,,,,,,,,images/exp2c_trial_94_colour1_distractors1_l.png,l,1,015,001,2021-04-20_17h28.59.871,searchDisc4,2020.2.10,Win32,60,,,space,0.23208,1,1,1.10721,space,0,239,239,550,1,2c,94,1,1,0.314885
,,,,,,,,,,,,,,,,,,,,,,,,,,images/exp1b_trial_31_colour3_distractors4_l.png,l,1,015,001,2021-04-20_17h28.59.871,searchDisc4,2020.2.10,Win32,60,,,space,1.221505,1,1,0.866895,,0,240,240,145,1,1b,31,3,4,
,,,,,,,,,,,,,,,,,,,,,,,,,,images/exp2a_trial_38_colour1_distractors1_r.png,r,2,015,001,2021-04-20_17h28.59.871,searchDisc4,2020.2.10,Win32,60,,,space,0.289655,2,1,0.5822,,0,241,241,266,1,2a,38,1,1,
,,,,,,,,,,,,,,,,,,,,,,,,,,images/exp1a_trial_48_colour2_distractors31_r.png,r,2,015,001,2021-04-20_17h28.59.871,searchDisc4,2020.2.10,Win32,60,,,space,0.26708,2,1,0.571225,,0,242,242,48,1,1a,48,2,31,
,,,,,,,,,,,,,,,,,,,,,,,,,,images/exp1b_trial_73_colour3_distractors43_l.png,l,1,015,001,2021-04-20_17h28.59.871,searchDisc4,2020.2.10,Win32,60,,,space,0.26011,1,1,4.082335,,0,243,243,187,1,1b,73,3,43,
,,,,,,,,,,,,,,,,,,,,,,,,,,images/exp2b_trial_98_colour1_distractors31_l.png,l,1,015,001,2021-04-20_17h28.59.871,searchDisc4,2020.2.10,Win32,60,,,space,0.17888,1,1,0.70377,,0,244,244,440,1,2b,98,1,31,
,,,,,,,,,,,,,,,,,,,,,,,,,,images/exp2c_trial_106_colour3_distractors1_l.png,l,1,015,001,2021-04-20_17h28.59.871,searchDisc4,2020.2.10,Win32,60,,,space,0.252055,1,1,0.611265,,0,245,245,562,1,2c,106,3,1,
,,,,,,,,,,,,,,,,,,,,,,,,,,images/exp2c_trial_28_colour2_distractors31_l.png,l,1,015,001,2021-04-20_17h28.59.871,searchDisc4,2020.2.10,Win32,60,,,space,0.300495,1,1,0.66427,,0,246,246,484,1,2c,28,2,31,
,,,,,,,,,,,,,,,,,,,,,,,,,,images/exp1b_trial_12_colour3_distractors1_r.png,r,2,015,001,2021-04-20_17h28.59.871,searchDisc4,2020.2.10,Win32,60,,,space,0.284015,2,1,0.90181,,0,247,247,126,1,1b,12,3,1,
,,,,,,,,,,,,,,,,,,,,,,,,,,images/exp1a_trial_60_colour1_distractors31_l.png,l,1,015,001,2021-04-20_17h28.59.871,searchDisc4,2020.2.10,Win32,60,,,space,0.26575,1,1,0.80497,,0,248,248,60,1,1a,60,1,31,
,,,,,,,,,,,,,,,,,,,,,,,,,,images/exp2b_trial_20_colour1_distractors9_l.png,l,1,015,001,2021-04-20_17h28.59.871,searchDisc4,2020.2.10,Win32,60,,,space,0.3105,1,1,0.749495,,0,249,249,362,1,2b,20,1,9,
,,,,,,,,,,,,,,,,,,,,,,,,,,images/exp2c_trial_11_colour2_distractors43_r.png,r,2,015,001,2021-04-20_17h28.59.871,searchDisc4,2020.2.10,Win32,60,,,space,0.30866,2,1,0.61595,,0,250,250,467,1,2c,11,2,43,
,,,,,,,,,,,,,,,,,,,,,,,,,,images/exp2b_trial_54_colour3_distractors31_r.png,r,2,015,001,2021-04-20_17h28.59.871,searchDisc4,2020.2.10,Win32,60,,,space,0.29735,2,1,0.624625,,0,251,251,396,1,2b,54,3,31,
,,,,,,,,,,,,,,,,,,,,,,,,,,images/exp1b_trial_47_colour2_distractors19_r.png,r,2,015,001,2021-04-20_17h28.59.871,searchDisc4,2020.2.10,Win32,60,,,space,0.273715,1,0,0.61841,,0,252,252,161,1,1b,47,2,19,
,,,,,,,,,,,,,,,,,,,,,,,,,,images/exp2b_trial_27_colour2_distractors19_l.png,l,1,015,001,2021-04-20_17h28.59.871,searchDisc4,2020.2.10,Win32,60,,,space,0.56358,1,1,0.61587,,0,253,253,369,1,2b,27,2,19,
,,,,,,,,,,,,,,,,,,,,,,,,,,images/exp1a_trial_62_colour2_distractors1_l.png,l,1,015,001,2021-04-20_17h28.59.871,searchDisc4,2020.2.10,Win32,60,,,space,0.308235,1,1,0.719285,,0,254,254,62,1,1a,62,2,1,
,,,,,,,,,,,,,,,,,,,,,,,,,,images/exp2b_trial_43_colour1_distractors43_r.png,r,2,015,001,2021-04-20_17h28.59.871,searchDisc4,2020.2.10,Win32,60,,,space,0.282745,2,1,0.797845,,0,255,255,385,1,2b,43,1,43,
,,,,,,,,,,,,,,,,,,,,,,,,,,images/exp2a_trial_22_colour1_distractors31_l.png,l,1,015,001,2021-04-20_17h28.59.871,searchDisc4,2020.2.10,Win32,60,,,space,0.2947,1,1,0.631585,,0,256,256,250,1,2a,22,1,31,
,,,,,,,,,,,,,,,,,,,,,,,,,,images/exp2a_trial_72_colour3_distractors31_l.png,l,1,015,001,2021-04-20_17h28.59.871,searchDisc4,2020.2.10,Win32,60,,,space,0.297825,1,1,0.77678,,0,257,257,300,1,2a,72,3,31,
,,,,,,,,,,,,,,,,,,,,,,,,,,images/exp2a_trial_81_colour1_distractors43_r.png,r,2,015,001,2021-04-20_17h28.59.871,searchDisc4,2020.2.10,Win32,60,,,space,0.25107,2,1,0.881365,,0,258,258,309,1,2a,81,1,43,
,,,,,,,,,,,,,,,,,,,,,,,,,,images/exp1b_trial_42_colour1_distractors31_r.png,r,2,015,001,2021-04-20_17h28.59.871,searchDisc4,2020.2.10,Win32,60,,,space,0.300625,2,1,0.691125,,0,259,259,156,1,1b,42,1,31,
,,,,,,,,,,,,,,,,,,,,,,,,,,images/exp2c_trial_73_colour3_distractors43_l.png,l,1,015,001,2021-04-20_17h28.59.871,searchDisc4,2020.2.10,Win32,60,,,space,0.2515,1,1,0.72978,,0,260,260,529,1,2c,73,3,43,
,,,,,,,,,,,,,,,,,,,,,,,,,,images/exp2b_trial_84_colour2_distractors9_r.png,r,2,015,001,2021-04-20_17h28.59.871,searchDisc4,2020.2.10,Win32,60,,,space,0.305205,2,1,0.58846,,0,261,261,426,1,2b,84,2,9,
,,,,,,,,,,,,,,,,,,,,,,,,,,images/exp2c_trial_1_colour1_distractors4_r.png,r,2,015,001,2021-04-20_17h28.59.871,searchDisc4,2020.2.10,Win32,60,,,space,0.31622,2,1,0.57412,,0,262,262,457,1,2c,1,1,4,
,,,,,,,,,,,,,,,,,,,,,,,,,,images/exp1b_trial_11_colour2_distractors43_r.png,r,2,015,001,2021-04-20_17h28.59.871,searchDisc4,2020.2.10,Win32,60,,,space,0.34019,2,1,1.143435,,0,263,263,125,1,1b,11,2,43,
,,,,,,,,,,,,,,,,,,,,,,,,,,images/exp1a_trial_101_colour2_distractors4_l.png,l,1,015,001,2021-04-20_17h28.59.871,searchDisc4,2020.2.10,Win32,60,,,space,0.2509,1,1,0.572805,,0,264,264,101,1,1a,101,2,4,
,,,,,,,,,,,,,,,,,,,,,,,,,,images/exp2b_trial_51_colour3_distractors4_r.png,r,2,015,001,2021-04-20_17h28.59.871,searchDisc4,2020.2.10,Win32,60,,,space,0.30135,2,1,0.66581,,0,265,265,393,1,2b,51,3,4,
,,,,,,,,,,,,,,,,,,,,,,,,,,images/exp2a_trial_95_colour1_distractors4_l.png,l,1,015,001,2021-04-20_17h28.59.871,searchDisc4,2020.2.10,Win32,60,,,space,0.27235,1,1,0.64497,,0,266,266,323,1,2a,95,1,4,
,,,,,,,,,,,,,,,,,,,,,,,,,,images/exp1b_trial_35_colour3_distractors43_l.png,l,1,015,001,2021-04-20_17h28.59.871,searchDisc4,2020.2.10,Win32,60,,,space,0.300445,1,1,2.19242,,0,267,267,149,1,1b,35,3,43,
,,,,,,,,,,,,,,,,,,,,,,,,,,images/exp2b_trial_105_colour2_distractors43_l.png,l,1,015,001,2021-04-20_17h28.59.871,searchDisc4,2020.2.10,Win32,60,,,space,0.23117,1,1,0.682345,,0,268,268,447,1,2b,105,2,43,
,,,,,,,,,,,,,,,,,,,,,,,,,,images/exp1b_trial_106_colour3_distractors1_l.png,l,1,015,001,2021-04-20_17h28.59.871,searchDisc4,2020.2.10,Win32,60,,,space,0.28718,1,1,0.651675,,0,269,269,220,1,1b,106,3,1,
,,,,,,,,,,,,,,,,,,,,,,,,,,images/exp1b_trial_109_colour3_distractors19_l.png,l,1,015,001,2021-04-20_17h28.59.871,searchDisc4,2020.2.10,Win32,60,,,space,0.273265,1,1,1.238835,,0,270,270,223,1,1b,109,3,19,
,,,,,,,,,,,,,,,,,,,,,,,,,,images/exp2c_trial_82_colour2_distractors1_r.png,r,2,015,001,2021-04-20_17h28.59.871,searchDisc4,2020.2.10,Win32,60,,,space,0.61233,2,1,0.927935,,0,271,271,538,1,2c,82,2,1,
,,,,,,,,,,,,,,,,,,,,,,,,,,images/exp1b_trial_93_colour3_distractors43_r.png,r,2,015,001,2021-04-20_17h28.59.871,searchDisc4,2020.2.10,Win32,60,,,space,0.241005,,0,,,0,272,272,207,1,1b,93,3,43,
,,,,,,,,,,,,,,,,,,,,,,,,,,images/exp2c_trial_54_colour3_distractors31_r.png,r,2,015,001,2021-04-20_17h28.59.871,searchDisc4,2020.2.10,Win32,60,,,space,0.47504,2,1,0.638595,,0,273,273,510,1,2c,54,3,31,
,,,,,,,,,,,,,,,,,,,,,,,,,,images/exp2c_trial_13_colour3_distractors4_r.png,r,2,015,001,2021-04-20_17h28.59.871,searchDisc4,2020.2.10,Win32,60,,,space,0.222585,2,1,0.68423,,0,274,274,469,1,2c,13,3,4,
,,,,,,,,,,,,,,,,,,,,,,,,,,images/exp2b_trial_78_colour1_distractors9_r.png,r,2,015,001,2021-04-20_17h28.59.871,searchDisc4,2020.2.10,Win32,60,,,space,0.229475,2,1,0.813075,,0,275,275,420,1,2b,78,1,9,
,,,,,,,,,,,,,,,,,,,,,,,,,,images/exp2c_trial_110_colour3_distractors31_l.png,l,1,015,001,2021-04-20_17h28.59.871,searchDisc4,2020.2.10,Win32,60,,,space,0.28338,1,1,0.61741,,0,276,276,566,1,2c,110,3,31,
,,,,,,,,,,,,,,,,,,,,,,,,,,images/exp2a_trial_98_colour1_distractors31_l.png,l,1,015,001,2021-04-20_17h28.59.871,searchDisc4,2020.2.10,Win32,60,,,space,0.26739,1,1,0.65721,,0,277,277,326,1,2a,98,1,31,
,,,,,,,,,,,,,,,,,,,,,,,,,,images/exp2b_trial_96_colour1_distractors9_l.png,l,1,015,001,2021-04-20_17h28.59.871,searchDisc4,2020.2.10,Win32,60,,,space,0.314315,1,1,0.538305,,0,278,278,438,1,2b,96,1,9,
,,,,,,,,,,,,,,,,,,,,,,,,,,images/exp1a_trial_14_colour3_distractors9_r.png,r,2,015,001,2021-04-20_17h28.59.871,searchDisc4,2020.2.10,Win32,60,,,space,0.33028,2,1,0.5848,,0,279,279,14,1,1a,14,3,9,
,,,,,,,,,,,,,,,,,,,,,,,,,,images/exp1a_trial_105_colour2_distractors43_l.png,l,1,015,001,2021-04-20_17h28.59.871,searchDisc4,2020.2.10,Win32,60,,,space,0.299175,1,1,1.84788,,0,280,280,105,1,1a,105,2,43,
,,,,,,,,,,,,,,,,,,,,,,,,,,images/exp1b_trial_97_colour1_distractors19_l.png,l,1,015,001,2021-04-20_17h28.59.871,searchDisc4,2020.2.10,Win32,60,,,space,0.222095,1,1,0.84641,,0,281,281,211,1,1b,97,1,19,
,,,,,,,,,,,,,,,,,,,,,,,,,,images/exp2a_trial_94_colour1_distractors1_l.png,l,1,015,001,2021-04-20_17h28.59.871,searchDisc4,2020.2.10,Win32,60,,,space,0.31339,1,1,0.629025,,0,282,282,322,1,2a,94,1,1,
,,,,,,,,,,,,,,,,,,,,,,,,,,images/exp2c_trial_104_colour2_distractors31_l.png,l,1,015,001,2021-04-20_17h28.59.871,searchDisc4,2020.2.10,Win32,60,,,space,0.220275,1,1,0.62521,,0,283,283,560,1,2c,104,2,31,
,,,,,,,,,,,,,,,,,,,,,,,,,,images/exp1a_trial_53_colour3_distractors19_r.png,r,2,015,001,2021-04-20_17h28.59.871,searchDisc4,2020.2.10,Win32,60,,,space,0.30005,2,1,0.585225,,0,284,284,53,1,1a,53,3,19,
,,,,,,,,,,,,,,,,,,,,,,,,,,images/exp1a_trial_86_colour2_distractors31_r.png,r,2,015,001,2021-04-20_17h28.59.871,searchDisc4,2020.2.10,Win32,60,,,space,0.32805,2,1,0.569745,,0,285,285,86,1,1a,86,2,31,
,,,,,,,,,,,,,,,,,,,,,,,,,,images/exp2b_trial_31_colour3_distractors4_l.png,l,1,015,001,2021-04-20_17h28.59.871,searchDisc4,2020.2.10,Win32,60,,,space,0.24631,1,1,0.776375,,0,286,286,373,1,2b,31,3,4,
,,,,,,,,,,,,,,,,,,,,,,,,,,images/exp2c_trial_29_colour2_distractors43_l.png,l,1,015,001,2021-04-20_17h28.59.871,searchDisc4,2020.2.10,Win32,60,,,space,0.19897,1,1,0.856595,,0,287,287,485,1,2c,29,2,43,
,,,,,,,,,,,,,,,,,,,,,,,,,,images/exp2b_trial_63_colour2_distractors4_l.png,l,1,015,001,2021-04-20_17h28.59.871,searchDisc4,2020.2.10,Win32,60,,,space,0.206835,1,1,0.557205,,0,288,288,405,1,2b,63,2,4,
,,,,,,,,,,,,,,,,,,,,,,,,,,images/exp1b_trial_55_colour3_distractors43_r.png,r,2,015,001,2021-04-20_17h28.59.871,searchDisc4,2020.2.10,Win32,60,,,space,0.28232,,0,,,0,289,289,169,1,1b,55,3,43,
,,,,,,,,,,,,,,,,,,,,,,,,,,images/exp2b_trial_48_colour2_distractors31_r.png,r,2,015,001,2021-04-20_17h28.59.871,searchDisc4,2020.2.10,Win32,60,,,space,0.65689,2,1,0.698735,,0,290,290,390,1,2b,48,2,31,
,,,,,,,,,,,,,,,,,,,,,,,,,,images/exp2a_trial_75_colour0_distractors0_l.png,l,1,015,001,2021-04-20_17h28.59.871,searchDisc4,2020.2.10,Win32,60,,,space,0.219525,1,1,0.700225,,0,291,291,303,1,2a,75,0,0,
,,,,,,,,,,,,,,,,,,,,,,,,,,images/exp1a_trial_69_colour3_distractors4_l.png,l,1,015,001,2021-04-20_17h28.59.871,searchDisc4,2020.2.10,Win32,60,,,space,0.229405,2,0,0.696165,,0,292,292,69,1,1a,69,3,4,
,,,,,,,,,,,,,,,,,,,,,,,,,,images/exp2c_trial_6_colour2_distractors1_r.png,r,2,015,001,2021-04-20_17h28.59.871,searchDisc4,2020.2.10,Win32,60,,,space,0.6352,2,1,0.72389,,0,293,293,462,1,2c,6,2,1,
,,,,,,,,,,,,,,,,,,,,,,,,,,images/exp2b_trial_79_colour1_distractors19_r.png,r,2,015,001,2021-04-20_17h28.59.871,searchDisc4,2020.2.10,Win32,60,,,space,0.2867,2,1,0.590445,,0,294,294,421,1,2b,79,1,19,
,,,,,,,,,,,,,,,,,,,,,,,,,,images/exp2a_trial_37_colour0_distractors0_l.png,l,1,015,001,2021-04-20_17h28.59.871,searchDisc4,2020.2.10,Win32,60,,,space,0.283095,1,1,0.533435,,0,295,295,265,1,2a,37,0,0,
,,,,,,,,,,,,,,,,,,,,,,,,,,images/exp1b_trial_20_colour1_distractors9_l.png,l,1,015,001,2021-04-20_17h28.59.871,searchDisc4,2020.2.10,Win32,60,,,space,0.272325,1,1,0.55252,,0,296,296,134,1,1b,20,1,9,
,,,,,,,,,,,,,,,,,,,,,,,,,,images/exp2b_trial_55_colour3_distractors43_r.png,r,2,015,001,2021-04-20_17h28.59.871,searchDisc4,2020.2.10,Win32,60,,,space,0.264995,2,1,0.539485,,0,297,297,397,1,2b,55,3,43,
,,,,,,,,,,,,,,,,,,,,,,,,,,images/exp1a_trial_30_colour3_distractors1_l.png,l,1,015,001,2021-04-20_17h28.59.871,searchDisc4,2020.2.10,Win32,60,,,space,0.28187,1,1,0.50941,,0,298,298,30,1,1a,30,3,1,
,,,,,,,,,,,,,,,,,,,,,,,,,,images/exp2c_trial_111_colour3_distractors43_l.png,l,1,015,001,2021-04-20_17h28.59.871,searchDisc4,2020.2.10,Win32,60,,,space,0.30261,2,0,0.524505,space,0,299,299,567,1,2c,111,3,43,3.882325
,,,,,,,,,,,,,,,,,,,,,,,,,,images/exp2c_trial_8_colour2_distractors9_r.png,r,2,015,001,2021-04-20_17h28.59.871,searchDisc4,2020.2.10,Win32,60,,,space,0.78781,2,1,0.66975,,0,300,300,464,1,2c,8,2,9,
,,,,,,,,,,,,,,,,,,,,,,,,,,images/exp1b_trial_62_colour2_distractors1_l.png,l,1,015,001,2021-04-20_17h28.59.871,searchDisc4,2020.2.10,Win32,60,,,space,0.20491,1,1,0.635485,,0,301,301,176,1,1b,62,2,1,
,,,,,,,,,,,,,,,,,,,,,,,,,,images/exp2b_trial_111_colour3_distractors43_l.png,l,1,015,001,2021-04-20_17h28.59.871,searchDisc4,2020.2.10,Win32,60,,,space,0.171755,1,1,0.712955,,0,302,302,453,1,2b,111,3,43,
,,,,,,,,,,,,,,,,,,,,,,,,,,images/exp2c_trial_35_colour3_distractors43_l.png,l,1,015,001,2021-04-20_17h28.59.871,searchDisc4,2020.2.10,Win32,60,,,space,0.188865,1,1,0.59223,,0,303,303,491,1,2c,35,3,43,
,,,,,,,,,,,,,,,,,,,,,,,,,,images/exp2a_trial_35_colour3_distractors43_l.png,l,1,015,001,2021-04-20_17h28.59.871,searchDisc4,2020.2.10,Win32,60,,,space,0.222055,1,1,0.6752,,0,304,304,263,1,2a,35,3,43,
,,,,,,,,,,,,,,,,,,,,,,,,,,images/exp2b_trial_34_colour3_distractors31_l.png,l,1,015,001,2021-04-20_17h28.59.871,searchDisc4,2020.2.10,Win32,60,,,space,0.202365,1,1,0.648225,,0,305,305,376,1,2b,34,3,31,
,,,,,,,,,,,,,,,,,,,,,,,,,,images/exp2b_trial_109_colour3_distractors19_l.png,l,1,015,001,2021-04-20_17h28.59.871,searchDisc4,2020.2.10,Win32,60,,,space,0.331155,1,1,0.52058,,0,306,306,451,1,2b,109,3,19,
,,,,,,,,,,,,,,,,,,,,,,,,,,images/exp1b_trial_92_colour3_distractors31_r.png,r,2,015,001,2021-04-20_17h28.59.871,searchDisc4,2020.2.10,Win32,60,,,space,0.243495,2,1,1.431895,,0,307,307,206,1,1b,92,3,31,
,,,,,,,,,,,,,,,,,,,,,,,,,,images/exp1b_trial_98_colour1_distractors31_l.png,l,1,015,001,2021-04-20_17h28.59.871,searchDisc4,2020.2.10,Win32,60,,,space,0.221065,1,1,1.12347,,0,308,308,212,1,1b,98,1,31,
,,,,,,,,,,,,,,,,,,,,,,,,,,images/exp1a_trial_50_colour3_distractors1_r.png,r,2,015,001,2021-04-20_17h28.59.871,searchDisc4,2020.2.10,Win32,60,,,space,0.186015,2,1,1.289975,,0,309,309,50,1,1a,50,3,1,
,,,,,,,,,,,,,,,,,,,,,,,,,,images/exp2a_trial_65_colour2_distractors19_l.png,l,1,015,001,2021-04-20_17h28.59.871,searchDisc4,2020.2.10,Win32,60,,,space,0.2,1,1,0.89649,,0,310,310,293,1,2a,65,2,19,
,,,,,,,,,,,,,,,,,,,,,,,,,,images/exp2a_trial_39_colour1_distractors4_r.png,r,2,015,001,2021-04-20_17h28.59.871,searchDisc4,2020.2.10,Win32,60,,,space,0.249575,2,1,0.716305,,0,311,311,267,1,2a,39,1,4,
,,,,,,,,,,,,,,,,,,,,,,,,,,images/exp1a_trial_46_colour2_distractors9_r.png,r,2,015,001,2021-04-20_17h28.59.871,searchDisc4,2020.2.10,Win32,60,,,space,0.24588,2,1,0.58428,,0,312,312,46,1,1a,46,2,9,
,,,,,,,,,,,,,,,,,,,,,,,,,,images/exp1b_trial_65_colour2_distractors19_l.png,l,1,015,001,2021-04-20_17h28.59.871,searchDisc4,2020.2.10,Win32,60,,,space,0.227405,1,1,0.739515,,0,313,313,179,1,1b,65,2,19,
,,,,,,,,,,,,,,,,,,,,,,,,,,images/exp2b_trial_32_colour3_distractors9_l.png,l,1,015,001,2021-04-20_17h28.59.871,searchDisc4,2020.2.10,Win32,60,,,space,0.24877,1,1,0.64635,,0,314,314,374,1,2b,32,3,9,
,,,,,,,,,,,,,,,,,,,,,,,,,,images/exp1a_trial_44_colour2_distractors1_r.png,r,2,015,001,2021-04-20_17h28.59.871,searchDisc4,2020.2.10,Win32,60,,,space,0.282485,2,1,0.678215,,0,315,315,44,1,1a,44,2,1,
,,,,,,,,,,,,,,,,,,,,,,,,,,images/exp2c_trial_33_colour3_distractors19_l.png,l,1,015,001,2021-04-20_17h28.59.871,searchDisc4,2020.2.10,Win32,60,,,space,0.280855,1,1,0.74601,,0,316,316,489,1,2c,33,3,19,
,,,,,,,,,,,,,,,,,,,,,,,,,,images/exp2b_trial_38_colour1_distractors1_r.png,r,2,015,001,2021-04-20_17h28.59.871,searchDisc4,2020.2.10,Win32,60,,,space,0.236415,2,1,1.476115,,0,317,317,380,1,2b,38,1,1,
,,,,,,,,,,,,,,,,,,,,,,,,,,images/exp1a_trial_42_colour1_distractors31_r.png,r,2,015,001,2021-04-20_17h28.59.871,searchDisc4,2020.2.10,Win32,60,,,space,0.198095,2,1,0.56331,,0,318,318,42,1,1a,42,1,31,
,,,,,,,,,,,,,,,,,,,,,,,,,,images/exp2c_trial_49_colour2_distractors43_r.png,r,2,015,001,2021-04-20_17h28.59.871,searchDisc4,2020.2.10,Win32,60,,,space,0.26798,2,1,0.644595,,0,319,319,505,1,2c,49,2,43,
,,,,,,,,,,,,,,,,,,,,,,,,,,images/exp2b_trial_39_colour1_distractors4_r.png,r,2,015,001,2021-04-20_17h28.59.871,searchDisc4,2020.2.10,Win32,60,,,space,0.24112,2,1,0.578915,,0,320,320,381,1,2b,39,1,4,
,,,,,,,,,,,,,,,,,,,,,,,,,,images/exp1a_trial_28_colour2_distractors31_l.png,l,1,015,001,2021-04-20_17h28.59.871,searchDisc4,2020.2.10,Win32,60,,,space,0.201795,1,1,0.64659,,0,321,321,28,1,1a,28,2,31,
,,,,,,,,,,,,,,,,,,,,,,,,,,images/exp1a_trial_4_colour1_distractors31_r.png,r,2,015,001,2021-04-20_17h28.59.871,searchDisc4,2020.2.10,Win32,60,,,space,0.204555,2,1,0.86356,,0,322,322,4,1,1a,4,1,31,
,,,,,,,,,,,,,,,,,,,,,,,,,,images/exp1b_trial_18_colour1_distractors1_l.png,l,1,015,001,2021-04-20_17h28.59.871,searchDisc4,2020.2.10,Win32,60,,,space,0.2179,1,1,0.683675,,0,323,323,132,1,1b,18,1,1,
,,,,,,,,,,,,,,,,,,,,,,,,,,images/exp1b_trial_43_colour1_distractors43_r.png,r,2,015,001,2021-04-20_17h28.59.871,searchDisc4,2020.2.10,Win32,60,,,space,0.334395,2,1,1.05326,,0,324,324,157,1,1b,43,1,43,
,,,,,,,,,,,,,,,,,,,,,,,,,,images/exp1a_trial_21_colour1_distractors19_l.png,l,1,015,001,2021-04-20_17h28.59.871,searchDisc4,2020.2.10,Win32,60,,,space,0.23892,1,1,0.52806,,0,325,325,21,1,1a,21,1,19,
,,,,,,,,,,,,,,,,,,,,,,,,,,images/exp1b_trial_107_colour3_distractors4_l.png,l,1,015,001,2021-04-20_17h28.59.871,searchDisc4,2020.2.10,Win32,60,,,space,0.22879,1,1,1.37591,,0,326,326,221,1,1b,107,3,4,
,,,,,,,,,,,,,,,,,,,,,,,,,,images/exp2b_trial_12_colour3_distractors1_r.png,r,2,015,001,2021-04-20_17h28.59.871,searchDisc4,2020.2.10,Win32,60,,,space,0.15424,2,1,0.637805,,0,327,327,354,1,2b,12,3,1,
,,,,,,,,,,,,,,,,,,,,,,,,,,images/exp2c_trial_36_colour0_distractors0_r.png,r,2,015,001,2021-04-20_17h28.59.871,searchDisc4,2020.2.10,Win32,60,,,space,0.366875,2,1,0.862175,,0,328,328,492,1,2c,36,0,0,
,,,,,,,,,,,,,,,,,,,,,,,,,,images/exp1b_trial_3_colour1_distractors19_r.png,r,2,015,001,2021-04-20_17h28.59.871,searchDisc4,2020.2.10,Win32,60,,,space,0.208595,2,1,0.82545,,0,329,329,117,1,1b,3,1,19,
,,,,,,,,,,,,,,,,,,,,,,,,,,images/exp1b_trial_28_colour2_distractors31_l.png,l,1,015,001,2021-04-20_17h28.59.871,searchDisc4,2020.2.10,Win32,60,,,space,0.23726,1,1,0.82807,,0,330,330,142,1,1b,28,2,31,
,,,,,,,,,,,,,,,,,,,,,,,,,,images/exp2c_trial_34_colour3_distractors31_l.png,l,1,015,001,2021-04-20_17h28.59.871,searchDisc4,2020.2.10,Win32,60,,,space,0.20931,1,1,0.67277,,0,331,331,490,1,2c,34,3,31,
,,,,,,,,,,,,,,,,,,,,,,,,,,images/exp2a_trial_100_colour2_distractors1_l.png,l,1,015,001,2021-04-20_17h28.59.871,searchDisc4,2020.2.10,Win32,60,,,space,0.196685,1,1,0.483205,,0,332,332,328,1,2a,100,2,1,
,,,,,,,,,,,,,,,,,,,,,,,,,,images/exp2c_trial_23_colour1_distractors43_l.png,l,1,015,001,2021-04-20_17h28.59.871,searchDisc4,2020.2.10,Win32,60,,,space,0.1941,2,0,0.663475,,0,333,333,479,1,2c,23,1,43,
,,,,,,,,,,,,,,,,,,,,,,,,,,images/exp1a_trial_52_colour3_distractors9_r.png,r,2,015,001,2021-04-20_17h28.59.871,searchDisc4,2020.2.10,Win32,60,,,space,0.573065,2,1,0.67428,,0,334,334,52,1,1a,52,3,9,
,,,,,,,,,,,,,,,,,,,,,,,,,,images/exp2a_trial_78_colour1_distractors9_r.png,r,2,015,001,2021-04-20_17h28.59.871,searchDisc4,2020.2.10,Win32,60,,,space,0.196845,2,1,0.82096,,0,335,335,306,1,2a,78,1,9,
,,,,,,,,,,,,,,,,,,,,,,,,,,images/exp2a_trial_86_colour2_distractors31_r.png,r,2,015,001,2021-04-20_17h28.59.871,searchDisc4,2020.2.10,Win32,60,,,space,0.17122,2,1,0.636485,,0,336,336,314,1,2a,86,2,31,
,,,,,,,,,,,,,,,,,,,,,,,,,,images/exp2c_trial_66_colour2_distractors31_l.png,l,1,015,001,2021-04-20_17h28.59.871,searchDisc4,2020.2.10,Win32,60,,,space,0.123725,1,1,0.611175,,0,337,337,522,1,2c,66,2,31,
,,,,,,,,,,,,,,,,,,,,,,,,,,images/exp1a_trial_96_colour1_distractors9_l.png,l,1,015,001,2021-04-20_17h28.59.871,searchDisc4,2020.2.10,Win32,60,,,space,0.130555,1,1,0.93282,,0,338,338,96,1,1a,96,1,9,
,,,,,,,,,,,,,,,,,,,,,,,,,,images/exp1b_trial_22_colour1_distractors31_l.png,l,1,015,001,2021-04-20_17h28.59.871,searchDisc4,2020.2.10,Win32,60,,,space,0.11513,1,1,1.146335,,0,339,339,136,1,1b,22,1,31,
,,,,,,,,,,,,,,,,,,,,,,,,,,images/exp1b_trial_15_colour3_distractors19_r.png,r,2,015,001,2021-04-20_17h28.59.871,searchDisc4,2020.2.10,Win32,60,,,space,0.156705,2,1,2.15924,,0,340,340,129,1,1b,15,3,19,
,,,,,,,,,,,,,,,,,,,,,,,,,,images/exp2c_trial_102_colour2_distractors9_l.png,l,1,015,001,2021-04-20_17h28.59.871,searchDisc4,2020.2.10,Win32,60,,,space,0.15019,1,1,0.67552,,0,341,341,558,1,2c,102,2,9,
,,,,,,,,,,,,,,,,,,,,,,,,,,images/exp2c_trial_19_colour1_distractors4_l.png,l,1,015,001,2021-04-20_17h28.59.871,searchDisc4,2020.2.10,Win32,60,,,space,0.19859,1,1,0.61456,,0,342,342,475,1,2c,19,1,4,
,,,,,,,,,,,,,,,,,,,,,,,,,,images/exp2a_trial_24_colour2_distractors1_l.png,l,1,015,001,2021-04-20_17h28.59.871,searchDisc4,2020.2.10,Win32,60,,,space,0.19929,1,1,0.63122,,0,343,343,252,1,2a,24,2,1,
,,,,,,,,,,,,,,,,,,,,,,,,,,images/exp2c_trial_7_colour2_distractors4_r.png,r,2,015,001,2021-04-20_17h28.59.871,searchDisc4,2020.2.10,Win32,60,,,space,0.145985,2,1,0.8543,,0,344,344,463,1,2c,7,2,4,
,,,,,,,,,,,,,,,,,,,,,,,,,,images/exp1b_trial_52_colour3_distractors9_r.png,r,2,015,001,2021-04-20_17h28.59.871,searchDisc4,2020.2.10,Win32,60,,,space,0.11695,2,1,1.33125,,0,345,345,166,1,1b,52,3,9,
,,,,,,,,,,,,,,,,,,,,,,,,,,images/exp2a_trial_9_colour2_distractors19_r.png,r,2,015,001,2021-04-20_17h28.59.871,searchDisc4,2020.2.10,Win32,60,,,space,0.11815,2,1,0.72367,,0,346,346,237,1,2a,9,2,19,
,,,,,,,,,,,,,,,,,,,,,,,,,,images/exp2a_trial_45_colour2_distractors4_r.png,r,2,015,001,2021-04-20_17h28.59.871,searchDisc4,2020.2.10,Win32,60,,,space,0.06795,2,1,0.59368,,0,347,347,273,1,2a,45,2,4,
,,,,,,,,,,,,,,,,,,,,,,,,,,images/exp2b_trial_15_colour3_distractors19_r.png,r,2,015,001,2021-04-20_17h28.59.871,searchDisc4,2020.2.10,Win32,60,,,space,0.069835,2,1,4.574335,,0,348,348,357,1,2b,15,3,19,
,,,,,,,,,,,,,,,,,,,,,,,,,,images/exp1b_trial_50_colour3_distractors1_r.png,r,2,015,001,2021-04-20_17h28.59.871,searchDisc4,2020.2.10,Win32,60,,,space,0.080305,2,1,0.747965,,0,349,349,164,1,1b,50,3,1,
,,,,,,,,,,,,,,,,,,,,,,,,,,images/exp2a_trial_105_colour2_distractors43_l.png,l,1,015,001,2021-04-20_17h28.59.871,searchDisc4,2020.2.10,Win32,60,,,space,0.152565,1,1,0.8419,,0,350,350,333,1,2a,105,2,43,
,,,,,,,,,,,,,,,,,,,,,,,,,,images/exp2a_trial_36_colour0_distractors0_r.png,r,2,015,001,2021-04-20_17h28.59.871,searchDisc4,2020.2.10,Win32,60,,,space,0.165935,2,1,0.720825,,0,351,351,264,1,2a,36,0,0,
,,,,,,,,,,,,,,,,,,,,,,,,,,images/exp1a_trial_39_colour1_distractors4_r.png,r,2,015,001,2021-04-20_17h28.59.871,searchDisc4,2020.2.10,Win32,60,,,space,0.229805,2,1,0.68608,,0,352,352,39,1,1a,39,1,4,
,,,,,,,,,,,,,,,,,,,,,,,,,,images/exp1b_trial_59_colour1_distractors19_l.png,l,1,015,001,2021-04-20_17h28.59.871,searchDisc4,2020.2.10,Win32,60,,,space,0.230155,1,1,0.6048,,0,353,353,173,1,1b,59,1,19,
,,,,,,,,,,,,,,,,,,,,,,,,,,images/exp1a_trial_49_colour2_distractors43_r.png,r,2,015,001,2021-04-20_17h28.59.871,searchDisc4,2020.2.10,Win32,60,,,space,0.30006,2,1,0.750575,,0,354,354,49,1,1a,49,2,43,
,,,,,,,,,,,,,,,,,,,,,,,,,,images/exp1b_trial_88_colour3_distractors1_r.png,r,2,015,001,2021-04-20_17h28.59.871,searchDisc4,2020.2.10,Win32,60,,,space,0.239095,2,1,0.51834,,0,355,355,202,1,1b,88,3,1,
,,,,,,,,,,,,,,,,,,,,,,,,,,images/exp2c_trial_65_colour2_distractors19_l.png,l,1,015,001,2021-04-20_17h28.59.871,searchDisc4,2020.2.10,Win32,60,,,space,0.21688,1,1,0.654965,,0,356,356,521,1,2c,65,2,19,
,,,,,,,,,,,,,,,,,,,,,,,,,,images/exp2a_trial_55_colour3_distractors43_r.png,r,2,015,001,2021-04-20_17h28.59.871,searchDisc4,2020.2.10,Win32,60,,,space,0.285565,2,1,0.903245,,0,357,357,283,1,2a,55,3,43,
,,,,,,,,,,,,,,,,,,,,,,,,,,images/exp1a_trial_74_colour0_distractors0_r.png,r,2,015,001,2021-04-20_17h28.59.871,searchDisc4,2020.2.10,Win32,60,,,space,0.217465,2,1,0.636445,,0,358,358,74,1,1a,74,0,0,
,,,,,,,,,,,,,,,,,,,,,,,,,,images/exp2c_trial_98_colour1_distractors31_l.png,l,1,015,001,2021-04-20_17h28.59.871,searchDisc4,2020.2.10,Win32,60,,,space,0.254245,1,1,0.557035,space,0,359,359,554,1,2c,98,1,31,0.304475
,,,,,,,,,,,,,,,,,,,,,,,,,,images/exp2a_trial_82_colour2_distractors1_r.png,r,2,015,001,2021-04-20_17h28.59.871,searchDisc4,2020.2.10,Win32,60,,,space,0.701945,2,1,0.626595,,0,360,360,310,1,2a,82,2,1,
,,,,,,,,,,,,,,,,,,,,,,,,,,images/exp2b_trial_44_colour2_distractors1_r.png,r,2,015,001,2021-04-20_17h28.59.871,searchDisc4,2020.2.10,Win32,60,,,space,0.20154,2,1,0.648495,,0,361,361,386,1,2b,44,2,1,
,,,,,,,,,,,,,,,,,,,,,,,,,,images/exp2b_trial_23_colour1_distractors43_l.png,l,1,015,001,2021-04-20_17h28.59.871,searchDisc4,2020.2.10,Win32,60,,,space,0.214265,1,1,0.574825,,0,362,362,365,1,2b,23,1,43,
,,,,,,,,,,,,,,,,,,,,,,,,,,images/exp2a_trial_90_colour3_distractors9_r.png,r,2,015,001,2021-04-20_17h28.59.871,searchDisc4,2020.2.10,Win32,60,,,space,0.183535,2,1,0.671155,,0,363,363,318,1,2a,90,3,9,
,,,,,,,,,,,,,,,,,,,,,,,,,,images/exp1a_trial_90_colour3_distractors9_r.png,r,2,015,001,2021-04-20_17h28.59.871,searchDisc4,2020.2.10,Win32,60,,,space,0.164925,1,0,0.486765,,0,364,364,90,1,1a,90,3,9,
,,,,,,,,,,,,,,,,,,,,,,,,,,images/exp1b_trial_67_colour2_distractors43_l.png,l,1,015,001,2021-04-20_17h28.59.871,searchDisc4,2020.2.10,Win32,60,,,space,0.67035,1,1,0.757175,,0,365,365,181,1,1b,67,2,43,
,,,,,,,,,,,,,,,,,,,,,,,,,,images/exp2a_trial_96_colour1_distractors9_l.png,l,1,015,001,2021-04-20_17h28.59.871,searchDisc4,2020.2.10,Win32,60,,,space,0.21322,1,1,0.66615,,0,366,366,324,1,2a,96,1,9,
,,,,,,,,,,,,,,,,,,,,,,,,,,images/exp1b_trial_41_colour1_distractors19_r.png,r,2,015,001,2021-04-20_17h28.59.871,searchDisc4,2020.2.10,Win32,60,,,space,0.16644,2,1,0.61525,,0,367,367,155,1,1b,41,1,19,
,,,,,,,,,,,,,,,,,,,,,,,,,,images/exp1a_trial_85_colour2_distractors19_r.png,r,2,015,001,2021-04-20_17h28.59.871,searchDisc4,2020.2.10,Win32,60,,,space,0.15367,2,1,0.71692,,0,368,368,85,1,1a,85,2,19,
,,,,,,,,,,,,,,,,,,,,,,,,,,images/exp1a_trial_2_colour1_distractors9_r.png,r,2,015,001,2021-04-20_17h28.59.871,searchDisc4,2020.2.10,Win32,60,,,space,0.17132,2,1,0.588325,,0,369,369,2,1,1a,2,1,9,
,,,,,,,,,,,,,,,,,,,,,,,,,,images/exp2b_trial_102_colour2_distractors9_l.png,l,1,015,001,2021-04-20_17h28.59.871,searchDisc4,2020.2.10,Win32,60,,,space,0.178435,1,1,0.75086,,0,370,370,444,1,2b,102,2,9,
,,,,,,,,,,,,,,,,,,,,,,,,,,images/exp2b_trial_95_colour1_distractors4_l.png,l,1,015,001,2021-04-20_17h28.59.871,searchDisc4,2020.2.10,Win32,60,,,space,0.2059,1,1,0.604135,,0,371,371,437,1,2b,95,1,4,
,,,,,,,,,,,,,,,,,,,,,,,,,,images/exp1b_trial_23_colour1_distractors43_l.png,l,1,015,001,2021-04-20_17h28.59.871,searchDisc4,2020.2.10,Win32,60,,,space,0.192525,1,1,0.788815,,0,372,372,137,1,1b,23,1,43,
,,,,,,,,,,,,,,,,,,,,,,,,,,images/exp2a_trial_50_colour3_distractors1_r.png,r,2,015,001,2021-04-20_17h28.59.871,searchDisc4,2020.2.10,Win32,60,,,space,0.174025,2,1,0.716865,,0,373,373,278,1,2a,50,3,1,
,,,,,,,,,,,,,,,,,,,,,,,,,,images/exp2a_trial_73_colour3_distractors43_l.png,l,1,015,001,2021-04-20_17h28.59.871,searchDisc4,2020.2.10,Win32,60,,,space,0.132935,1,1,0.803605,,0,374,374,301,1,2a,73,3,43,
,,,,,,,,,,,,,,,,,,,,,,,,,,images/exp2a_trial_46_colour2_distractors9_r.png,r,2,015,001,2021-04-20_17h28.59.871,searchDisc4,2020.2.10,Win32,60,,,space,0.16697,2,1,0.755335,,0,375,375,274,1,2a,46,2,9,
,,,,,,,,,,,,,,,,,,,,,,,,,,images/exp2a_trial_42_colour1_distractors31_r.png,r,2,015,001,2021-04-20_17h28.59.871,searchDisc4,2020.2.10,Win32,60,,,space,0.11867,2,1,0.741685,,0,376,376,270,1,2a,42,1,31,
,,,,,,,,,,,,,,,,,,,,,,,,,,images/exp1b_trial_27_colour2_distractors19_l.png,l,1,015,001,2021-04-20_17h28.59.871,searchDisc4,2020.2.10,Win32,60,,,space,0.06829,1,1,0.80098,,0,377,377,141,1,1b,27,2,19,
,,,,,,,,,,,,,,,,,,,,,,,,,,images/exp2b_trial_11_colour2_distractors43_r.png,r,2,015,001,2021-04-20_17h28.59.871,searchDisc4,2020.2.10,Win32,60,,,space,0.071825,2,1,0.76995,,0,378,378,353,1,2b,11,2,43,
,,,,,,,,,,,,,,,,,,,,,,,,,,images/exp2c_trial_48_colour2_distractors31_r.png,r,2,015,001,2021-04-20_17h28.59.871,searchDisc4,2020.2.10,Win32,60,,,space,0.06572,2,1,0.71296,,0,379,379,504,1,2c,48,2,31,
,,,,,,,,,,,,,,,,,,,,,,,,,,images/exp2c_trial_37_colour0_distractors0_l.png,l,1,015,001,2021-04-20_17h28.59.871,searchDisc4,2020.2.10,Win32,60,,,space,0.01059,1,1,0.57457,,0,380,380,493,1,2c,37,0,0,
,,,,,,,,,,,,,,,,,,,,,,,,,,images/exp2a_trial_30_colour3_distractors1_l.png,l,1,015,001,2021-04-20_17h28.59.871,searchDisc4,2020.2.10,Win32,60,,,space,0.651095,1,1,0.87094,,0,381,381,258,1,2a,30,3,1,
,,,,,,,,,,,,,,,,,,,,,,,,,,images/exp1a_trial_83_colour2_distractors4_r.png,r,2,015,001,2021-04-20_17h28.59.871,searchDisc4,2020.2.10,Win32,60,,,space,0.135475,2,1,0.808445,,0,382,382,83,1,1a,83,2,4,
,,,,,,,,,,,,,,,,,,,,,,,,,,images/exp1a_trial_87_colour2_distractors43_r.png,r,2,015,001,2021-04-20_17h28.59.871,searchDisc4,2020.2.10,Win32,60,,,space,0.12261,2,1,0.848415,,0,383,383,87,1,1a,87,2,43,
,,,,,,,,,,,,,,,,,,,,,,,,,,images/exp2b_trial_75_colour0_distractors0_l.png,l,1,015,001,2021-04-20_17h28.59.871,searchDisc4,2020.2.10,Win32,60,,,space,0.031615,1,1,0.813895,,0,384,384,417,1,2b,75,0,0,
,,,,,,,,,,,,,,,,,,,,,,,,,,images/exp2b_trial_99_colour1_distractors43_l.png,l,1,015,001,2021-04-20_17h28.59.871,searchDisc4,2020.2.10,Win32,60,,,space,0.09644,1,1,0.927645,,0,385,385,441,1,2b,99,1,43,
,,,,,,,,,,,,,,,,,,,,,,,,,,images/exp2c_trial_78_colour1_distractors9_r.png,r,2,015,001,2021-04-20_17h28.59.871,searchDisc4,2020.2.10,Win32,60,,,space,0.08546,2,1,0.655605,,0,386,386,534,1,2c,78,1,9,
,,,,,,,,,,,,,,,,,,,,,,,,,,images/exp1a_trial_22_colour1_distractors31_l.png,l,1,015,001,2021-04-20_17h28.59.871,searchDisc4,2020.2.10,Win32,60,,,space,0.7097,1,1,0.61165,,0,387,387,22,1,1a,22,1,31,
,,,,,,,,,,,,,,,,,,,,,,,,,,images/exp2c_trial_10_colour2_distractors31_r.png,r,2,015,001,2021-04-20_17h28.59.871,searchDisc4,2020.2.10,Win32,60,,,space,0.62527,2,1,0.594825,,0,388,388,466,1,2c,10,2,31,
,,,,,,,,,,,,,,,,,,,,,,,,,,images/exp1b_trial_99_colour1_distractors43_l.png,l,1,015,001,2021-04-20_17h28.59.871,searchDisc4,2020.2.10,Win32,60,,,space,0.232585,1,1,0.54926,,0,389,389,213,1,1b,99,1,43,
,,,,,,,,,,,,,,,,,,,,,,,,,,images/exp1a_trial_10_colour2_distractors31_r.png,r,2,015,001,2021-04-20_17h28.59.871,searchDisc4,2020.2.10,Win32,60,,,space,0.20072,2,1,1.194785,,0,390,390,10,1,1a,10,2,31,
,,,,,,,,,,,,,,,,,,,,,,,,,,images/exp1b_trial_100_colour2_distractors1_l.png,l,1,015,001,2021-04-20_17h28.59.871,searchDisc4,2020.2.10,Win32,60,,,space,0.17954,1,1,0.5833,,0,391,391,214,1,1b,100,2,1,
,,,,,,,,,,,,,,,,,,,,,,,,,,images/exp2b_trial_16_colour3_distractors31_r.png,r,2,015,001,2021-04-20_17h28.59.871,searchDisc4,2020.2.10,Win32,60,,,space,0.20618,2,1,0.928865,,0,392,392,358,1,2b,16,3,31,
,,,,,,,,,,,,,,,,,,,,,,,,,,images/exp2c_trial_112_colour0_distractors0_r.png,r,2,015,001,2021-04-20_17h28.59.871,searchDisc4,2020.2.10,Win32,60,,,space,0.19794,2,1,1.009765,,0,393,393,568,1,2c,112,0,0,
,,,,,,,,,,,,,,,,,,,,,,,,,,images/exp2b_trial_91_colour3_distractors19_r.png,r,2,015,001,2021-04-20_17h28.59.871,searchDisc4,2020.2.10,Win32,60,,,space,0.16708,2,1,0.64551,,0,394,394,433,1,2b,91,3,19,
,,,,,,,,,,,,,,,,,,,,,,,,,,images/exp2b_trial_85_colour2_distractors19_r.png,r,2,015,001,2021-04-20_17h28.59.871,searchDisc4,2020.2.10,Win32,60,,,space,0.130785,2,1,0.63625,,0,395,395,427,1,2b,85,2,19,
,,,,,,,,,,,,,,,,,,,,,,,,,,images/exp2c_trial_108_colour3_distractors9_l.png,l,1,015,001,2021-04-20_17h28.59.871,searchDisc4,2020.2.10,Win32,60,,,space,0.086545,1,1,0.63957,,0,396,396,564,1,2c,108,3,9,
,,,,,,,,,,,,,,,,,,,,,,,,,,images/exp2b_trial_82_colour2_distractors1_r.png,r,2,015,001,2021-04-20_17h28.59.871,searchDisc4,2020.2.10,Win32,60,,,space,0.150975,2,1,0.61957,,0,397,397,424,1,2b,82,2,1,
,,,,,,,,,,,,,,,,,,,,,,,,,,images/exp2c_trial_76_colour1_distractors1_r.png,r,2,015,001,2021-04-20_17h28.59.871,searchDisc4,2020.2.10,Win32,60,,,space,0.06873,2,1,0.763625,,0,398,398,532,1,2c,76,1,1,
,,,,,,,,,,,,,,,,,,,,,,,,,,images/exp2c_trial_62_colour2_distractors1_l.png,l,1,015,001,2021-04-20_17h28.59.871,searchDisc4,2020.2.10,Win32,60,,,space,0.10562,1,1,0.75693,,0,399,399,518,1,2c,62,2,1,
,,,,,,,,,,,,,,,,,,,,,,,,,,images/exp1a_trial_16_colour3_distractors31_r.png,r,2,015,001,2021-04-20_17h28.59.871,searchDisc4,2020.2.10,Win32,60,,,space,0.115995,2,1,0.6258,,0,400,400,16,1,1a,16,3,31,
,,,,,,,,,,,,,,,,,,,,,,,,,,images/exp1a_trial_107_colour3_distractors4_l.png,l,1,015,001,2021-04-20_17h28.59.871,searchDisc4,2020.2.10,Win32,60,,,space,0.06326,1,1,0.83556,,0,401,401,107,1,1a,107,3,4,
,,,,,,,,,,,,,,,,,,,,,,,,,,images/exp1a_trial_104_colour2_distractors31_l.png,l,1,015,001,2021-04-20_17h28.59.871,searchDisc4,2020.2.10,Win32,60,,,space,0.128185,1,1,0.6226,,0,402,402,104,1,1a,104,2,31,
,,,,,,,,,,,,,,,,,,,,,,,,,,images/exp1a_trial_51_colour3_distractors4_r.png,r,2,015,001,2021-04-20_17h28.59.871,searchDisc4,2020.2.10,Win32,60,,,space,0.082375,2,1,0.563165,,0,403,403,51,1,1a,51,3,4,
,,,,,,,,,,,,,,,,,,,,,,,,,,images/exp2a_trial_84_colour2_distractors9_r.png,r,2,015,001,2021-04-20_17h28.59.871,searchDisc4,2020.2.10,Win32,60,,,space,0.050715,2,1,0.64625,,0,404,404,312,1,2a,84,2,9,
,,,,,,,,,,,,,,,,,,,,,,,,,,images/exp2b_trial_104_colour2_distractors31_l.png,l,1,015,001,2021-04-20_17h28.59.871,searchDisc4,2020.2.10,Win32,60,,,space,0.00255,1,1,0.583415,,0,405,405,446,1,2b,104,2,31,
,,,,,,,,,,,,,,,,,,,,,,,,,,images/exp2a_trial_99_colour1_distractors43_l.png,l,1,015,001,2021-04-20_17h28.59.871,searchDisc4,2020.2.10,Win32,60,,,space,0.048165,1,1,0.70937,,0,406,406,327,1,2a,99,1,43,
,,,,,,,,,,,,,,,,,,,,,,,,,,images/exp1a_trial_41_colour1_distractors19_r.png,r,2,015,001,2021-04-20_17h28.59.871,searchDisc4,2020.2.10,Win32,60,,,space,0.20125,2,1,0.6402,,0,407,407,41,1,1a,41,1,19,
,,,,,,,,,,,,,,,,,,,,,,,,,,images/exp2c_trial_53_colour3_distractors19_r.png,r,2,015,001,2021-04-20_17h28.59.871,searchDisc4,2020.2.10,Win32,60,,,space,0.48598,2,1,0.691115,,0,408,408,509,1,2c,53,3,19,
,,,,,,,,,,,,,,,,,,,,,,,,,,images/exp2c_trial_15_colour3_distractors19_r.png,r,2,015,001,2021-04-20_17h28.59.871,searchDisc4,2020.2.10,Win32,60,,,space,0.150955,2,1,0.583615,,0,409,409,471,1,2c,15,3,19,
,,,,,,,,,,,,,,,,,,,,,,,,,,images/exp1b_trial_104_colour2_distractors31_l.png,l,1,015,001,2021-04-20_17h28.59.871,searchDisc4,2020.2.10,Win32,60,,,space,0.06441,1,1,1.343335,,0,410,410,218,1,1b,104,2,31,
,,,,,,,,,,,,,,,,,,,,,,,,,,images/exp2c_trial_63_colour2_distractors4_l.png,l,1,015,001,2021-04-20_17h28.59.871,searchDisc4,2020.2.10,Win32,60,,,space,0.14765,1,1,0.956075,,0,411,411,519,1,2c,63,2,4,
,,,,,,,,,,,,,,,,,,,,,,,,,,images/exp2a_trial_87_colour2_distractors43_r.png,r,2,015,001,2021-04-20_17h28.59.871,searchDisc4,2020.2.10,Win32,60,,,space,0.134515,2,1,0.627035,,0,412,412,315,1,2a,87,2,43,
,,,,,,,,,,,,,,,,,,,,,,,,,,images/exp1a_trial_38_colour1_distractors1_r.png,r,2,015,001,2021-04-20_17h28.59.871,searchDisc4,2020.2.10,Win32,60,,,space,0.033055,2,1,1.253955,,0,413,413,38,1,1a,38,1,1,
,,,,,,,,,,,,,,,,,,,,,,,,,,images/exp2a_trial_97_colour1_distractors19_l.png,l,1,015,001,2021-04-20_17h28.59.871,searchDisc4,2020.2.10,Win32,60,,,space,1.349055,1,1,0.555345,,0,414,414,325,1,2a,97,1,19,
,,,,,,,,,,,,,,,,,,,,,,,,,,images/exp2a_trial_14_colour3_distractors9_r.png,r,2,015,001,2021-04-20_17h28.59.871,searchDisc4,2020.2.10,Win32,60,,,space,0.238155,2,1,0.59483,,0,415,415,242,1,2a,14,3,9,
,,,,,,,,,,,,,,,,,,,,,,,,,,images/exp1b_trial_10_colour2_distractors31_r.png,r,2,015,001,2021-04-20_17h28.59.871,searchDisc4,2020.2.10,Win32,60,,,space,0.09772,2,1,0.889245,,0,416,416,124,1,1b,10,2,31,
,,,,,,,,,,,,,,,,,,,,,,,,,,images/exp2b_trial_101_colour2_distractors4_l.png,l,1,015,001,2021-04-20_17h28.59.871,searchDisc4,2020.2.10,Win32,60,,,space,0.237265,1,1,0.47959,,0,417,417,443,1,2b,101,2,4,
,,,,,,,,,,,,,,,,,,,,,,,,,,images/exp2c_trial_91_colour3_distractors19_r.png,r,2,015,001,2021-04-20_17h28.59.871,searchDisc4,2020.2.10,Win32,60,,,space,0.16844,2,1,0.64794,,0,418,418,547,1,2c,91,3,19,
,,,,,,,,,,,,,,,,,,,,,,,,,,images/exp1a_trial_78_colour1_distractors9_r.png,r,2,015,001,2021-04-20_17h28.59.871,searchDisc4,2020.2.10,Win32,60,,,space,0.278635,1,0,0.58126,space,0,419,419,78,1,1a,78,1,9,13.848435
,,,,,,,,,,,,,,,,,,,,,,,,,,images/exp1a_trial_58_colour1_distractors9_l.png,l,1,015,001,2021-04-20_17h28.59.871,searchDisc4,2020.2.10,Win32,60,,,space,0.58303,1,1,0.673035,,0,420,420,58,1,1a,58,1,9,
,,,,,,,,,,,,,,,,,,,,,,,,,,images/exp1a_trial_33_colour3_distractors19_l.png,l,1,015,001,2021-04-20_17h28.59.871,searchDisc4,2020.2.10,Win32,60,,,space,0.346605,1,1,0.79444,,0,421,421,33,1,1a,33,3,19,
,,,,,,,,,,,,,,,,,,,,,,,,,,images/exp1b_trial_2_colour1_distractors9_r.png,r,2,015,001,2021-04-20_17h28.59.871,searchDisc4,2020.2.10,Win32,60,,,space,0.188975,2,1,0.537415,,0,422,422,116,1,1b,2,1,9,
,,,,,,,,,,,,,,,,,,,,,,,,,,images/exp1b_trial_37_colour0_distractors0_l.png,l,1,015,001,2021-04-20_17h28.59.871,searchDisc4,2020.2.10,Win32,60,,,space,0.139685,1,1,0.5851,,0,423,423,151,1,1b,37,0,0,
,,,,,,,,,,,,,,,,,,,,,,,,,,images/exp2c_trial_43_colour1_distractors43_r.png,r,2,015,001,2021-04-20_17h28.59.871,searchDisc4,2020.2.10,Win32,60,,,space,0.107165,2,1,0.72227,,0,424,424,499,1,2c,43,1,43,
,,,,,,,,,,,,,,,,,,,,,,,,,,images/exp1b_trial_76_colour1_distractors1_r.png,r,2,015,001,2021-04-20_17h28.59.871,searchDisc4,2020.2.10,Win32,60,,,space,0.10051,2,1,0.884265,,0,425,425,190,1,1b,76,1,1,
,,,,,,,,,,,,,,,,,,,,,,,,,,images/exp1b_trial_113_colour0_distractors0_l.png,l,1,015,001,2021-04-20_17h28.59.871,searchDisc4,2020.2.10,Win32,60,,,space,0.17163,1,1,0.47502,,0,426,426,227,1,1b,113,0,0,
,,,,,,,,,,,,,,,,,,,,,,,,,,images/exp1b_trial_33_colour3_distractors19_l.png,l,1,015,001,2021-04-20_17h28.59.871,searchDisc4,2020.2.10,Win32,60,,,space,0.151075,1,1,1.116385,,0,427,427,147,1,1b,33,3,19,
,,,,,,,,,,,,,,,,,,,,,,,,,,images/exp1a_trial_17_colour3_distractors43_r.png,r,2,015,001,2021-04-20_17h28.59.871,searchDisc4,2020.2.10,Win32,60,,,space,0.12952,2,1,0.5754,,0,428,428,17,1,1a,17,3,43,
,,,,,,,,,,,,,,,,,,,,,,,,,,images/exp1a_trial_72_colour3_distractors31_l.png,l,1,015,001,2021-04-20_17h28.59.871,searchDisc4,2020.2.10,Win32,60,,,space,0.10183,1,1,0.978365,,0,429,429,72,1,1a,72,3,31,
,,,,,,,,,,,,,,,,,,,,,,,,,,images/exp2b_trial_19_colour1_distractors4_l.png,l,1,015,001,2021-04-20_17h28.59.871,searchDisc4,2020.2.10,Win32,60,,,space,0.050825,1,1,0.636955,,0,430,430,361,1,2b,19,1,4,
,,,,,,,,,,,,,,,,,,,,,,,,,,images/exp1b_trial_7_colour2_distractors4_r.png,r,2,015,001,2021-04-20_17h28.59.871,searchDisc4,2020.2.10,Win32,60,,,space,0.0716,2,1,0.68919,,0,431,431,121,1,1b,7,2,4,
,,,,,,,,,,,,,,,,,,,,,,,,,,images/exp2b_trial_90_colour3_distractors9_r.png,r,2,015,001,2021-04-20_17h28.59.871,searchDisc4,2020.2.10,Win32,60,,,space,0.13944,1,0,0.759035,,0,432,432,432,1,2b,90,3,9,
,,,,,,,,,,,,,,,,,,,,,,,,,,images/exp2b_trial_29_colour2_distractors43_l.png,l,1,015,001,2021-04-20_17h28.59.871,searchDisc4,2020.2.10,Win32,60,,,space,0.46806,1,1,0.598285,,0,433,433,371,1,2b,29,2,43,
,,,,,,,,,,,,,,,,,,,,,,,,,,images/exp2c_trial_87_colour2_distractors43_r.png,r,2,015,001,2021-04-20_17h28.59.871,searchDisc4,2020.2.10,Win32,60,,,space,0.18277,2,1,0.586265,,0,434,434,543,1,2c,87,2,43,
,,,,,,,,,,,,,,,,,,,,,,,,,,images/exp2c_trial_81_colour1_distractors43_r.png,r,2,015,001,2021-04-20_17h28.59.871,searchDisc4,2020.2.10,Win32,60,,,space,0.25064,2,1,0.529365,,0,435,435,537,1,2c,81,1,43,
,,,,,,,,,,,,,,,,,,,,,,,,,,images/exp1a_trial_68_colour3_distractors1_l.png,l,1,015,001,2021-04-20_17h28.59.871,searchDisc4,2020.2.10,Win32,60,,,space,0.182345,1,1,0.57042,,0,436,436,68,1,1a,68,3,1,
,,,,,,,,,,,,,,,,,,,,,,,,,,images/exp1a_trial_54_colour3_distractors31_r.png,r,2,015,001,2021-04-20_17h28.59.871,searchDisc4,2020.2.10,Win32,60,,,space,0.148495,2,1,0.489275,,0,437,437,54,1,1a,54,3,31,
,,,,,,,,,,,,,,,,,,,,,,,,,,images/exp2c_trial_99_colour1_distractors43_l.png,l,1,015,001,2021-04-20_17h28.59.871,searchDisc4,2020.2.10,Win32,60,,,space,0.140705,1,1,0.702055,,0,438,438,555,1,2c,99,1,43,
,,,,,,,,,,,,,,,,,,,,,,,,,,images/exp2c_trial_72_colour3_distractors31_l.png,l,1,015,001,2021-04-20_17h28.59.871,searchDisc4,2020.2.10,Win32,60,,,space,0.1512,1,1,0.696745,,0,439,439,528,1,2c,72,3,31,
,,,,,,,,,,,,,,,,,,,,,,,,,,images/exp1b_trial_46_colour2_distractors9_r.png,r,2,015,001,2021-04-20_17h28.59.871,searchDisc4,2020.2.10,Win32,60,,,space,0.12878,2,1,1.11181,,0,440,440,160,1,1b,46,2,9,
,,,,,,,,,,,,,,,,,,,,,,,,,,images/exp2c_trial_17_colour3_distractors43_r.png,r,2,015,001,2021-04-20_17h28.59.871,searchDisc4,2020.2.10,Win32,60,,,space,0.10684,2,1,0.71324,,0,441,441,473,1,2c,17,3,43,
,,,,,,,,,,,,,,,,,,,,,,,,,,images/exp1b_trial_69_colour3_distractors4_l.png,l,1,015,001,2021-04-20_17h28.59.871,searchDisc4,2020.2.10,Win32,60,,,space,0.00138,1,1,1.27287,,0,442,442,183,1,1b,69,3,4,
,,,,,,,,,,,,,,,,,,,,,,,,,,images/exp2a_trial_108_colour3_distractors9_l.png,l,1,015,001,2021-04-20_17h28.59.871,searchDisc4,2020.2.10,Win32,60,,,space,0.101035,1,1,0.968105,,0,443,443,336,1,2a,108,3,9,
,,,,,,,,,,,,,,,,,,,,,,,,,,images/exp2a_trial_106_colour3_distractors1_l.png,l,1,015,001,2021-04-20_17h28.59.871,searchDisc4,2020.2.10,Win32,60,,,space,0.084565,1,1,0.689895,,0,444,444,334,1,2a,106,3,1,
,,,,,,,,,,,,,,,,,,,,,,,,,,images/exp1b_trial_8_colour2_distractors9_r.png,r,2,015,001,2021-04-20_17h28.59.871,searchDisc4,2020.2.10,Win32,60,,,space,0.03401,2,1,0.88485,,0,445,445,122,1,1b,8,2,9,
,,,,,,,,,,,,,,,,,,,,,,,,,,images/exp2a_trial_20_colour1_distractors9_l.png,l,1,015,001,2021-04-20_17h28.59.871,searchDisc4,2020.2.10,Win32,60,,,space,0.00162,1,1,0.97996,,0,446,446,248,1,2a,20,1,9,
,,,,,,,,,,,,,,,,,,,,,,,,,,images/exp2c_trial_21_colour1_distractors19_l.png,l,1,015,001,2021-04-20_17h28.59.871,searchDisc4,2020.2.10,Win32,60,,,space,0.06741,1,1,0.870075,,0,447,447,477,1,2c,21,1,19,
,,,,,,,,,,,,,,,,,,,,,,,,,,images/exp2b_trial_86_colour2_distractors31_r.png,r,2,015,001,2021-04-20_17h28.59.871,searchDisc4,2020.2.10,Win32,60,,,space,0.09902,2,1,0.639675,,0,448,448,428,1,2b,86,2,31,
,,,,,,,,,,,,,,,,,,,,,,,,,,images/exp1b_trial_38_colour1_distractors1_r.png,r,2,015,001,2021-04-20_17h28.59.871,searchDisc4,2020.2.10,Win32,60,,,space,0.09952,2,1,0.73265,,0,449,449,152,1,1b,38,1,1,
,,,,,,,,,,,,,,,,,,,,,,,,,,images/exp2a_trial_12_colour3_distractors1_r.png,r,2,015,001,2021-04-20_17h28.59.871,searchDisc4,2020.2.10,Win32,60,,,space,0.025555,2,1,0.77954,,0,450,450,240,1,2a,12,3,1,
,,,,,,,,,,,,,,,,,,,,,,,,,,images/exp1a_trial_23_colour1_distractors43_l.png,l,1,015,001,2021-04-20_17h28.59.871,searchDisc4,2020.2.10,Win32,60,,,space,0.666725,1,1,0.628975,,0,451,451,23,1,1a,23,1,43,
,,,,,,,,,,,,,,,,,,,,,,,,,,images/exp1a_trial_89_colour3_distractors4_r.png,r,2,015,001,2021-04-20_17h28.59.871,searchDisc4,2020.2.10,Win32,60,,,space,0.03244,2,1,0.682685,,0,452,452,89,1,1a,89,3,4,
,,,,,,,,,,,,,,,,,,,,,,,,,,images/exp1a_trial_43_colour1_distractors43_r.png,r,2,015,001,2021-04-20_17h28.59.871,searchDisc4,2020.2.10,Win32,60,,,space,0.00113,2,1,0.82494,,0,453,453,43,1,1a,43,1,43,
,,,,,,,,,,,,,,,,,,,,,,,,,,images/exp1a_trial_106_colour3_distractors1_l.png,l,1,015,001,2021-04-20_17h28.59.871,searchDisc4,2020.2.10,Win32,60,,,space,0.67133,2,0,0.68169,,0,454,454,106,1,1a,106,3,1,
,,,,,,,,,,,,,,,,,,,,,,,,,,images/exp2c_trial_84_colour2_distractors9_r.png,r,2,015,001,2021-04-20_17h28.59.871,searchDisc4,2020.2.10,Win32,60,,,space,0.001315,2,1,0.718275,,0,455,455,540,1,2c,84,2,9,
,,,,,,,,,,,,,,,,,,,,,,,,,,images/exp1b_trial_54_colour3_distractors31_r.png,r,2,015,001,2021-04-20_17h28.59.871,searchDisc4,2020.2.10,Win32,60,,,space,0.521075,1,0,4.261145,,0,456,456,168,1,1b,54,3,31,
,,,,,,,,,,,,,,,,,,,,,,,,,,images/exp2c_trial_77_colour1_distractors4_r.png,r,2,015,001,2021-04-20_17h28.59.871,searchDisc4,2020.2.10,Win32,60,,,space,0.48059,2,1,1.027665,,0,457,457,533,1,2c,77,1,4,
,,,,,,,,,,,,,,,,,,,,,,,,,,images/exp2b_trial_73_colour3_distractors43_l.png,l,1,015,001,2021-04-20_17h28.59.871,searchDisc4,2020.2.10,Win32,60,,,space,0.23735,1,1,0.59993,,0,458,458,415,1,2b,73,3,43,
,,,,,,,,,,,,,,,,,,,,,,,,,,images/exp1a_trial_3_colour1_distractors19_r.png,r,2,015,001,2021-04-20_17h28.59.871,searchDisc4,2020.2.10,Win32,60,,,space,0.185215,2,1,0.53375,,0,459,459,3,1,1a,3,1,19,
,,,,,,,,,,,,,,,,,,,,,,,,,,images/exp1b_trial_96_colour1_distractors9_l.png,l,1,015,001,2021-04-20_17h28.59.871,searchDisc4,2020.2.10,Win32,60,,,space,0.196885,1,1,0.73057,,0,460,460,210,1,1b,96,1,9,
,,,,,,,,,,,,,,,,,,,,,,,,,,images/exp2c_trial_55_colour3_distractors43_r.png,r,2,015,001,2021-04-20_17h28.59.871,searchDisc4,2020.2.10,Win32,60,,,space,0.15654,2,1,0.563785,,0,461,461,511,1,2c,55,3,43,
,,,,,,,,,,,,,,,,,,,,,,,,,,images/exp1a_trial_73_colour3_distractors43_l.png,l,1,015,001,2021-04-20_17h28.59.871,searchDisc4,2020.2.10,Win32,60,,,space,0.230895,1,1,0.58999,,0,462,462,73,1,1a,73,3,43,
,,,,,,,,,,,,,,,,,,,,,,,,,,images/exp2b_trial_18_colour1_distractors1_l.png,l,1,015,001,2021-04-20_17h28.59.871,searchDisc4,2020.2.10,Win32,60,,,space,0.28965,1,1,0.67394,,0,463,463,360,1,2b,18,1,1,
,,,,,,,,,,,,,,,,,,,,,,,,,,images/exp1b_trial_83_colour2_distractors4_r.png,r,2,015,001,2021-04-20_17h28.59.871,searchDisc4,2020.2.10,Win32,60,,,space,0.18938,2,1,0.831405,,0,464,464,197,1,1b,83,2,4,
,,,,,,,,,,,,,,,,,,,,,,,,,,images/exp2b_trial_76_colour1_distractors1_r.png,r,2,015,001,2021-04-20_17h28.59.871,searchDisc4,2020.2.10,Win32,60,,,space,0.18429,2,1,0.606635,,0,465,465,418,1,2b,76,1,1,
,,,,,,,,,,,,,,,,,,,,,,,,,,images/exp2a_trial_16_colour3_distractors31_r.png,r,2,015,001,2021-04-20_17h28.59.871,searchDisc4,2020.2.10,Win32,60,,,space,0.19775,2,1,0.902885,,0,466,466,244,1,2a,16,3,31,
,,,,,,,,,,,,,,,,,,,,,,,,,,images/exp2b_trial_30_colour3_distractors1_l.png,l,1,015,001,2021-04-20_17h28.59.871,searchDisc4,2020.2.10,Win32,60,,,space,0.16174,1,1,0.54887,,0,467,467,372,1,2b,30,3,1,
,,,,,,,,,,,,,,,,,,,,,,,,,,images/exp2c_trial_100_colour2_distractors1_l.png,l,1,015,001,2021-04-20_17h28.59.871,searchDisc4,2020.2.10,Win32,60,,,space,0.527795,1,1,0.57526,,0,468,468,556,1,2c,100,2,1,
,,,,,,,,,,,,,,,,,,,,,,,,,,images/exp2b_trial_112_colour0_distractors0_r.png,r,2,015,001,2021-04-20_17h28.59.871,searchDisc4,2020.2.10,Win32,60,,,space,0.14929,2,1,0.7224,,0,469,469,454,1,2b,112,0,0,
,,,,,,,,,,,,,,,,,,,,,,,,,,images/exp1b_trial_21_colour1_distractors19_l.png,l,1,015,001,2021-04-20_17h28.59.871,searchDisc4,2020.2.10,Win32,60,,,space,0.26671,1,1,0.841745,,0,470,470,135,1,1b,21,1,19,
,,,,,,,,,,,,,,,,,,,,,,,,,,images/exp2a_trial_85_colour2_distractors19_r.png,r,2,015,001,2021-04-20_17h28.59.871,searchDisc4,2020.2.10,Win32,60,,,space,0.067005,2,1,0.851185,,0,471,471,313,1,2a,85,2,19,
,,,,,,,,,,,,,,,,,,,,,,,,,,images/exp1a_trial_95_colour1_distractors4_l.png,l,1,015,001,2021-04-20_17h28.59.871,searchDisc4,2020.2.10,Win32,60,,,space,0.165045,1,1,0.895525,,0,472,472,95,1,1a,95,1,4,
,,,,,,,,,,,,,,,,,,,,,,,,,,images/exp1b_trial_49_colour2_distractors43_r.png,r,2,015,001,2021-04-20_17h28.59.871,searchDisc4,2020.2.10,Win32,60,,,space,0.217865,2,1,0.858465,,0,473,473,163,1,1b,49,2,43,
,,,,,,,,,,,,,,,,,,,,,,,,,,images/exp2a_trial_41_colour1_distractors19_r.png,r,2,015,001,2021-04-20_17h28.59.871,searchDisc4,2020.2.10,Win32,60,,,space,0.173085,2,1,0.820315,,0,474,474,269,1,2a,41,1,19,
,,,,,,,,,,,,,,,,,,,,,,,,,,images/exp2c_trial_3_colour1_distractors19_r.png,r,2,015,001,2021-04-20_17h28.59.871,searchDisc4,2020.2.10,Win32,60,,,space,0.166445,2,1,0.67609,,0,475,475,459,1,2c,3,1,19,
,,,,,,,,,,,,,,,,,,,,,,,,,,images/exp2a_trial_29_colour2_distractors43_l.png,l,1,015,001,2021-04-20_17h28.59.871,searchDisc4,2020.2.10,Win32,60,,,space,0.285965,1,1,0.743525,,0,476,476,257,1,2a,29,2,43,
