X Scale,Y Scale,key_resp_10.keys,key_resp_10.rt,key_resp_11.keys,key_resp_11.rt,key_resp_12.keys,key_resp_12.rt,key_resp_13.keys,key_resp_13.rt,key_resp_5.keys,key_resp_5.rt,key_resp_8.keys,key_resp_8.rt,key_resp_6.keys,key_resp_6.rt,key_resp_7.keys,key_resp_7.rt,key_resp_4.keys,key_resp_4.corr,key_resp_4.rt,trials_2.thisRepN,trials_2.thisTrialN,trials_2.thisN,trials_2.thisIndex,trials_2.ran,ImageFile,targ_side,correctAnswer,participant,session,date,expName,psychopyVersion,OS,frameRate,key_resp_3.keys,key_resp_3.rt,key_resp_9.keys,key_resp_9.rt,key_resp_2.keys,key_resp_2.corr,key_resp_2.rt,key_resp.keys,trials.thisRepN,trials.thisTrialN,trials.thisN,trials.thisIndex,trials.ran,exp,trial,colour,distNo,key_resp.rt
20.1,20.2,space,10.163105,space,6.62625,space,5.26974,space,11.004785,space,9.78161,space,15.600635,space,7.210635,space,12.463245,1,1,1.40794,0,0,0,10,1,Practice arrays/exp1a_trial_20_colour1_distractors9_l.png,l,1,016,001,2021-04-20_18h36.40.126,searchDisc4,2020.2.10,Win32,60,,,,,,,,,,,,,,,,,,
,,,,,,,,,,,,,,,,space,1.077335,2,0,0.63445,0,1,1,17,1,Practice arrays/exp1a_trial_35_colour3_distractors43_l.png,l,1,016,001,2021-04-20_18h36.40.126,searchDisc4,2020.2.10,Win32,60,,,,,,,,,,,,,,,,,,
,,,,,,,,,,,,,,,,space,0.683005,2,1,0.610115,0,2,2,6,1,Practice arrays/exp1a_trial_12_colour3_distractors1_r.png,r,2,016,001,2021-04-20_18h36.40.126,searchDisc4,2020.2.10,Win32,60,,,,,,,,,,,,,,,,,,
,,,,,,,,,,,,,,,,space,0.417875,2,1,1.0747,0,3,3,3,1,Practice arrays/exp1a_trial_7_colour2_distractors4_r.png,r,2,016,001,2021-04-20_18h36.40.126,searchDisc4,2020.2.10,Win32,60,,,,,,,,,,,,,,,,,,
,,,,,,,,,,,,,,,,space,0.460115,2,1,0.506185,0,4,4,4,1,Practice arrays/exp1a_trial_8_colour2_distractors9_r.png,r,2,016,001,2021-04-20_18h36.40.126,searchDisc4,2020.2.10,Win32,60,,,,,,,,,,,,,,,,,,
,,,,,,,,,,,,,,,,space,0.48606,1,1,0.578085,0,5,5,14,1,Practice arrays/exp1a_trial_29_colour2_distractors43_l.png,l,1,016,001,2021-04-20_18h36.40.126,searchDisc4,2020.2.10,Win32,60,,,,,,,,,,,,,,,,,,
,,,,,,,,,,,,,,,,space,0.402065,2,1,0.61709,0,6,6,8,1,Practice arrays/exp1a_trial_16_colour3_distractors31_r.png,r,2,016,001,2021-04-20_18h36.40.126,searchDisc4,2020.2.10,Win32,60,,,,,,,,,,,,,,,,,,
,,,,,,,,,,,,,,,,space,0.389095,1,1,0.55184,0,7,7,15,1,Practice arrays/exp1a_trial_32_colour3_distractors9_l.png,l,1,016,001,2021-04-20_18h36.40.126,searchDisc4,2020.2.10,Win32,60,,,,,,,,,,,,,,,,,,
,,,,,,,,,,,,,,,,space,0.36734,1,1,0.74642,0,8,8,12,1,Practice arrays/exp1a_trial_25_colour2_distractors4_l.png,l,1,016,001,2021-04-20_18h36.40.126,searchDisc4,2020.2.10,Win32,60,,,,,,,,,,,,,,,,,,
,,,,,,,,,,,,,,,,space,0.385585,2,1,0.58724,0,9,9,0,1,Practice arrays/exp1a_trial_0_colour1_distractors1_r.png,r,2,016,001,2021-04-20_18h36.40.126,searchDisc4,2020.2.10,Win32,60,,,,,,,,,,,,,,,,,,
,,,,,,,,,,,,,,,,space,0.441385,1,1,0.501715,0,10,10,16,1,Practice arrays/exp1a_trial_33_colour3_distractors19_l.png,l,1,016,001,2021-04-20_18h36.40.126,searchDisc4,2020.2.10,Win32,60,,,,,,,,,,,,,,,,,,
,,,,,,,,,,,,,,,,space,0.336815,1,1,0.563285,0,11,11,9,1,Practice arrays/exp1a_trial_19_colour1_distractors4_l.png,l,1,016,001,2021-04-20_18h36.40.126,searchDisc4,2020.2.10,Win32,60,,,,,,,,,,,,,,,,,,
,,,,,,,,,,,,,,,,space,0.384385,1,1,0.61737,0,12,12,19,1,Practice arrays/exp1a_trial_37_colour0_distractors0_l.png,l,1,016,001,2021-04-20_18h36.40.126,searchDisc4,2020.2.10,Win32,60,,,,,,,,,,,,,,,,,,
,,,,,,,,,,,,,,,,space,0.334585,2,1,0.658855,0,13,13,5,1,Practice arrays/exp1a_trial_10_colour2_distractors31_r.png,r,2,016,001,2021-04-20_18h36.40.126,searchDisc4,2020.2.10,Win32,60,,,,,,,,,,,,,,,,,,
,,,,,,,,,,,,,,,,space,0.35929,2,1,0.59583,0,14,14,1,1,Practice arrays/exp1a_trial_3_colour1_distractors19_r.png,r,2,016,001,2021-04-20_18h36.40.126,searchDisc4,2020.2.10,Win32,60,,,,,,,,,,,,,,,,,,
,,,,,,,,,,,,,,,,space,0.30919,2,1,0.519195,0,15,15,7,1,Practice arrays/exp1a_trial_13_colour3_distractors4_r.png,r,2,016,001,2021-04-20_18h36.40.126,searchDisc4,2020.2.10,Win32,60,,,,,,,,,,,,,,,,,,
,,,,,,,,,,,,,,,,space,0.350185,2,1,0.54482,0,16,16,2,1,Practice arrays/exp1a_trial_5_colour1_distractors43_r.png,r,2,016,001,2021-04-20_18h36.40.126,searchDisc4,2020.2.10,Win32,60,,,,,,,,,,,,,,,,,,
,,,,,,,,,,,,,,,,space,0.31016,1,1,0.653735,0,17,17,13,1,Practice arrays/exp1a_trial_28_colour2_distractors31_l.png,l,1,016,001,2021-04-20_18h36.40.126,searchDisc4,2020.2.10,Win32,60,,,,,,,,,,,,,,,,,,
,,,,,,,,,,,,,,,,space,0.385525,2,1,0.451645,0,18,18,18,1,Practice arrays/exp1a_trial_36_colour0_distractors0_r.png,r,2,016,001,2021-04-20_18h36.40.126,searchDisc4,2020.2.10,Win32,60,,,,,,,,,,,,,,,,,,
,,,,,,,,,,,,,,,,space,0.327605,1,1,0.72423,0,19,19,11,1,Practice arrays/exp1a_trial_21_colour1_distractors19_l.png,l,1,016,001,2021-04-20_18h36.40.126,searchDisc4,2020.2.10,Win32,60,,,,,,,,,,,,,,,,,,
,,,,,,,,,,,,,,,,,,,,,,,,,,images/exp1b_trial_102_colour2_distractors9_l.png,l,1,016,001,2021-04-20_18h36.40.126,searchDisc4,2020.2.10,Win32,60,space,8.091355,space,1.23771,1,1,0.70343,,0,0,0,216,1,1b,102,2,9,
,,,,,,,,,,,,,,,,,,,,,,,,,,images/exp2a_trial_9_colour2_distractors19_r.png,r,2,016,001,2021-04-20_18h36.40.126,searchDisc4,2020.2.10,Win32,60,,,space,0.728645,2,1,0.623465,,0,1,1,237,1,2a,9,2,19,
,,,,,,,,,,,,,,,,,,,,,,,,,,images/exp1b_trial_93_colour3_distractors43_r.png,r,2,016,001,2021-04-20_18h36.40.126,searchDisc4,2020.2.10,Win32,60,,,space,0.71469,2,1,1.2502,,0,2,2,207,1,1b,93,3,43,
,,,,,,,,,,,,,,,,,,,,,,,,,,images/exp2c_trial_26_colour2_distractors9_l.png,l,1,016,001,2021-04-20_18h36.40.126,searchDisc4,2020.2.10,Win32,60,,,space,0.55029,1,1,0.684075,,0,3,3,482,1,2c,26,2,9,
,,,,,,,,,,,,,,,,,,,,,,,,,,images/exp2b_trial_20_colour1_distractors9_l.png,l,1,016,001,2021-04-20_18h36.40.126,searchDisc4,2020.2.10,Win32,60,,,space,0.554775,1,1,0.590635,,0,4,4,362,1,2b,20,1,9,
,,,,,,,,,,,,,,,,,,,,,,,,,,images/exp2c_trial_12_colour3_distractors1_r.png,r,2,016,001,2021-04-20_18h36.40.126,searchDisc4,2020.2.10,Win32,60,,,space,0.565095,2,1,0.586625,,0,5,5,468,1,2c,12,3,1,
,,,,,,,,,,,,,,,,,,,,,,,,,,images/exp2c_trial_63_colour2_distractors4_l.png,l,1,016,001,2021-04-20_18h36.40.126,searchDisc4,2020.2.10,Win32,60,,,space,0.58149,1,1,0.61496,,0,6,6,519,1,2c,63,2,4,
,,,,,,,,,,,,,,,,,,,,,,,,,,images/exp2b_trial_75_colour0_distractors0_l.png,l,1,016,001,2021-04-20_18h36.40.126,searchDisc4,2020.2.10,Win32,60,,,space,0.51714,1,1,0.57511,,0,7,7,417,1,2b,75,0,0,
,,,,,,,,,,,,,,,,,,,,,,,,,,images/exp1a_trial_34_colour3_distractors31_l.png,l,1,016,001,2021-04-20_18h36.40.126,searchDisc4,2020.2.10,Win32,60,,,space,0.50243,1,1,0.62864,,0,8,8,34,1,1a,34,3,31,
,,,,,,,,,,,,,,,,,,,,,,,,,,images/exp2c_trial_54_colour3_distractors31_r.png,r,2,016,001,2021-04-20_18h36.40.126,searchDisc4,2020.2.10,Win32,60,,,space,0.50101,2,1,0.671335,,0,9,9,510,1,2c,54,3,31,
,,,,,,,,,,,,,,,,,,,,,,,,,,images/exp1a_trial_95_colour1_distractors4_l.png,l,1,016,001,2021-04-20_18h36.40.126,searchDisc4,2020.2.10,Win32,60,,,space,0.46605,1,1,0.625025,,0,10,10,95,1,1a,95,1,4,
,,,,,,,,,,,,,,,,,,,,,,,,,,images/exp2c_trial_72_colour3_distractors31_l.png,l,1,016,001,2021-04-20_18h36.40.126,searchDisc4,2020.2.10,Win32,60,,,space,0.455365,1,1,0.66167,,0,11,11,528,1,2c,72,3,31,
,,,,,,,,,,,,,,,,,,,,,,,,,,images/exp1a_trial_104_colour2_distractors31_l.png,l,1,016,001,2021-04-20_18h36.40.126,searchDisc4,2020.2.10,Win32,60,,,space,0.37246,1,1,0.580785,,0,12,12,104,1,1a,104,2,31,
,,,,,,,,,,,,,,,,,,,,,,,,,,images/exp1a_trial_41_colour1_distractors19_r.png,r,2,016,001,2021-04-20_18h36.40.126,searchDisc4,2020.2.10,Win32,60,,,space,0.412595,2,1,0.52987,,0,13,13,41,1,1a,41,1,19,
,,,,,,,,,,,,,,,,,,,,,,,,,,images/exp1b_trial_20_colour1_distractors9_l.png,l,1,016,001,2021-04-20_18h36.40.126,searchDisc4,2020.2.10,Win32,60,,,space,0.45814,1,1,0.570445,,0,14,14,134,1,1b,20,1,9,
,,,,,,,,,,,,,,,,,,,,,,,,,,images/exp2b_trial_95_colour1_distractors4_l.png,l,1,016,001,2021-04-20_18h36.40.126,searchDisc4,2020.2.10,Win32,60,,,space,0.41583,1,1,0.618075,,0,15,15,437,1,2b,95,1,4,
,,,,,,,,,,,,,,,,,,,,,,,,,,images/exp1a_trial_58_colour1_distractors9_l.png,l,1,016,001,2021-04-20_18h36.40.126,searchDisc4,2020.2.10,Win32,60,,,space,0.37977,1,1,0.582935,,0,16,16,58,1,1a,58,1,9,
,,,,,,,,,,,,,,,,,,,,,,,,,,images/exp1a_trial_30_colour3_distractors1_l.png,l,1,016,001,2021-04-20_18h36.40.126,searchDisc4,2020.2.10,Win32,60,,,space,0.396615,1,1,0.56797,,0,17,17,30,1,1a,30,3,1,
,,,,,,,,,,,,,,,,,,,,,,,,,,images/exp2b_trial_105_colour2_distractors43_l.png,l,1,016,001,2021-04-20_18h36.40.126,searchDisc4,2020.2.10,Win32,60,,,space,0.37641,1,1,0.5667,,0,18,18,447,1,2b,105,2,43,
,,,,,,,,,,,,,,,,,,,,,,,,,,images/exp1b_trial_72_colour3_distractors31_l.png,l,1,016,001,2021-04-20_18h36.40.126,searchDisc4,2020.2.10,Win32,60,,,space,0.42126,1,1,0.97882,,0,19,19,186,1,1b,72,3,31,
,,,,,,,,,,,,,,,,,,,,,,,,,,images/exp1a_trial_32_colour3_distractors9_l.png,l,1,016,001,2021-04-20_18h36.40.126,searchDisc4,2020.2.10,Win32,60,,,space,0.344615,1,1,0.539595,,0,20,20,32,1,1a,32,3,9,
,,,,,,,,,,,,,,,,,,,,,,,,,,images/exp2c_trial_15_colour3_distractors19_r.png,r,2,016,001,2021-04-20_18h36.40.126,searchDisc4,2020.2.10,Win32,60,,,space,0.41308,2,1,0.53242,,0,21,21,471,1,2c,15,3,19,
,,,,,,,,,,,,,,,,,,,,,,,,,,images/exp1a_trial_111_colour3_distractors43_l.png,l,1,016,001,2021-04-20_18h36.40.126,searchDisc4,2020.2.10,Win32,60,,,space,0.41692,1,1,0.554095,,0,22,22,111,1,1a,111,3,43,
,,,,,,,,,,,,,,,,,,,,,,,,,,images/exp2b_trial_28_colour2_distractors31_l.png,l,1,016,001,2021-04-20_18h36.40.126,searchDisc4,2020.2.10,Win32,60,,,space,0.36324,1,1,0.52303,,0,23,23,370,1,2b,28,2,31,
,,,,,,,,,,,,,,,,,,,,,,,,,,images/exp1a_trial_39_colour1_distractors4_r.png,r,2,016,001,2021-04-20_18h36.40.126,searchDisc4,2020.2.10,Win32,60,,,space,0.394585,2,1,0.54829,,0,24,24,39,1,1a,39,1,4,
,,,,,,,,,,,,,,,,,,,,,,,,,,images/exp1b_trial_83_colour2_distractors4_r.png,r,2,016,001,2021-04-20_18h36.40.126,searchDisc4,2020.2.10,Win32,60,,,space,0.4303,2,1,0.54032,,0,25,25,197,1,1b,83,2,4,
,,,,,,,,,,,,,,,,,,,,,,,,,,images/exp1b_trial_70_colour3_distractors9_l.png,l,1,016,001,2021-04-20_18h36.40.126,searchDisc4,2020.2.10,Win32,60,,,space,0.382955,1,1,1.32955,,0,26,26,184,1,1b,70,3,9,
,,,,,,,,,,,,,,,,,,,,,,,,,,images/exp2a_trial_106_colour3_distractors1_l.png,l,1,016,001,2021-04-20_18h36.40.126,searchDisc4,2020.2.10,Win32,60,,,space,0.31319,1,1,0.614745,,0,27,27,334,1,2a,106,3,1,
,,,,,,,,,,,,,,,,,,,,,,,,,,images/exp1a_trial_107_colour3_distractors4_l.png,l,1,016,001,2021-04-20_18h36.40.126,searchDisc4,2020.2.10,Win32,60,,,space,0.41277,1,1,0.56532,,0,28,28,107,1,1a,107,3,4,
,,,,,,,,,,,,,,,,,,,,,,,,,,images/exp2b_trial_112_colour0_distractors0_r.png,r,2,016,001,2021-04-20_18h36.40.126,searchDisc4,2020.2.10,Win32,60,,,space,0.382055,2,1,0.53569,,0,29,29,454,1,2b,112,0,0,
,,,,,,,,,,,,,,,,,,,,,,,,,,images/exp1b_trial_60_colour1_distractors31_l.png,l,1,016,001,2021-04-20_18h36.40.126,searchDisc4,2020.2.10,Win32,60,,,space,0.38153,1,1,1.00372,,0,30,30,174,1,1b,60,1,31,
,,,,,,,,,,,,,,,,,,,,,,,,,,images/exp2c_trial_89_colour3_distractors4_r.png,r,2,016,001,2021-04-20_18h36.40.126,searchDisc4,2020.2.10,Win32,60,,,space,0.35862,2,1,0.53932,,0,31,31,545,1,2c,89,3,4,
,,,,,,,,,,,,,,,,,,,,,,,,,,images/exp1a_trial_79_colour1_distractors19_r.png,r,2,016,001,2021-04-20_18h36.40.126,searchDisc4,2020.2.10,Win32,60,,,space,0.396605,2,1,0.652255,,0,32,32,79,1,1a,79,1,19,
,,,,,,,,,,,,,,,,,,,,,,,,,,images/exp1b_trial_110_colour3_distractors31_l.png,l,1,016,001,2021-04-20_18h36.40.126,searchDisc4,2020.2.10,Win32,60,,,space,0.3507,1,1,1.65042,,0,33,33,224,1,1b,110,3,31,
,,,,,,,,,,,,,,,,,,,,,,,,,,images/exp1b_trial_32_colour3_distractors9_l.png,l,1,016,001,2021-04-20_18h36.40.126,searchDisc4,2020.2.10,Win32,60,,,space,0.352125,1,1,1.22811,,0,34,34,146,1,1b,32,3,9,
,,,,,,,,,,,,,,,,,,,,,,,,,,images/exp2a_trial_29_colour2_distractors43_l.png,l,1,016,001,2021-04-20_18h36.40.126,searchDisc4,2020.2.10,Win32,60,,,space,0.359915,1,1,0.580855,,0,35,35,257,1,2a,29,2,43,
,,,,,,,,,,,,,,,,,,,,,,,,,,images/exp1b_trial_104_colour2_distractors31_l.png,l,1,016,001,2021-04-20_18h36.40.126,searchDisc4,2020.2.10,Win32,60,,,space,0.35239,1,1,1.516905,,0,36,36,218,1,1b,104,2,31,
,,,,,,,,,,,,,,,,,,,,,,,,,,images/exp1a_trial_13_colour3_distractors4_r.png,r,2,016,001,2021-04-20_18h36.40.126,searchDisc4,2020.2.10,Win32,60,,,space,0.370935,2,1,0.594105,,0,37,37,13,1,1a,13,3,4,
,,,,,,,,,,,,,,,,,,,,,,,,,,images/exp1a_trial_9_colour2_distractors19_r.png,r,2,016,001,2021-04-20_18h36.40.126,searchDisc4,2020.2.10,Win32,60,,,space,0.387415,2,1,0.52571,,0,38,38,9,1,1a,9,2,19,
,,,,,,,,,,,,,,,,,,,,,,,,,,images/exp2b_trial_57_colour1_distractors4_l.png,l,1,016,001,2021-04-20_18h36.40.126,searchDisc4,2020.2.10,Win32,60,,,space,0.401675,1,1,0.5121,,0,39,39,399,1,2b,57,1,4,
,,,,,,,,,,,,,,,,,,,,,,,,,,images/exp2b_trial_44_colour2_distractors1_r.png,r,2,016,001,2021-04-20_18h36.40.126,searchDisc4,2020.2.10,Win32,60,,,space,0.38724,2,1,0.502775,,0,40,40,386,1,2b,44,2,1,
,,,,,,,,,,,,,,,,,,,,,,,,,,images/exp1a_trial_22_colour1_distractors31_l.png,l,1,016,001,2021-04-20_18h36.40.126,searchDisc4,2020.2.10,Win32,60,,,space,0.43167,1,1,0.52418,,0,41,41,22,1,1a,22,1,31,
,,,,,,,,,,,,,,,,,,,,,,,,,,images/exp1b_trial_7_colour2_distractors4_r.png,r,2,016,001,2021-04-20_18h36.40.126,searchDisc4,2020.2.10,Win32,60,,,space,0.363815,2,1,0.739565,,0,42,42,121,1,1b,7,2,4,
,,,,,,,,,,,,,,,,,,,,,,,,,,images/exp2a_trial_28_colour2_distractors31_l.png,l,1,016,001,2021-04-20_18h36.40.126,searchDisc4,2020.2.10,Win32,60,,,space,0.43003,1,1,0.52228,,0,43,43,256,1,2a,28,2,31,
,,,,,,,,,,,,,,,,,,,,,,,,,,images/exp2c_trial_25_colour2_distractors4_l.png,l,1,016,001,2021-04-20_18h36.40.126,searchDisc4,2020.2.10,Win32,60,,,space,0.371315,1,1,0.547445,,0,44,44,481,1,2c,25,2,4,
,,,,,,,,,,,,,,,,,,,,,,,,,,images/exp1a_trial_76_colour1_distractors1_r.png,r,2,016,001,2021-04-20_18h36.40.126,searchDisc4,2020.2.10,Win32,60,,,space,0.35225,2,1,0.52904,,0,45,45,76,1,1a,76,1,1,
,,,,,,,,,,,,,,,,,,,,,,,,,,images/exp2a_trial_43_colour1_distractors43_r.png,r,2,016,001,2021-04-20_18h36.40.126,searchDisc4,2020.2.10,Win32,60,,,space,0.372315,2,1,0.632685,,0,46,46,271,1,2a,43,1,43,
,,,,,,,,,,,,,,,,,,,,,,,,,,images/exp2a_trial_111_colour3_distractors43_l.png,l,1,016,001,2021-04-20_18h36.40.126,searchDisc4,2020.2.10,Win32,60,,,space,0.34957,1,1,0.58059,,0,47,47,339,1,2a,111,3,43,
,,,,,,,,,,,,,,,,,,,,,,,,,,images/exp1a_trial_83_colour2_distractors4_r.png,r,2,016,001,2021-04-20_18h36.40.126,searchDisc4,2020.2.10,Win32,60,,,space,0.402005,2,1,0.54311,,0,48,48,83,1,1a,83,2,4,
,,,,,,,,,,,,,,,,,,,,,,,,,,images/exp2b_trial_64_colour2_distractors9_l.png,l,1,016,001,2021-04-20_18h36.40.126,searchDisc4,2020.2.10,Win32,60,,,space,0.361825,1,1,0.556685,,0,49,49,406,1,2b,64,2,9,
,,,,,,,,,,,,,,,,,,,,,,,,,,images/exp2b_trial_11_colour2_distractors43_r.png,r,2,016,001,2021-04-20_18h36.40.126,searchDisc4,2020.2.10,Win32,60,,,space,0.318905,2,1,0.566525,,0,50,50,353,1,2b,11,2,43,
,,,,,,,,,,,,,,,,,,,,,,,,,,images/exp1b_trial_44_colour2_distractors1_r.png,r,2,016,001,2021-04-20_18h36.40.126,searchDisc4,2020.2.10,Win32,60,,,space,0.39857,2,1,0.664365,,0,51,51,158,1,1b,44,2,1,
,,,,,,,,,,,,,,,,,,,,,,,,,,images/exp1a_trial_4_colour1_distractors31_r.png,r,2,016,001,2021-04-20_18h36.40.126,searchDisc4,2020.2.10,Win32,60,,,space,0.372235,2,1,0.502555,,0,52,52,4,1,1a,4,1,31,
,,,,,,,,,,,,,,,,,,,,,,,,,,images/exp2a_trial_72_colour3_distractors31_l.png,l,1,016,001,2021-04-20_18h36.40.126,searchDisc4,2020.2.10,Win32,60,,,space,0.351485,1,1,0.570805,,0,53,53,300,1,2a,72,3,31,
,,,,,,,,,,,,,,,,,,,,,,,,,,images/exp2c_trial_2_colour1_distractors9_r.png,r,2,016,001,2021-04-20_18h36.40.126,searchDisc4,2020.2.10,Win32,60,,,space,0.42939,2,1,0.53499,,0,54,54,458,1,2c,2,1,9,
,,,,,,,,,,,,,,,,,,,,,,,,,,images/exp2b_trial_85_colour2_distractors19_r.png,r,2,016,001,2021-04-20_18h36.40.126,searchDisc4,2020.2.10,Win32,60,,,space,0.46015,2,1,0.438925,,0,55,55,427,1,2b,85,2,19,
,,,,,,,,,,,,,,,,,,,,,,,,,,images/exp2c_trial_8_colour2_distractors9_r.png,r,2,016,001,2021-04-20_18h36.40.126,searchDisc4,2020.2.10,Win32,60,,,space,0.431365,1,0,0.508025,,0,56,56,464,1,2c,8,2,9,
,,,,,,,,,,,,,,,,,,,,,,,,,,images/exp2c_trial_44_colour2_distractors1_r.png,r,2,016,001,2021-04-20_18h36.40.126,searchDisc4,2020.2.10,Win32,60,,,space,1.50302,2,1,0.51746,,0,57,57,500,1,2c,44,2,1,
,,,,,,,,,,,,,,,,,,,,,,,,,,images/exp2a_trial_32_colour3_distractors9_l.png,l,1,016,001,2021-04-20_18h36.40.126,searchDisc4,2020.2.10,Win32,60,,,space,0.39106,1,1,0.497685,,0,58,58,260,1,2a,32,3,9,
,,,,,,,,,,,,,,,,,,,,,,,,,,images/exp2a_trial_81_colour1_distractors43_r.png,r,2,016,001,2021-04-20_18h36.40.126,searchDisc4,2020.2.10,Win32,60,,,space,0.41564,2,1,0.54804,space,0,59,59,309,1,2a,81,1,43,24.40628
,,,,,,,,,,,,,,,,,,,,,,,,,,images/exp2a_trial_68_colour3_distractors1_l.png,l,1,016,001,2021-04-20_18h36.40.126,searchDisc4,2020.2.10,Win32,60,,,space,9.019105,1,1,0.671225,,0,60,60,296,1,2a,68,3,1,
,,,,,,,,,,,,,,,,,,,,,,,,,,images/exp2c_trial_46_colour2_distractors9_r.png,r,2,016,001,2021-04-20_18h36.40.126,searchDisc4,2020.2.10,Win32,60,,,space,0.38757,2,1,0.59305,,0,61,61,502,1,2c,46,2,9,
,,,,,,,,,,,,,,,,,,,,,,,,,,images/exp1a_trial_52_colour3_distractors9_r.png,r,2,016,001,2021-04-20_18h36.40.126,searchDisc4,2020.2.10,Win32,60,,,space,0.37038,2,1,1.178615,,0,62,62,52,1,1a,52,3,9,
,,,,,,,,,,,,,,,,,,,,,,,,,,images/exp2c_trial_78_colour1_distractors9_r.png,r,2,016,001,2021-04-20_18h36.40.126,searchDisc4,2020.2.10,Win32,60,,,space,0.41685,2,1,0.50167,,0,63,63,534,1,2c,78,1,9,
,,,,,,,,,,,,,,,,,,,,,,,,,,images/exp2a_trial_73_colour3_distractors43_l.png,l,1,016,001,2021-04-20_18h36.40.126,searchDisc4,2020.2.10,Win32,60,,,space,0.30736,1,1,0.642255,,0,64,64,301,1,2a,73,3,43,
,,,,,,,,,,,,,,,,,,,,,,,,,,images/exp2a_trial_41_colour1_distractors19_r.png,r,2,016,001,2021-04-20_18h36.40.126,searchDisc4,2020.2.10,Win32,60,,,space,0.3729,2,1,0.562545,,0,65,65,269,1,2a,41,1,19,
,,,,,,,,,,,,,,,,,,,,,,,,,,images/exp1a_trial_3_colour1_distractors19_r.png,r,2,016,001,2021-04-20_18h36.40.126,searchDisc4,2020.2.10,Win32,60,,,space,0.35035,2,1,0.63992,,0,66,66,3,1,1a,3,1,19,
,,,,,,,,,,,,,,,,,,,,,,,,,,images/exp1b_trial_45_colour2_distractors4_r.png,r,2,016,001,2021-04-20_18h36.40.126,searchDisc4,2020.2.10,Win32,60,,,space,0.34278,2,1,0.843745,,0,67,67,159,1,1b,45,2,4,
,,,,,,,,,,,,,,,,,,,,,,,,,,images/exp2a_trial_30_colour3_distractors1_l.png,l,1,016,001,2021-04-20_18h36.40.126,searchDisc4,2020.2.10,Win32,60,,,space,0.31127,1,1,0.48748,,0,68,68,258,1,2a,30,3,1,
,,,,,,,,,,,,,,,,,,,,,,,,,,images/exp2c_trial_109_colour3_distractors19_l.png,l,1,016,001,2021-04-20_18h36.40.126,searchDisc4,2020.2.10,Win32,60,,,space,0.300875,1,1,0.650995,,0,69,69,565,1,2c,109,3,19,
,,,,,,,,,,,,,,,,,,,,,,,,,,images/exp2b_trial_33_colour3_distractors19_l.png,l,1,016,001,2021-04-20_18h36.40.126,searchDisc4,2020.2.10,Win32,60,,,space,0.370445,1,1,0.469985,,0,70,70,375,1,2b,33,3,19,
,,,,,,,,,,,,,,,,,,,,,,,,,,images/exp2a_trial_71_colour3_distractors19_l.png,l,1,016,001,2021-04-20_18h36.40.126,searchDisc4,2020.2.10,Win32,60,,,space,0.32195,2,0,0.529415,,0,71,71,299,1,2a,71,3,19,
,,,,,,,,,,,,,,,,,,,,,,,,,,images/exp2c_trial_28_colour2_distractors31_l.png,l,1,016,001,2021-04-20_18h36.40.126,searchDisc4,2020.2.10,Win32,60,,,space,0.47086,1,1,0.60815,,0,72,72,484,1,2c,28,2,31,
,,,,,,,,,,,,,,,,,,,,,,,,,,images/exp1a_trial_20_colour1_distractors9_l.png,l,1,016,001,2021-04-20_18h36.40.126,searchDisc4,2020.2.10,Win32,60,,,space,0.313515,1,1,0.568135,,0,73,73,20,1,1a,20,1,9,
,,,,,,,,,,,,,,,,,,,,,,,,,,images/exp2a_trial_59_colour1_distractors19_l.png,l,1,016,001,2021-04-20_18h36.40.126,searchDisc4,2020.2.10,Win32,60,,,space,0.277725,1,1,0.56157,,0,74,74,287,1,2a,59,1,19,
,,,,,,,,,,,,,,,,,,,,,,,,,,images/exp2a_trial_101_colour2_distractors4_l.png,l,1,016,001,2021-04-20_18h36.40.126,searchDisc4,2020.2.10,Win32,60,,,space,0.28041,1,1,0.452315,,0,75,75,329,1,2a,101,2,4,
,,,,,,,,,,,,,,,,,,,,,,,,,,images/exp2b_trial_53_colour3_distractors19_r.png,r,2,016,001,2021-04-20_18h36.40.126,searchDisc4,2020.2.10,Win32,60,,,space,0.296225,2,1,0.58044,,0,76,76,395,1,2b,53,3,19,
,,,,,,,,,,,,,,,,,,,,,,,,,,images/exp1a_trial_88_colour3_distractors1_r.png,r,2,016,001,2021-04-20_18h36.40.126,searchDisc4,2020.2.10,Win32,60,,,space,0.294625,2,1,0.483365,,0,77,77,88,1,1a,88,3,1,
,,,,,,,,,,,,,,,,,,,,,,,,,,images/exp2c_trial_51_colour3_distractors4_r.png,r,2,016,001,2021-04-20_18h36.40.126,searchDisc4,2020.2.10,Win32,60,,,space,0.296085,1,0,0.503935,,0,78,78,507,1,2c,51,3,4,
,,,,,,,,,,,,,,,,,,,,,,,,,,images/exp2a_trial_77_colour1_distractors4_r.png,r,2,016,001,2021-04-20_18h36.40.126,searchDisc4,2020.2.10,Win32,60,,,space,0.362905,2,1,0.563715,,0,79,79,305,1,2a,77,1,4,
,,,,,,,,,,,,,,,,,,,,,,,,,,images/exp2a_trial_84_colour2_distractors9_r.png,r,2,016,001,2021-04-20_18h36.40.126,searchDisc4,2020.2.10,Win32,60,,,space,0.247585,2,1,0.47934,,0,80,80,312,1,2a,84,2,9,
,,,,,,,,,,,,,,,,,,,,,,,,,,images/exp2c_trial_81_colour1_distractors43_r.png,r,2,016,001,2021-04-20_18h36.40.126,searchDisc4,2020.2.10,Win32,60,,,space,0.282175,2,1,0.49104,,0,81,81,537,1,2c,81,1,43,
,,,,,,,,,,,,,,,,,,,,,,,,,,images/exp2a_trial_108_colour3_distractors9_l.png,l,1,016,001,2021-04-20_18h36.40.126,searchDisc4,2020.2.10,Win32,60,,,space,0.30533,1,1,0.61266,,0,82,82,336,1,2a,108,3,9,
,,,,,,,,,,,,,,,,,,,,,,,,,,images/exp1a_trial_40_colour1_distractors9_r.png,r,2,016,001,2021-04-20_18h36.40.126,searchDisc4,2020.2.10,Win32,60,,,space,0.26328,2,1,0.58769,,0,83,83,40,1,1a,40,1,9,
,,,,,,,,,,,,,,,,,,,,,,,,,,images/exp1a_trial_42_colour1_distractors31_r.png,r,2,016,001,2021-04-20_18h36.40.126,searchDisc4,2020.2.10,Win32,60,,,space,0.29394,2,1,0.52681,,0,84,84,42,1,1a,42,1,31,
,,,,,,,,,,,,,,,,,,,,,,,,,,images/exp1b_trial_41_colour1_distractors19_r.png,r,2,016,001,2021-04-20_18h36.40.126,searchDisc4,2020.2.10,Win32,60,,,space,0.34595,2,1,0.57973,,0,85,85,155,1,1b,41,1,19,
,,,,,,,,,,,,,,,,,,,,,,,,,,images/exp2b_trial_4_colour1_distractors31_r.png,r,2,016,001,2021-04-20_18h36.40.126,searchDisc4,2020.2.10,Win32,60,,,space,0.327335,2,1,0.5758,,0,86,86,346,1,2b,4,1,31,
,,,,,,,,,,,,,,,,,,,,,,,,,,images/exp2a_trial_8_colour2_distractors9_r.png,r,2,016,001,2021-04-20_18h36.40.126,searchDisc4,2020.2.10,Win32,60,,,space,0.344575,2,1,0.510955,,0,87,87,236,1,2a,8,2,9,
,,,,,,,,,,,,,,,,,,,,,,,,,,images/exp2b_trial_23_colour1_distractors43_l.png,l,1,016,001,2021-04-20_18h36.40.126,searchDisc4,2020.2.10,Win32,60,,,space,0.353175,1,1,0.59162,,0,88,88,365,1,2b,23,1,43,
,,,,,,,,,,,,,,,,,,,,,,,,,,images/exp2c_trial_20_colour1_distractors9_l.png,l,1,016,001,2021-04-20_18h36.40.126,searchDisc4,2020.2.10,Win32,60,,,space,0.28238,1,1,0.76827,,0,89,89,476,1,2c,20,1,9,
,,,,,,,,,,,,,,,,,,,,,,,,,,images/exp1a_trial_65_colour2_distractors19_l.png,l,1,016,001,2021-04-20_18h36.40.126,searchDisc4,2020.2.10,Win32,60,,,space,0.31844,1,1,0.46687,,0,90,90,65,1,1a,65,2,19,
,,,,,,,,,,,,,,,,,,,,,,,,,,images/exp2c_trial_102_colour2_distractors9_l.png,l,1,016,001,2021-04-20_18h36.40.126,searchDisc4,2020.2.10,Win32,60,,,space,0.348615,1,1,0.482655,,0,91,91,558,1,2c,102,2,9,
,,,,,,,,,,,,,,,,,,,,,,,,,,images/exp1a_trial_103_colour2_distractors19_l.png,l,1,016,001,2021-04-20_18h36.40.126,searchDisc4,2020.2.10,Win32,60,,,space,0.328265,1,1,0.63837,,0,92,92,103,1,1a,103,2,19,
,,,,,,,,,,,,,,,,,,,,,,,,,,images/exp2c_trial_0_colour1_distractors1_r.png,r,2,016,001,2021-04-20_18h36.40.126,searchDisc4,2020.2.10,Win32,60,,,space,0.346015,2,1,0.64271,,0,93,93,456,1,2c,0,1,1,
,,,,,,,,,,,,,,,,,,,,,,,,,,images/exp2c_trial_38_colour1_distractors1_r.png,r,2,016,001,2021-04-20_18h36.40.126,searchDisc4,2020.2.10,Win32,60,,,space,0.30589,2,1,0.51008,,0,94,94,494,1,2c,38,1,1,
,,,,,,,,,,,,,,,,,,,,,,,,,,images/exp2b_trial_80_colour1_distractors31_r.png,r,2,016,001,2021-04-20_18h36.40.126,searchDisc4,2020.2.10,Win32,60,,,space,0.405735,2,1,0.52484,,0,95,95,422,1,2b,80,1,31,
,,,,,,,,,,,,,,,,,,,,,,,,,,images/exp1a_trial_43_colour1_distractors43_r.png,r,2,016,001,2021-04-20_18h36.40.126,searchDisc4,2020.2.10,Win32,60,,,space,0.335435,2,1,0.91732,,0,96,96,43,1,1a,43,1,43,
,,,,,,,,,,,,,,,,,,,,,,,,,,images/exp2a_trial_113_colour0_distractors0_l.png,l,1,016,001,2021-04-20_18h36.40.126,searchDisc4,2020.2.10,Win32,60,,,space,0.37225,1,1,0.663775,,0,97,97,341,1,2a,113,0,0,
,,,,,,,,,,,,,,,,,,,,,,,,,,images/exp1b_trial_59_colour1_distractors19_l.png,l,1,016,001,2021-04-20_18h36.40.126,searchDisc4,2020.2.10,Win32,60,,,space,0.349635,1,1,0.50079,,0,98,98,173,1,1b,59,1,19,
,,,,,,,,,,,,,,,,,,,,,,,,,,images/exp2a_trial_47_colour2_distractors19_r.png,r,2,016,001,2021-04-20_18h36.40.126,searchDisc4,2020.2.10,Win32,60,,,space,0.313505,1,0,0.45772,,0,99,99,275,1,2a,47,2,19,
,,,,,,,,,,,,,,,,,,,,,,,,,,images/exp2a_trial_75_colour0_distractors0_l.png,l,1,016,001,2021-04-20_18h36.40.126,searchDisc4,2020.2.10,Win32,60,,,space,0.613255,1,1,0.51569,,0,100,100,303,1,2a,75,0,0,
,,,,,,,,,,,,,,,,,,,,,,,,,,images/exp2c_trial_59_colour1_distractors19_l.png,l,1,016,001,2021-04-20_18h36.40.126,searchDisc4,2020.2.10,Win32,60,,,space,0.304065,1,1,0.521245,,0,101,101,515,1,2c,59,1,19,
,,,,,,,,,,,,,,,,,,,,,,,,,,images/exp1b_trial_65_colour2_distractors19_l.png,l,1,016,001,2021-04-20_18h36.40.126,searchDisc4,2020.2.10,Win32,60,,,space,0.314055,1,1,0.63161,,0,102,102,179,1,1b,65,2,19,
,,,,,,,,,,,,,,,,,,,,,,,,,,images/exp2a_trial_105_colour2_distractors43_l.png,l,1,016,001,2021-04-20_18h36.40.126,searchDisc4,2020.2.10,Win32,60,,,space,0.2993,1,1,0.60256,,0,103,103,333,1,2a,105,2,43,
,,,,,,,,,,,,,,,,,,,,,,,,,,images/exp1a_trial_45_colour2_distractors4_r.png,r,2,016,001,2021-04-20_18h36.40.126,searchDisc4,2020.2.10,Win32,60,,,space,0.314815,2,1,0.65071,,0,104,104,45,1,1a,45,2,4,
,,,,,,,,,,,,,,,,,,,,,,,,,,images/exp2a_trial_21_colour1_distractors19_l.png,l,1,016,001,2021-04-20_18h36.40.126,searchDisc4,2020.2.10,Win32,60,,,space,0.283665,1,1,0.56591,,0,105,105,249,1,2a,21,1,19,
,,,,,,,,,,,,,,,,,,,,,,,,,,images/exp1b_trial_105_colour2_distractors43_l.png,l,1,016,001,2021-04-20_18h36.40.126,searchDisc4,2020.2.10,Win32,60,,,space,0.30443,1,1,1.16911,,0,106,106,219,1,1b,105,2,43,
,,,,,,,,,,,,,,,,,,,,,,,,,,images/exp2a_trial_58_colour1_distractors9_l.png,l,1,016,001,2021-04-20_18h36.40.126,searchDisc4,2020.2.10,Win32,60,,,space,0.266975,1,1,0.61482,,0,107,107,286,1,2a,58,1,9,
,,,,,,,,,,,,,,,,,,,,,,,,,,images/exp2a_trial_102_colour2_distractors9_l.png,l,1,016,001,2021-04-20_18h36.40.126,searchDisc4,2020.2.10,Win32,60,,,space,0.28028,1,1,0.54175,,0,108,108,330,1,2a,102,2,9,
,,,,,,,,,,,,,,,,,,,,,,,,,,images/exp2c_trial_58_colour1_distractors9_l.png,l,1,016,001,2021-04-20_18h36.40.126,searchDisc4,2020.2.10,Win32,60,,,space,0.30664,1,1,0.597945,,0,109,109,514,1,2c,58,1,9,
,,,,,,,,,,,,,,,,,,,,,,,,,,images/exp2a_trial_35_colour3_distractors43_l.png,l,1,016,001,2021-04-20_18h36.40.126,searchDisc4,2020.2.10,Win32,60,,,space,0.54814,1,1,0.670715,,0,110,110,263,1,2a,35,3,43,
,,,,,,,,,,,,,,,,,,,,,,,,,,images/exp1a_trial_61_colour1_distractors43_l.png,l,1,016,001,2021-04-20_18h36.40.126,searchDisc4,2020.2.10,Win32,60,,,space,0.53297,1,1,0.61804,,0,111,111,61,1,1a,61,1,43,
,,,,,,,,,,,,,,,,,,,,,,,,,,images/exp1a_trial_110_colour3_distractors31_l.png,l,1,016,001,2021-04-20_18h36.40.126,searchDisc4,2020.2.10,Win32,60,,,space,0.251535,1,1,0.51318,,0,112,112,110,1,1a,110,3,31,
,,,,,,,,,,,,,,,,,,,,,,,,,,images/exp2a_trial_1_colour1_distractors4_r.png,r,2,016,001,2021-04-20_18h36.40.126,searchDisc4,2020.2.10,Win32,60,,,space,0.802695,2,1,0.44386,,0,113,113,229,1,2a,1,1,4,
,,,,,,,,,,,,,,,,,,,,,,,,,,images/exp2c_trial_70_colour3_distractors9_l.png,l,1,016,001,2021-04-20_18h36.40.126,searchDisc4,2020.2.10,Win32,60,,,space,0.310695,1,1,0.62479,,0,114,114,526,1,2c,70,3,9,
,,,,,,,,,,,,,,,,,,,,,,,,,,images/exp1a_trial_71_colour3_distractors19_l.png,l,1,016,001,2021-04-20_18h36.40.126,searchDisc4,2020.2.10,Win32,60,,,space,0.85545,1,1,0.634735,,0,115,115,71,1,1a,71,3,19,
,,,,,,,,,,,,,,,,,,,,,,,,,,images/exp1b_trial_101_colour2_distractors4_l.png,l,1,016,001,2021-04-20_18h36.40.126,searchDisc4,2020.2.10,Win32,60,,,space,0.403345,1,1,0.5163,,0,116,116,215,1,1b,101,2,4,
,,,,,,,,,,,,,,,,,,,,,,,,,,images/exp1b_trial_112_colour0_distractors0_r.png,r,2,016,001,2021-04-20_18h36.40.126,searchDisc4,2020.2.10,Win32,60,,,space,0.2785,2,1,0.47356,,0,117,117,226,1,1b,112,0,0,
,,,,,,,,,,,,,,,,,,,,,,,,,,images/exp2a_trial_2_colour1_distractors9_r.png,r,2,016,001,2021-04-20_18h36.40.126,searchDisc4,2020.2.10,Win32,60,,,space,0.2921,2,1,0.58731,,0,118,118,230,1,2a,2,1,9,
,,,,,,,,,,,,,,,,,,,,,,,,,,images/exp2b_trial_22_colour1_distractors31_l.png,l,1,016,001,2021-04-20_18h36.40.126,searchDisc4,2020.2.10,Win32,60,,,space,0.351335,1,1,0.665755,space,0,119,119,364,1,2b,22,1,31,0.27378
,,,,,,,,,,,,,,,,,,,,,,,,,,images/exp2c_trial_31_colour3_distractors4_l.png,l,1,016,001,2021-04-20_18h36.40.126,searchDisc4,2020.2.10,Win32,60,,,space,4.648175,1,1,0.653005,,0,120,120,487,1,2c,31,3,4,
,,,,,,,,,,,,,,,,,,,,,,,,,,images/exp1a_trial_14_colour3_distractors9_r.png,r,2,016,001,2021-04-20_18h36.40.126,searchDisc4,2020.2.10,Win32,60,,,space,0.31434,2,1,0.443695,,0,121,121,14,1,1a,14,3,9,
,,,,,,,,,,,,,,,,,,,,,,,,,,images/exp1b_trial_111_colour3_distractors43_l.png,l,1,016,001,2021-04-20_18h36.40.126,searchDisc4,2020.2.10,Win32,60,,,space,0.284955,1,1,1.17902,,0,122,122,225,1,1b,111,3,43,
,,,,,,,,,,,,,,,,,,,,,,,,,,images/exp2a_trial_24_colour2_distractors1_l.png,l,1,016,001,2021-04-20_18h36.40.126,searchDisc4,2020.2.10,Win32,60,,,space,0.283555,1,1,0.472375,,0,123,123,252,1,2a,24,2,1,
,,,,,,,,,,,,,,,,,,,,,,,,,,images/exp1b_trial_86_colour2_distractors31_r.png,r,2,016,001,2021-04-20_18h36.40.126,searchDisc4,2020.2.10,Win32,60,,,space,0.294325,2,1,1.025765,,0,124,124,200,1,1b,86,2,31,
,,,,,,,,,,,,,,,,,,,,,,,,,,images/exp1b_trial_51_colour3_distractors4_r.png,r,2,016,001,2021-04-20_18h36.40.126,searchDisc4,2020.2.10,Win32,60,,,space,0.260235,2,1,0.87104,,0,125,125,165,1,1b,51,3,4,
,,,,,,,,,,,,,,,,,,,,,,,,,,images/exp1a_trial_62_colour2_distractors1_l.png,l,1,016,001,2021-04-20_18h36.40.126,searchDisc4,2020.2.10,Win32,60,,,space,0.30171,1,1,0.80607,,0,126,126,62,1,1a,62,2,1,
,,,,,,,,,,,,,,,,,,,,,,,,,,images/exp1a_trial_16_colour3_distractors31_r.png,r,2,016,001,2021-04-20_18h36.40.126,searchDisc4,2020.2.10,Win32,60,,,space,0.36781,2,1,0.66262,,0,127,127,16,1,1a,16,3,31,
,,,,,,,,,,,,,,,,,,,,,,,,,,images/exp2b_trial_32_colour3_distractors9_l.png,l,1,016,001,2021-04-20_18h36.40.126,searchDisc4,2020.2.10,Win32,60,,,space,0.31715,1,1,0.70167,,0,128,128,374,1,2b,32,3,9,
,,,,,,,,,,,,,,,,,,,,,,,,,,images/exp2b_trial_111_colour3_distractors43_l.png,l,1,016,001,2021-04-20_18h36.40.126,searchDisc4,2020.2.10,Win32,60,,,space,0.283435,1,1,0.624865,,0,129,129,453,1,2b,111,3,43,
,,,,,,,,,,,,,,,,,,,,,,,,,,images/exp1b_trial_43_colour1_distractors43_r.png,r,2,016,001,2021-04-20_18h36.40.126,searchDisc4,2020.2.10,Win32,60,,,space,0.278665,2,1,0.753265,,0,130,130,157,1,1b,43,1,43,
,,,,,,,,,,,,,,,,,,,,,,,,,,images/exp1a_trial_99_colour1_distractors43_l.png,l,1,016,001,2021-04-20_18h36.40.126,searchDisc4,2020.2.10,Win32,60,,,space,0.322755,1,1,0.853205,,0,131,131,99,1,1a,99,1,43,
,,,,,,,,,,,,,,,,,,,,,,,,,,images/exp2a_trial_62_colour2_distractors1_l.png,l,1,016,001,2021-04-20_18h36.40.126,searchDisc4,2020.2.10,Win32,60,,,space,0.300525,1,1,0.491315,,0,132,132,290,1,2a,62,2,1,
,,,,,,,,,,,,,,,,,,,,,,,,,,images/exp1a_trial_78_colour1_distractors9_r.png,r,2,016,001,2021-04-20_18h36.40.126,searchDisc4,2020.2.10,Win32,60,,,space,0.28802,2,1,0.55909,,0,133,133,78,1,1a,78,1,9,
,,,,,,,,,,,,,,,,,,,,,,,,,,images/exp2b_trial_38_colour1_distractors1_r.png,r,2,016,001,2021-04-20_18h36.40.126,searchDisc4,2020.2.10,Win32,60,,,space,0.30107,2,1,0.450265,,0,134,134,380,1,2b,38,1,1,
,,,,,,,,,,,,,,,,,,,,,,,,,,images/exp2a_trial_97_colour1_distractors19_l.png,l,1,016,001,2021-04-20_18h36.40.126,searchDisc4,2020.2.10,Win32,60,,,space,0.343545,1,1,0.49556,,0,135,135,325,1,2a,97,1,19,
,,,,,,,,,,,,,,,,,,,,,,,,,,images/exp2b_trial_47_colour2_distractors19_r.png,r,2,016,001,2021-04-20_18h36.40.126,searchDisc4,2020.2.10,Win32,60,,,space,0.25787,2,1,0.51381,,0,136,136,389,1,2b,47,2,19,
,,,,,,,,,,,,,,,,,,,,,,,,,,images/exp2c_trial_113_colour0_distractors0_l.png,l,1,016,001,2021-04-20_18h36.40.126,searchDisc4,2020.2.10,Win32,60,,,space,0.29573,1,1,0.44562,,0,137,137,569,1,2c,113,0,0,
,,,,,,,,,,,,,,,,,,,,,,,,,,images/exp1a_trial_112_colour0_distractors0_r.png,r,2,016,001,2021-04-20_18h36.40.126,searchDisc4,2020.2.10,Win32,60,,,space,0.25229,2,1,0.54545,,0,138,138,112,1,1a,112,0,0,
,,,,,,,,,,,,,,,,,,,,,,,,,,images/exp1a_trial_66_colour2_distractors31_l.png,l,1,016,001,2021-04-20_18h36.40.126,searchDisc4,2020.2.10,Win32,60,,,space,0.279315,1,1,0.78447,,0,139,139,66,1,1a,66,2,31,
,,,,,,,,,,,,,,,,,,,,,,,,,,images/exp2c_trial_1_colour1_distractors4_r.png,r,2,016,001,2021-04-20_18h36.40.126,searchDisc4,2020.2.10,Win32,60,,,space,0.223195,2,1,0.538,,0,140,140,457,1,2c,1,1,4,
,,,,,,,,,,,,,,,,,,,,,,,,,,images/exp1b_trial_34_colour3_distractors31_l.png,l,1,016,001,2021-04-20_18h36.40.126,searchDisc4,2020.2.10,Win32,60,,,space,0.296135,1,1,0.49579,,0,141,141,148,1,1b,34,3,31,
,,,,,,,,,,,,,,,,,,,,,,,,,,images/exp2a_trial_23_colour1_distractors43_l.png,l,1,016,001,2021-04-20_18h36.40.126,searchDisc4,2020.2.10,Win32,60,,,space,0.283105,1,1,0.501465,,0,142,142,251,1,2a,23,1,43,
,,,,,,,,,,,,,,,,,,,,,,,,,,images/exp1b_trial_108_colour3_distractors9_l.png,l,1,016,001,2021-04-20_18h36.40.126,searchDisc4,2020.2.10,Win32,60,,,space,0.299905,1,1,0.554575,,0,143,143,222,1,1b,108,3,9,
,,,,,,,,,,,,,,,,,,,,,,,,,,images/exp1b_trial_88_colour3_distractors1_r.png,r,2,016,001,2021-04-20_18h36.40.126,searchDisc4,2020.2.10,Win32,60,,,space,0.284995,2,1,0.65572,,0,144,144,202,1,1b,88,3,1,
,,,,,,,,,,,,,,,,,,,,,,,,,,images/exp1b_trial_75_colour0_distractors0_l.png,l,1,016,001,2021-04-20_18h36.40.126,searchDisc4,2020.2.10,Win32,60,,,space,0.284645,1,1,0.706695,,0,145,145,189,1,1b,75,0,0,
,,,,,,,,,,,,,,,,,,,,,,,,,,images/exp2c_trial_39_colour1_distractors4_r.png,r,2,016,001,2021-04-20_18h36.40.126,searchDisc4,2020.2.10,Win32,60,,,space,0.251765,2,1,0.52659,,0,146,146,495,1,2c,39,1,4,
,,,,,,,,,,,,,,,,,,,,,,,,,,images/exp2c_trial_69_colour3_distractors4_l.png,l,1,016,001,2021-04-20_18h36.40.126,searchDisc4,2020.2.10,Win32,60,,,space,0.254665,1,1,0.48041,,0,147,147,525,1,2c,69,3,4,
,,,,,,,,,,,,,,,,,,,,,,,,,,images/exp1b_trial_13_colour3_distractors4_r.png,r,2,016,001,2021-04-20_18h36.40.126,searchDisc4,2020.2.10,Win32,60,,,space,0.295055,2,1,0.551425,,0,148,148,127,1,1b,13,3,4,
,,,,,,,,,,,,,,,,,,,,,,,,,,images/exp1b_trial_113_colour0_distractors0_l.png,l,1,016,001,2021-04-20_18h36.40.126,searchDisc4,2020.2.10,Win32,60,,,space,0.270955,1,1,0.43294,,0,149,149,227,1,1b,113,0,0,
,,,,,,,,,,,,,,,,,,,,,,,,,,images/exp2b_trial_45_colour2_distractors4_r.png,r,2,016,001,2021-04-20_18h36.40.126,searchDisc4,2020.2.10,Win32,60,,,space,0.33529,2,1,0.497515,,0,150,150,387,1,2b,45,2,4,
,,,,,,,,,,,,,,,,,,,,,,,,,,images/exp1b_trial_17_colour3_distractors43_r.png,r,2,016,001,2021-04-20_18h36.40.126,searchDisc4,2020.2.10,Win32,60,,,space,0.25623,2,1,1.83485,,0,151,151,131,1,1b,17,3,43,
,,,,,,,,,,,,,,,,,,,,,,,,,,images/exp2a_trial_52_colour3_distractors9_r.png,r,2,016,001,2021-04-20_18h36.40.126,searchDisc4,2020.2.10,Win32,60,,,space,0.29357,2,1,0.494185,,0,152,152,280,1,2a,52,3,9,
,,,,,,,,,,,,,,,,,,,,,,,,,,images/exp1a_trial_54_colour3_distractors31_r.png,r,2,016,001,2021-04-20_18h36.40.126,searchDisc4,2020.2.10,Win32,60,,,space,0.33755,2,1,0.514165,,0,153,153,54,1,1a,54,3,31,
,,,,,,,,,,,,,,,,,,,,,,,,,,images/exp2a_trial_50_colour3_distractors1_r.png,r,2,016,001,2021-04-20_18h36.40.126,searchDisc4,2020.2.10,Win32,60,,,space,0.31865,2,1,0.518945,,0,154,154,278,1,2a,50,3,1,
,,,,,,,,,,,,,,,,,,,,,,,,,,images/exp2b_trial_84_colour2_distractors9_r.png,r,2,016,001,2021-04-20_18h36.40.126,searchDisc4,2020.2.10,Win32,60,,,space,0.33498,2,1,0.50142,,0,155,155,426,1,2b,84,2,9,
,,,,,,,,,,,,,,,,,,,,,,,,,,images/exp2b_trial_99_colour1_distractors43_l.png,l,1,016,001,2021-04-20_18h36.40.126,searchDisc4,2020.2.10,Win32,60,,,space,0.30089,1,1,0.517315,,0,156,156,441,1,2b,99,1,43,
,,,,,,,,,,,,,,,,,,,,,,,,,,images/exp2a_trial_60_colour1_distractors31_l.png,l,1,016,001,2021-04-20_18h36.40.126,searchDisc4,2020.2.10,Win32,60,,,space,0.248385,1,1,0.779475,,0,157,157,288,1,2a,60,1,31,
,,,,,,,,,,,,,,,,,,,,,,,,,,images/exp2b_trial_51_colour3_distractors4_r.png,r,2,016,001,2021-04-20_18h36.40.126,searchDisc4,2020.2.10,Win32,60,,,space,0.285625,2,1,0.5306,,0,158,158,393,1,2b,51,3,4,
,,,,,,,,,,,,,,,,,,,,,,,,,,images/exp1b_trial_92_colour3_distractors31_r.png,r,2,016,001,2021-04-20_18h36.40.126,searchDisc4,2020.2.10,Win32,60,,,space,0.309225,2,1,1.699875,,0,159,159,206,1,1b,92,3,31,
,,,,,,,,,,,,,,,,,,,,,,,,,,images/exp2b_trial_37_colour0_distractors0_l.png,l,1,016,001,2021-04-20_18h36.40.126,searchDisc4,2020.2.10,Win32,60,,,space,0.287085,1,1,0.534165,,0,160,160,379,1,2b,37,0,0,
,,,,,,,,,,,,,,,,,,,,,,,,,,images/exp2b_trial_49_colour2_distractors43_r.png,r,2,016,001,2021-04-20_18h36.40.126,searchDisc4,2020.2.10,Win32,60,,,space,0.38678,2,1,0.79497,,0,161,161,391,1,2b,49,2,43,
,,,,,,,,,,,,,,,,,,,,,,,,,,images/exp2a_trial_12_colour3_distractors1_r.png,r,2,016,001,2021-04-20_18h36.40.126,searchDisc4,2020.2.10,Win32,60,,,space,0.27463,1,0,0.53548,,0,162,162,240,1,2a,12,3,1,
,,,,,,,,,,,,,,,,,,,,,,,,,,images/exp1b_trial_106_colour3_distractors1_l.png,l,1,016,001,2021-04-20_18h36.40.126,searchDisc4,2020.2.10,Win32,60,,,space,0.446735,1,1,0.553265,,0,163,163,220,1,1b,106,3,1,
,,,,,,,,,,,,,,,,,,,,,,,,,,images/exp1b_trial_63_colour2_distractors4_l.png,l,1,016,001,2021-04-20_18h36.40.126,searchDisc4,2020.2.10,Win32,60,,,space,0.25614,1,1,0.563145,,0,164,164,177,1,1b,63,2,4,
,,,,,,,,,,,,,,,,,,,,,,,,,,images/exp2c_trial_21_colour1_distractors19_l.png,l,1,016,001,2021-04-20_18h36.40.126,searchDisc4,2020.2.10,Win32,60,,,space,0.28781,1,1,0.52598,,0,165,165,477,1,2c,21,1,19,
,,,,,,,,,,,,,,,,,,,,,,,,,,images/exp2c_trial_6_colour2_distractors1_r.png,r,2,016,001,2021-04-20_18h36.40.126,searchDisc4,2020.2.10,Win32,60,,,space,0.296625,2,1,0.437345,,0,166,166,462,1,2c,6,2,1,
,,,,,,,,,,,,,,,,,,,,,,,,,,images/exp2b_trial_26_colour2_distractors9_l.png,l,1,016,001,2021-04-20_18h36.40.126,searchDisc4,2020.2.10,Win32,60,,,space,0.294775,1,1,0.509425,,0,167,167,368,1,2b,26,2,9,
,,,,,,,,,,,,,,,,,,,,,,,,,,images/exp2b_trial_2_colour1_distractors9_r.png,r,2,016,001,2021-04-20_18h36.40.126,searchDisc4,2020.2.10,Win32,60,,,space,0.289805,2,1,0.485005,,0,168,168,344,1,2b,2,1,9,
,,,,,,,,,,,,,,,,,,,,,,,,,,images/exp2a_trial_85_colour2_distractors19_r.png,r,2,016,001,2021-04-20_18h36.40.126,searchDisc4,2020.2.10,Win32,60,,,space,0.28553,2,1,0.589055,,0,169,169,313,1,2a,85,2,19,
,,,,,,,,,,,,,,,,,,,,,,,,,,images/exp2b_trial_62_colour2_distractors1_l.png,l,1,016,001,2021-04-20_18h36.40.126,searchDisc4,2020.2.10,Win32,60,,,space,0.30157,1,1,0.473305,,0,170,170,404,1,2b,62,2,1,
,,,,,,,,,,,,,,,,,,,,,,,,,,images/exp2b_trial_41_colour1_distractors19_r.png,r,2,016,001,2021-04-20_18h36.40.126,searchDisc4,2020.2.10,Win32,60,,,space,0.25437,2,1,0.436705,,0,171,171,383,1,2b,41,1,19,
,,,,,,,,,,,,,,,,,,,,,,,,,,images/exp2b_trial_63_colour2_distractors4_l.png,l,1,016,001,2021-04-20_18h36.40.126,searchDisc4,2020.2.10,Win32,60,,,space,0.301235,1,1,0.56427,,0,172,172,405,1,2b,63,2,4,
,,,,,,,,,,,,,,,,,,,,,,,,,,images/exp1a_trial_26_colour2_distractors9_l.png,l,1,016,001,2021-04-20_18h36.40.126,searchDisc4,2020.2.10,Win32,60,,,space,0.266335,1,1,1.30997,,0,173,173,26,1,1a,26,2,9,
,,,,,,,,,,,,,,,,,,,,,,,,,,images/exp2a_trial_103_colour2_distractors19_l.png,l,1,016,001,2021-04-20_18h36.40.126,searchDisc4,2020.2.10,Win32,60,,,space,0.269065,1,1,0.50259,,0,174,174,331,1,2a,103,2,19,
,,,,,,,,,,,,,,,,,,,,,,,,,,images/exp2a_trial_63_colour2_distractors4_l.png,l,1,016,001,2021-04-20_18h36.40.126,searchDisc4,2020.2.10,Win32,60,,,space,0.24869,1,1,0.593395,,0,175,175,291,1,2a,63,2,4,
,,,,,,,,,,,,,,,,,,,,,,,,,,images/exp2a_trial_45_colour2_distractors4_r.png,r,2,016,001,2021-04-20_18h36.40.126,searchDisc4,2020.2.10,Win32,60,,,space,0.27015,2,1,0.57768,,0,176,176,273,1,2a,45,2,4,
,,,,,,,,,,,,,,,,,,,,,,,,,,images/exp1b_trial_3_colour1_distractors19_r.png,r,2,016,001,2021-04-20_18h36.40.126,searchDisc4,2020.2.10,Win32,60,,,space,0.235615,2,1,0.606535,,0,177,177,117,1,1b,3,1,19,
,,,,,,,,,,,,,,,,,,,,,,,,,,images/exp2c_trial_41_colour1_distractors19_r.png,r,2,016,001,2021-04-20_18h36.40.126,searchDisc4,2020.2.10,Win32,60,,,space,0.299255,2,1,0.540915,,0,178,178,497,1,2c,41,1,19,
,,,,,,,,,,,,,,,,,,,,,,,,,,images/exp1a_trial_86_colour2_distractors31_r.png,r,2,016,001,2021-04-20_18h36.40.126,searchDisc4,2020.2.10,Win32,60,,,space,0.310765,2,1,0.481845,space,0,179,179,86,1,1a,86,2,31,0.2782
,,,,,,,,,,,,,,,,,,,,,,,,,,images/exp1a_trial_25_colour2_distractors4_l.png,l,1,016,001,2021-04-20_18h36.40.126,searchDisc4,2020.2.10,Win32,60,,,space,10.13123,1,1,0.484985,,0,180,180,25,1,1a,25,2,4,
,,,,,,,,,,,,,,,,,,,,,,,,,,images/exp1b_trial_52_colour3_distractors9_r.png,r,2,016,001,2021-04-20_18h36.40.126,searchDisc4,2020.2.10,Win32,60,,,space,0.28138,2,1,0.906835,,0,181,181,166,1,1b,52,3,9,
,,,,,,,,,,,,,,,,,,,,,,,,,,images/exp1a_trial_109_colour3_distractors19_l.png,l,1,016,001,2021-04-20_18h36.40.126,searchDisc4,2020.2.10,Win32,60,,,space,0.267185,1,1,0.564705,,0,182,182,109,1,1a,109,3,19,
,,,,,,,,,,,,,,,,,,,,,,,,,,images/exp2c_trial_5_colour1_distractors43_r.png,r,2,016,001,2021-04-20_18h36.40.126,searchDisc4,2020.2.10,Win32,60,,,space,0.22564,2,1,0.68844,,0,183,183,461,1,2c,5,1,43,
,,,,,,,,,,,,,,,,,,,,,,,,,,images/exp1a_trial_38_colour1_distractors1_r.png,r,2,016,001,2021-04-20_18h36.40.126,searchDisc4,2020.2.10,Win32,60,,,space,0.26787,2,1,0.583085,,0,184,184,38,1,1a,38,1,1,
,,,,,,,,,,,,,,,,,,,,,,,,,,images/exp2a_trial_17_colour3_distractors43_r.png,r,2,016,001,2021-04-20_18h36.40.126,searchDisc4,2020.2.10,Win32,60,,,space,0.37637,2,1,0.547415,,0,185,185,245,1,2a,17,3,43,
,,,,,,,,,,,,,,,,,,,,,,,,,,images/exp1a_trial_8_colour2_distractors9_r.png,r,2,016,001,2021-04-20_18h36.40.126,searchDisc4,2020.2.10,Win32,60,,,space,0.24538,2,1,0.561775,,0,186,186,8,1,1a,8,2,9,
,,,,,,,,,,,,,,,,,,,,,,,,,,images/exp2b_trial_93_colour3_distractors43_r.png,r,2,016,001,2021-04-20_18h36.40.126,searchDisc4,2020.2.10,Win32,60,,,space,0.290755,2,1,0.53009,,0,187,187,435,1,2b,93,3,43,
,,,,,,,,,,,,,,,,,,,,,,,,,,images/exp2a_trial_55_colour3_distractors43_r.png,r,2,016,001,2021-04-20_18h36.40.126,searchDisc4,2020.2.10,Win32,60,,,space,0.31931,2,1,0.52825,,0,188,188,283,1,2a,55,3,43,
,,,,,,,,,,,,,,,,,,,,,,,,,,images/exp2a_trial_74_colour0_distractors0_r.png,r,2,016,001,2021-04-20_18h36.40.126,searchDisc4,2020.2.10,Win32,60,,,space,0.25214,2,1,0.408295,,0,189,189,302,1,2a,74,0,0,
,,,,,,,,,,,,,,,,,,,,,,,,,,images/exp2c_trial_42_colour1_distractors31_r.png,r,2,016,001,2021-04-20_18h36.40.126,searchDisc4,2020.2.10,Win32,60,,,space,0.284765,2,1,0.546,,0,190,190,498,1,2c,42,1,31,
,,,,,,,,,,,,,,,,,,,,,,,,,,images/exp1b_trial_14_colour3_distractors9_r.png,r,2,016,001,2021-04-20_18h36.40.126,searchDisc4,2020.2.10,Win32,60,,,space,0.25407,2,1,0.684455,,0,191,191,128,1,1b,14,3,9,
,,,,,,,,,,,,,,,,,,,,,,,,,,images/exp2c_trial_34_colour3_distractors31_l.png,l,1,016,001,2021-04-20_18h36.40.126,searchDisc4,2020.2.10,Win32,60,,,space,0.252085,2,0,0.612115,,0,192,192,490,1,2c,34,3,31,
,,,,,,,,,,,,,,,,,,,,,,,,,,images/exp2b_trial_10_colour2_distractors31_r.png,r,2,016,001,2021-04-20_18h36.40.126,searchDisc4,2020.2.10,Win32,60,,,space,0.43965,2,1,0.52605,,0,193,193,352,1,2b,10,2,31,
,,,,,,,,,,,,,,,,,,,,,,,,,,images/exp2b_trial_5_colour1_distractors43_r.png,r,2,016,001,2021-04-20_18h36.40.126,searchDisc4,2020.2.10,Win32,60,,,space,0.227085,2,1,0.504445,,0,194,194,347,1,2b,5,1,43,
,,,,,,,,,,,,,,,,,,,,,,,,,,images/exp1a_trial_60_colour1_distractors31_l.png,l,1,016,001,2021-04-20_18h36.40.126,searchDisc4,2020.2.10,Win32,60,,,space,0.243465,1,1,0.49914,,0,195,195,60,1,1a,60,1,31,
,,,,,,,,,,,,,,,,,,,,,,,,,,images/exp2a_trial_91_colour3_distractors19_r.png,r,2,016,001,2021-04-20_18h36.40.126,searchDisc4,2020.2.10,Win32,60,,,space,0.214945,2,1,0.474195,,0,196,196,319,1,2a,91,3,19,
,,,,,,,,,,,,,,,,,,,,,,,,,,images/exp2a_trial_44_colour2_distractors1_r.png,r,2,016,001,2021-04-20_18h36.40.126,searchDisc4,2020.2.10,Win32,60,,,space,0.26387,2,1,0.66811,,0,197,197,272,1,2a,44,2,1,
,,,,,,,,,,,,,,,,,,,,,,,,,,images/exp2c_trial_101_colour2_distractors4_l.png,l,1,016,001,2021-04-20_18h36.40.126,searchDisc4,2020.2.10,Win32,60,,,space,0.213895,1,1,0.709415,,0,198,198,557,1,2c,101,2,4,
,,,,,,,,,,,,,,,,,,,,,,,,,,images/exp2a_trial_31_colour3_distractors4_l.png,l,1,016,001,2021-04-20_18h36.40.126,searchDisc4,2020.2.10,Win32,60,,,space,0.162645,1,1,0.5147,,0,199,199,259,1,2a,31,3,4,
,,,,,,,,,,,,,,,,,,,,,,,,,,images/exp2c_trial_86_colour2_distractors31_r.png,r,2,016,001,2021-04-20_18h36.40.126,searchDisc4,2020.2.10,Win32,60,,,space,0.27338,2,1,0.497315,,0,200,200,542,1,2c,86,2,31,
,,,,,,,,,,,,,,,,,,,,,,,,,,images/exp1b_trial_103_colour2_distractors19_l.png,l,1,016,001,2021-04-20_18h36.40.126,searchDisc4,2020.2.10,Win32,60,,,space,0.23209,1,1,0.94729,,0,201,201,217,1,1b,103,2,19,
,,,,,,,,,,,,,,,,,,,,,,,,,,images/exp2b_trial_87_colour2_distractors43_r.png,r,2,016,001,2021-04-20_18h36.40.126,searchDisc4,2020.2.10,Win32,60,,,space,0.23743,2,1,0.6135,,0,202,202,429,1,2b,87,2,43,
,,,,,,,,,,,,,,,,,,,,,,,,,,images/exp1a_trial_50_colour3_distractors1_r.png,r,2,016,001,2021-04-20_18h36.40.126,searchDisc4,2020.2.10,Win32,60,,,space,0.207515,2,1,0.913085,,0,203,203,50,1,1a,50,3,1,
,,,,,,,,,,,,,,,,,,,,,,,,,,images/exp2a_trial_87_colour2_distractors43_r.png,r,2,016,001,2021-04-20_18h36.40.126,searchDisc4,2020.2.10,Win32,60,,,space,0.203465,2,1,0.480365,,0,204,204,315,1,2a,87,2,43,
,,,,,,,,,,,,,,,,,,,,,,,,,,images/exp2a_trial_22_colour1_distractors31_l.png,l,1,016,001,2021-04-20_18h36.40.126,searchDisc4,2020.2.10,Win32,60,,,space,0.281755,1,1,0.76695,,0,205,205,250,1,2a,22,1,31,
,,,,,,,,,,,,,,,,,,,,,,,,,,images/exp2b_trial_92_colour3_distractors31_r.png,r,2,016,001,2021-04-20_18h36.40.126,searchDisc4,2020.2.10,Win32,60,,,space,0.1986,2,1,0.553485,,0,206,206,434,1,2b,92,3,31,
,,,,,,,,,,,,,,,,,,,,,,,,,,images/exp2b_trial_34_colour3_distractors31_l.png,l,1,016,001,2021-04-20_18h36.40.126,searchDisc4,2020.2.10,Win32,60,,,space,0.24553,1,1,0.59737,,0,207,207,376,1,2b,34,3,31,
,,,,,,,,,,,,,,,,,,,,,,,,,,images/exp2b_trial_66_colour2_distractors31_l.png,l,1,016,001,2021-04-20_18h36.40.126,searchDisc4,2020.2.10,Win32,60,,,space,0.213485,1,1,0.632005,,0,208,208,408,1,2b,66,2,31,
,,,,,,,,,,,,,,,,,,,,,,,,,,images/exp1a_trial_27_colour2_distractors19_l.png,l,1,016,001,2021-04-20_18h36.40.126,searchDisc4,2020.2.10,Win32,60,,,space,0.317535,1,1,0.55011,,0,209,209,27,1,1a,27,2,19,
,,,,,,,,,,,,,,,,,,,,,,,,,,images/exp1a_trial_67_colour2_distractors43_l.png,l,1,016,001,2021-04-20_18h36.40.126,searchDisc4,2020.2.10,Win32,60,,,space,0.28412,1,1,0.8113,,0,210,210,67,1,1a,67,2,43,
,,,,,,,,,,,,,,,,,,,,,,,,,,images/exp2b_trial_68_colour3_distractors1_l.png,l,1,016,001,2021-04-20_18h36.40.126,searchDisc4,2020.2.10,Win32,60,,,space,0.268095,1,1,0.49766,,0,211,211,410,1,2b,68,3,1,
,,,,,,,,,,,,,,,,,,,,,,,,,,images/exp2c_trial_64_colour2_distractors9_l.png,l,1,016,001,2021-04-20_18h36.40.126,searchDisc4,2020.2.10,Win32,60,,,space,0.29829,1,1,0.430565,,0,212,212,520,1,2c,64,2,9,
,,,,,,,,,,,,,,,,,,,,,,,,,,images/exp2a_trial_46_colour2_distractors9_r.png,r,2,016,001,2021-04-20_18h36.40.126,searchDisc4,2020.2.10,Win32,60,,,space,0.27598,2,1,0.68705,,0,213,213,274,1,2a,46,2,9,
,,,,,,,,,,,,,,,,,,,,,,,,,,images/exp2c_trial_3_colour1_distractors19_r.png,r,2,016,001,2021-04-20_18h36.40.126,searchDisc4,2020.2.10,Win32,60,,,space,0.579785,2,1,0.548115,,0,214,214,459,1,2c,3,1,19,
,,,,,,,,,,,,,,,,,,,,,,,,,,images/exp2b_trial_50_colour3_distractors1_r.png,r,2,016,001,2021-04-20_18h36.40.126,searchDisc4,2020.2.10,Win32,60,,,space,0.270465,2,1,0.479945,,0,215,215,392,1,2b,50,3,1,
,,,,,,,,,,,,,,,,,,,,,,,,,,images/exp1a_trial_96_colour1_distractors9_l.png,l,1,016,001,2021-04-20_18h36.40.126,searchDisc4,2020.2.10,Win32,60,,,space,0.314075,1,1,0.63176,,0,216,216,96,1,1a,96,1,9,
,,,,,,,,,,,,,,,,,,,,,,,,,,images/exp1a_trial_77_colour1_distractors4_r.png,r,2,016,001,2021-04-20_18h36.40.126,searchDisc4,2020.2.10,Win32,60,,,space,0.23468,2,1,0.561215,,0,217,217,77,1,1a,77,1,4,
,,,,,,,,,,,,,,,,,,,,,,,,,,images/exp2b_trial_103_colour2_distractors19_l.png,l,1,016,001,2021-04-20_18h36.40.126,searchDisc4,2020.2.10,Win32,60,,,space,0.252025,1,1,0.48628,,0,218,218,445,1,2b,103,2,19,
,,,,,,,,,,,,,,,,,,,,,,,,,,images/exp1b_trial_37_colour0_distractors0_l.png,l,1,016,001,2021-04-20_18h36.40.126,searchDisc4,2020.2.10,Win32,60,,,space,0.284785,1,1,0.680635,,0,219,219,151,1,1b,37,0,0,
,,,,,,,,,,,,,,,,,,,,,,,,,,images/exp2a_trial_76_colour1_distractors1_r.png,r,2,016,001,2021-04-20_18h36.40.126,searchDisc4,2020.2.10,Win32,60,,,space,0.2362,2,1,0.50503,,0,220,220,304,1,2a,76,1,1,
,,,,,,,,,,,,,,,,,,,,,,,,,,images/exp1b_trial_71_colour3_distractors19_l.png,l,1,016,001,2021-04-20_18h36.40.126,searchDisc4,2020.2.10,Win32,60,,,space,0.24606,1,1,0.655565,,0,221,221,185,1,1b,71,3,19,
,,,,,,,,,,,,,,,,,,,,,,,,,,images/exp1a_trial_49_colour2_distractors43_r.png,r,2,016,001,2021-04-20_18h36.40.126,searchDisc4,2020.2.10,Win32,60,,,space,0.19105,2,1,0.54774,,0,222,222,49,1,1a,49,2,43,
,,,,,,,,,,,,,,,,,,,,,,,,,,images/exp2c_trial_92_colour3_distractors31_r.png,r,2,016,001,2021-04-20_18h36.40.126,searchDisc4,2020.2.10,Win32,60,,,space,0.314255,1,0,0.552235,,0,223,223,548,1,2c,92,3,31,
,,,,,,,,,,,,,,,,,,,,,,,,,,images/exp2c_trial_13_colour3_distractors4_r.png,r,2,016,001,2021-04-20_18h36.40.126,searchDisc4,2020.2.10,Win32,60,,,space,0.3314,2,1,0.5864,,0,224,224,469,1,2c,13,3,4,
,,,,,,,,,,,,,,,,,,,,,,,,,,images/exp2a_trial_100_colour2_distractors1_l.png,l,1,016,001,2021-04-20_18h36.40.126,searchDisc4,2020.2.10,Win32,60,,,space,0.254385,1,1,0.49054,,0,225,225,328,1,2a,100,2,1,
,,,,,,,,,,,,,,,,,,,,,,,,,,images/exp1b_trial_64_colour2_distractors9_l.png,l,1,016,001,2021-04-20_18h36.40.126,searchDisc4,2020.2.10,Win32,60,,,space,0.286475,1,1,0.6644,,0,226,226,178,1,1b,64,2,9,
,,,,,,,,,,,,,,,,,,,,,,,,,,images/exp2c_trial_95_colour1_distractors4_l.png,l,1,016,001,2021-04-20_18h36.40.126,searchDisc4,2020.2.10,Win32,60,,,space,0.239915,1,1,0.442855,,0,227,227,551,1,2c,95,1,4,
,,,,,,,,,,,,,,,,,,,,,,,,,,images/exp2c_trial_77_colour1_distractors4_r.png,r,2,016,001,2021-04-20_18h36.40.126,searchDisc4,2020.2.10,Win32,60,,,space,0.301205,2,1,0.51046,,0,228,228,533,1,2c,77,1,4,
,,,,,,,,,,,,,,,,,,,,,,,,,,images/exp2a_trial_112_colour0_distractors0_r.png,r,2,016,001,2021-04-20_18h36.40.126,searchDisc4,2020.2.10,Win32,60,,,space,0.21689,2,1,0.447565,,0,229,229,340,1,2a,112,0,0,
,,,,,,,,,,,,,,,,,,,,,,,,,,images/exp2a_trial_96_colour1_distractors9_l.png,l,1,016,001,2021-04-20_18h36.40.126,searchDisc4,2020.2.10,Win32,60,,,space,0.27174,1,1,0.4793,,0,230,230,324,1,2a,96,1,9,
,,,,,,,,,,,,,,,,,,,,,,,,,,images/exp2a_trial_18_colour1_distractors1_l.png,l,1,016,001,2021-04-20_18h36.40.126,searchDisc4,2020.2.10,Win32,60,,,space,0.231315,1,1,0.46978,,0,231,231,246,1,2a,18,1,1,
,,,,,,,,,,,,,,,,,,,,,,,,,,images/exp1a_trial_28_colour2_distractors31_l.png,l,1,016,001,2021-04-20_18h36.40.126,searchDisc4,2020.2.10,Win32,60,,,space,0.318765,2,0,0.497865,,0,232,232,28,1,1a,28,2,31,
,,,,,,,,,,,,,,,,,,,,,,,,,,images/exp1a_trial_91_colour3_distractors19_r.png,r,2,016,001,2021-04-20_18h36.40.126,searchDisc4,2020.2.10,Win32,60,,,space,0.571575,2,1,0.520605,,0,233,233,91,1,1a,91,3,19,
,,,,,,,,,,,,,,,,,,,,,,,,,,images/exp1b_trial_94_colour1_distractors1_l.png,l,1,016,001,2021-04-20_18h36.40.126,searchDisc4,2020.2.10,Win32,60,,,space,0.27655,1,1,0.562995,,0,234,234,208,1,1b,94,1,1,
,,,,,,,,,,,,,,,,,,,,,,,,,,images/exp2c_trial_100_colour2_distractors1_l.png,l,1,016,001,2021-04-20_18h36.40.126,searchDisc4,2020.2.10,Win32,60,,,space,0.26086,1,1,0.65025,,0,235,235,556,1,2c,100,2,1,
,,,,,,,,,,,,,,,,,,,,,,,,,,images/exp1a_trial_31_colour3_distractors4_l.png,l,1,016,001,2021-04-20_18h36.40.126,searchDisc4,2020.2.10,Win32,60,,,space,0.267395,1,1,0.562805,,0,236,236,31,1,1a,31,3,4,
,,,,,,,,,,,,,,,,,,,,,,,,,,images/exp1a_trial_63_colour2_distractors4_l.png,l,1,016,001,2021-04-20_18h36.40.126,searchDisc4,2020.2.10,Win32,60,,,space,0.26668,1,1,0.63814,,0,237,237,63,1,1a,63,2,4,
,,,,,,,,,,,,,,,,,,,,,,,,,,images/exp1b_trial_38_colour1_distractors1_r.png,r,2,016,001,2021-04-20_18h36.40.126,searchDisc4,2020.2.10,Win32,60,,,space,0.24568,2,1,0.53402,,0,238,238,152,1,1b,38,1,1,
,,,,,,,,,,,,,,,,,,,,,,,,,,images/exp2b_trial_73_colour3_distractors43_l.png,l,1,016,001,2021-04-20_18h36.40.126,searchDisc4,2020.2.10,Win32,60,,,space,0.20621,1,1,0.64356,space,0,239,239,415,1,2b,73,3,43,0.25741
,,,,,,,,,,,,,,,,,,,,,,,,,,images/exp1a_trial_70_colour3_distractors9_l.png,l,1,016,001,2021-04-20_18h36.40.126,searchDisc4,2020.2.10,Win32,60,,,space,4.57907,1,1,0.647235,,0,240,240,70,1,1a,70,3,9,
,,,,,,,,,,,,,,,,,,,,,,,,,,images/exp2a_trial_64_colour2_distractors9_l.png,l,1,016,001,2021-04-20_18h36.40.126,searchDisc4,2020.2.10,Win32,60,,,space,0.235155,1,1,0.44123,,0,241,241,292,1,2a,64,2,9,
,,,,,,,,,,,,,,,,,,,,,,,,,,images/exp2a_trial_26_colour2_distractors9_l.png,l,1,016,001,2021-04-20_18h36.40.126,searchDisc4,2020.2.10,Win32,60,,,space,0.257155,1,1,0.4785,,0,242,242,254,1,2a,26,2,9,
,,,,,,,,,,,,,,,,,,,,,,,,,,images/exp1a_trial_97_colour1_distractors19_l.png,l,1,016,001,2021-04-20_18h36.40.126,searchDisc4,2020.2.10,Win32,60,,,space,0.27896,1,1,0.473115,,0,243,243,97,1,1a,97,1,19,
,,,,,,,,,,,,,,,,,,,,,,,,,,images/exp1b_trial_47_colour2_distractors19_r.png,r,2,016,001,2021-04-20_18h36.40.126,searchDisc4,2020.2.10,Win32,60,,,space,0.267025,2,1,0.886345,,0,244,244,161,1,1b,47,2,19,
,,,,,,,,,,,,,,,,,,,,,,,,,,images/exp1b_trial_48_colour2_distractors31_r.png,r,2,016,001,2021-04-20_18h36.40.126,searchDisc4,2020.2.10,Win32,60,,,space,0.21809,2,1,0.588175,,0,245,245,162,1,1b,48,2,31,
,,,,,,,,,,,,,,,,,,,,,,,,,,images/exp2a_trial_110_colour3_distractors31_l.png,l,1,016,001,2021-04-20_18h36.40.126,searchDisc4,2020.2.10,Win32,60,,,space,0.25294,2,0,0.469185,,0,246,246,338,1,2a,110,3,31,
,,,,,,,,,,,,,,,,,,,,,,,,,,images/exp2a_trial_66_colour2_distractors31_l.png,l,1,016,001,2021-04-20_18h36.40.126,searchDisc4,2020.2.10,Win32,60,,,space,0.382875,1,1,0.531635,,0,247,247,294,1,2a,66,2,31,
,,,,,,,,,,,,,,,,,,,,,,,,,,images/exp2c_trial_111_colour3_distractors43_l.png,l,1,016,001,2021-04-20_18h36.40.126,searchDisc4,2020.2.10,Win32,60,,,space,0.18652,1,1,0.48524,,0,248,248,567,1,2c,111,3,43,
,,,,,,,,,,,,,,,,,,,,,,,,,,images/exp2c_trial_88_colour3_distractors1_r.png,r,2,016,001,2021-04-20_18h36.40.126,searchDisc4,2020.2.10,Win32,60,,,space,0.235765,2,1,0.54167,,0,249,249,544,1,2c,88,3,1,
,,,,,,,,,,,,,,,,,,,,,,,,,,images/exp2a_trial_11_colour2_distractors43_r.png,r,2,016,001,2021-04-20_18h36.40.126,searchDisc4,2020.2.10,Win32,60,,,space,0.18686,2,1,0.549175,,0,250,250,239,1,2a,11,2,43,
,,,,,,,,,,,,,,,,,,,,,,,,,,images/exp1b_trial_49_colour2_distractors43_r.png,r,2,016,001,2021-04-20_18h36.40.126,searchDisc4,2020.2.10,Win32,60,,,space,0.2416,2,1,0.770735,,0,251,251,163,1,1b,49,2,43,
,,,,,,,,,,,,,,,,,,,,,,,,,,images/exp1a_trial_94_colour1_distractors1_l.png,l,1,016,001,2021-04-20_18h36.40.126,searchDisc4,2020.2.10,Win32,60,,,space,0.277695,1,1,0.624845,,0,252,252,94,1,1a,94,1,1,
,,,,,,,,,,,,,,,,,,,,,,,,,,images/exp1a_trial_80_colour1_distractors31_r.png,r,2,016,001,2021-04-20_18h36.40.126,searchDisc4,2020.2.10,Win32,60,,,space,0.21804,2,1,0.653855,,0,253,253,80,1,1a,80,1,31,
,,,,,,,,,,,,,,,,,,,,,,,,,,images/exp2c_trial_83_colour2_distractors4_r.png,r,2,016,001,2021-04-20_18h36.40.126,searchDisc4,2020.2.10,Win32,60,,,space,0.283705,2,1,0.695435,,0,254,254,539,1,2c,83,2,4,
,,,,,,,,,,,,,,,,,,,,,,,,,,images/exp1b_trial_100_colour2_distractors1_l.png,l,1,016,001,2021-04-20_18h36.40.126,searchDisc4,2020.2.10,Win32,60,,,space,0.376915,1,1,0.49256,,0,255,255,214,1,1b,100,2,1,
,,,,,,,,,,,,,,,,,,,,,,,,,,images/exp1a_trial_93_colour3_distractors43_r.png,r,2,016,001,2021-04-20_18h36.40.126,searchDisc4,2020.2.10,Win32,60,,,space,0.270655,2,1,0.695295,,0,256,256,93,1,1a,93,3,43,
,,,,,,,,,,,,,,,,,,,,,,,,,,images/exp1a_trial_74_colour0_distractors0_r.png,r,2,016,001,2021-04-20_18h36.40.126,searchDisc4,2020.2.10,Win32,60,,,space,0.22747,2,1,0.512945,,0,257,257,74,1,1a,74,0,0,
,,,,,,,,,,,,,,,,,,,,,,,,,,images/exp2c_trial_60_colour1_distractors31_l.png,l,1,016,001,2021-04-20_18h36.40.126,searchDisc4,2020.2.10,Win32,60,,,space,0.255075,1,1,0.5412,,0,258,258,516,1,2c,60,1,31,
,,,,,,,,,,,,,,,,,,,,,,,,,,images/exp1b_trial_40_colour1_distractors9_r.png,r,2,016,001,2021-04-20_18h36.40.126,searchDisc4,2020.2.10,Win32,60,,,space,0.185555,2,1,0.53013,,0,259,259,154,1,1b,40,1,9,
,,,,,,,,,,,,,,,,,,,,,,,,,,images/exp2a_trial_38_colour1_distractors1_r.png,r,2,016,001,2021-04-20_18h36.40.126,searchDisc4,2020.2.10,Win32,60,,,space,0.2339,2,1,0.49821,,0,260,260,266,1,2a,38,1,1,
,,,,,,,,,,,,,,,,,,,,,,,,,,images/exp2c_trial_27_colour2_distractors19_l.png,l,1,016,001,2021-04-20_18h36.40.126,searchDisc4,2020.2.10,Win32,60,,,space,0.244615,1,1,0.460165,,0,261,261,483,1,2c,27,2,19,
,,,,,,,,,,,,,,,,,,,,,,,,,,images/exp2c_trial_74_colour0_distractors0_r.png,r,2,016,001,2021-04-20_18h36.40.126,searchDisc4,2020.2.10,Win32,60,,,space,0.20737,2,1,0.41584,,0,262,262,530,1,2c,74,0,0,
,,,,,,,,,,,,,,,,,,,,,,,,,,images/exp1b_trial_23_colour1_distractors43_l.png,l,1,016,001,2021-04-20_18h36.40.126,searchDisc4,2020.2.10,Win32,60,,,space,0.271315,1,1,0.60997,,0,263,263,137,1,1b,23,1,43,
,,,,,,,,,,,,,,,,,,,,,,,,,,images/exp2b_trial_8_colour2_distractors9_r.png,r,2,016,001,2021-04-20_18h36.40.126,searchDisc4,2020.2.10,Win32,60,,,space,0.184765,2,1,0.77104,,0,264,264,350,1,2b,8,2,9,
,,,,,,,,,,,,,,,,,,,,,,,,,,images/exp2b_trial_54_colour3_distractors31_r.png,r,2,016,001,2021-04-20_18h36.40.126,searchDisc4,2020.2.10,Win32,60,,,space,0.23206,2,1,0.41381,,0,265,265,396,1,2b,54,3,31,
,,,,,,,,,,,,,,,,,,,,,,,,,,images/exp1a_trial_100_colour2_distractors1_l.png,l,1,016,001,2021-04-20_18h36.40.126,searchDisc4,2020.2.10,Win32,60,,,space,0.22743,1,1,0.496525,,0,266,266,100,1,1a,100,2,1,
,,,,,,,,,,,,,,,,,,,,,,,,,,images/exp1a_trial_105_colour2_distractors43_l.png,l,1,016,001,2021-04-20_18h36.40.126,searchDisc4,2020.2.10,Win32,60,,,space,0.172215,1,1,0.81867,,0,267,267,105,1,1a,105,2,43,
,,,,,,,,,,,,,,,,,,,,,,,,,,images/exp2b_trial_76_colour1_distractors1_r.png,r,2,016,001,2021-04-20_18h36.40.126,searchDisc4,2020.2.10,Win32,60,,,space,0.131585,2,1,0.465825,,0,268,268,418,1,2b,76,1,1,
,,,,,,,,,,,,,,,,,,,,,,,,,,images/exp2b_trial_60_colour1_distractors31_l.png,l,1,016,001,2021-04-20_18h36.40.126,searchDisc4,2020.2.10,Win32,60,,,space,0.25798,1,1,0.5583,,0,269,269,402,1,2b,60,1,31,
,,,,,,,,,,,,,,,,,,,,,,,,,,images/exp2a_trial_83_colour2_distractors4_r.png,r,2,016,001,2021-04-20_18h36.40.126,searchDisc4,2020.2.10,Win32,60,,,space,0.20279,2,1,0.50152,,0,270,270,311,1,2a,83,2,4,
,,,,,,,,,,,,,,,,,,,,,,,,,,images/exp2a_trial_89_colour3_distractors4_r.png,r,2,016,001,2021-04-20_18h36.40.126,searchDisc4,2020.2.10,Win32,60,,,space,0.187615,2,1,0.62824,,0,271,271,317,1,2a,89,3,4,
,,,,,,,,,,,,,,,,,,,,,,,,,,images/exp2a_trial_70_colour3_distractors9_l.png,l,1,016,001,2021-04-20_18h36.40.126,searchDisc4,2020.2.10,Win32,60,,,space,0.152355,1,1,0.48537,,0,272,272,298,1,2a,70,3,9,
,,,,,,,,,,,,,,,,,,,,,,,,,,images/exp1b_trial_12_colour3_distractors1_r.png,r,2,016,001,2021-04-20_18h36.40.126,searchDisc4,2020.2.10,Win32,60,,,space,0.2184,2,1,0.66637,,0,273,273,126,1,1b,12,3,1,
,,,,,,,,,,,,,,,,,,,,,,,,,,images/exp2b_trial_90_colour3_distractors9_r.png,r,2,016,001,2021-04-20_18h36.40.126,searchDisc4,2020.2.10,Win32,60,,,space,0.170815,1,0,0.522975,,0,274,274,432,1,2b,90,3,9,
,,,,,,,,,,,,,,,,,,,,,,,,,,images/exp1b_trial_46_colour2_distractors9_r.png,r,2,016,001,2021-04-20_18h36.40.126,searchDisc4,2020.2.10,Win32,60,,,space,0.152145,2,1,0.611575,,0,275,275,160,1,1b,46,2,9,
,,,,,,,,,,,,,,,,,,,,,,,,,,images/exp1a_trial_81_colour1_distractors43_r.png,r,2,016,001,2021-04-20_18h36.40.126,searchDisc4,2020.2.10,Win32,60,,,space,0.342445,2,1,0.58512,,0,276,276,81,1,1a,81,1,43,
,,,,,,,,,,,,,,,,,,,,,,,,,,images/exp2c_trial_36_colour0_distractors0_r.png,r,2,016,001,2021-04-20_18h36.40.126,searchDisc4,2020.2.10,Win32,60,,,space,0.20467,2,1,0.609985,,0,277,277,492,1,2c,36,0,0,
,,,,,,,,,,,,,,,,,,,,,,,,,,images/exp2a_trial_37_colour0_distractors0_l.png,l,1,016,001,2021-04-20_18h36.40.126,searchDisc4,2020.2.10,Win32,60,,,space,0.23709,1,1,0.486535,,0,278,278,265,1,2a,37,0,0,
,,,,,,,,,,,,,,,,,,,,,,,,,,images/exp1a_trial_59_colour1_distractors19_l.png,l,1,016,001,2021-04-20_18h36.40.126,searchDisc4,2020.2.10,Win32,60,,,space,0.22195,2,0,0.43202,,0,279,279,59,1,1a,59,1,19,
,,,,,,,,,,,,,,,,,,,,,,,,,,images/exp1a_trial_90_colour3_distractors9_r.png,r,2,016,001,2021-04-20_18h36.40.126,searchDisc4,2020.2.10,Win32,60,,,space,0.46686,2,1,0.62709,,0,280,280,90,1,1a,90,3,9,
,,,,,,,,,,,,,,,,,,,,,,,,,,images/exp2b_trial_71_colour3_distractors19_l.png,l,1,016,001,2021-04-20_18h36.40.126,searchDisc4,2020.2.10,Win32,60,,,space,0.23394,1,1,0.73375,,0,281,281,413,1,2b,71,3,19,
,,,,,,,,,,,,,,,,,,,,,,,,,,images/exp1b_trial_81_colour1_distractors43_r.png,r,2,016,001,2021-04-20_18h36.40.126,searchDisc4,2020.2.10,Win32,60,,,space,0.192945,2,1,0.631925,,0,282,282,195,1,1b,81,1,43,
,,,,,,,,,,,,,,,,,,,,,,,,,,images/exp2b_trial_72_colour3_distractors31_l.png,l,1,016,001,2021-04-20_18h36.40.126,searchDisc4,2020.2.10,Win32,60,,,space,0.18473,1,1,0.551455,,0,283,283,414,1,2b,72,3,31,
,,,,,,,,,,,,,,,,,,,,,,,,,,images/exp1a_trial_57_colour1_distractors4_l.png,l,1,016,001,2021-04-20_18h36.40.126,searchDisc4,2020.2.10,Win32,60,,,space,0.168085,1,1,0.563965,,0,284,284,57,1,1a,57,1,4,
,,,,,,,,,,,,,,,,,,,,,,,,,,images/exp2c_trial_55_colour3_distractors43_r.png,r,2,016,001,2021-04-20_18h36.40.126,searchDisc4,2020.2.10,Win32,60,,,space,0.214795,2,1,0.73403,,0,285,285,511,1,2c,55,3,43,
,,,,,,,,,,,,,,,,,,,,,,,,,,images/exp2c_trial_99_colour1_distractors43_l.png,l,1,016,001,2021-04-20_18h36.40.126,searchDisc4,2020.2.10,Win32,60,,,space,0.150025,1,1,0.52071,,0,286,286,555,1,2c,99,1,43,
,,,,,,,,,,,,,,,,,,,,,,,,,,images/exp1a_trial_35_colour3_distractors43_l.png,l,1,016,001,2021-04-20_18h36.40.126,searchDisc4,2020.2.10,Win32,60,,,space,0.20409,1,1,0.686435,,0,287,287,35,1,1a,35,3,43,
,,,,,,,,,,,,,,,,,,,,,,,,,,images/exp2a_trial_49_colour2_distractors43_r.png,r,2,016,001,2021-04-20_18h36.40.126,searchDisc4,2020.2.10,Win32,60,,,space,0.192675,2,1,0.667955,,0,288,288,277,1,2a,49,2,43,
,,,,,,,,,,,,,,,,,,,,,,,,,,images/exp2b_trial_25_colour2_distractors4_l.png,l,1,016,001,2021-04-20_18h36.40.126,searchDisc4,2020.2.10,Win32,60,,,space,0.44355,1,1,0.561815,,0,289,289,367,1,2b,25,2,4,
,,,,,,,,,,,,,,,,,,,,,,,,,,images/exp2c_trial_24_colour2_distractors1_l.png,l,1,016,001,2021-04-20_18h36.40.126,searchDisc4,2020.2.10,Win32,60,,,space,0.18526,1,1,0.515135,,0,290,290,480,1,2c,24,2,1,
,,,,,,,,,,,,,,,,,,,,,,,,,,images/exp2c_trial_85_colour2_distractors19_r.png,r,2,016,001,2021-04-20_18h36.40.126,searchDisc4,2020.2.10,Win32,60,,,space,0.19893,2,1,0.63723,,0,291,291,541,1,2c,85,2,19,
,,,,,,,,,,,,,,,,,,,,,,,,,,images/exp2c_trial_30_colour3_distractors1_l.png,l,1,016,001,2021-04-20_18h36.40.126,searchDisc4,2020.2.10,Win32,60,,,space,0.17039,1,1,0.516445,,0,292,292,486,1,2c,30,3,1,
,,,,,,,,,,,,,,,,,,,,,,,,,,images/exp2c_trial_37_colour0_distractors0_l.png,l,1,016,001,2021-04-20_18h36.40.126,searchDisc4,2020.2.10,Win32,60,,,space,0.151545,1,1,0.60175,,0,293,293,493,1,2c,37,0,0,
,,,,,,,,,,,,,,,,,,,,,,,,,,images/exp2a_trial_93_colour3_distractors43_r.png,r,2,016,001,2021-04-20_18h36.40.126,searchDisc4,2020.2.10,Win32,60,,,space,0.216085,2,1,0.545365,,0,294,294,321,1,2a,93,3,43,
,,,,,,,,,,,,,,,,,,,,,,,,,,images/exp2a_trial_80_colour1_distractors31_r.png,r,2,016,001,2021-04-20_18h36.40.126,searchDisc4,2020.2.10,Win32,60,,,space,0.208785,2,1,0.602735,,0,295,295,308,1,2a,80,1,31,
,,,,,,,,,,,,,,,,,,,,,,,,,,images/exp2a_trial_78_colour1_distractors9_r.png,r,2,016,001,2021-04-20_18h36.40.126,searchDisc4,2020.2.10,Win32,60,,,space,0.198435,1,0,0.49512,,0,296,296,306,1,2a,78,1,9,
,,,,,,,,,,,,,,,,,,,,,,,,,,images/exp2c_trial_32_colour3_distractors9_l.png,l,1,016,001,2021-04-20_18h36.40.126,searchDisc4,2020.2.10,Win32,60,,,space,0.287635,1,1,0.479565,,0,297,297,488,1,2c,32,3,9,
,,,,,,,,,,,,,,,,,,,,,,,,,,images/exp2b_trial_24_colour2_distractors1_l.png,l,1,016,001,2021-04-20_18h36.40.126,searchDisc4,2020.2.10,Win32,60,,,space,0.19415,1,1,0.676435,,0,298,298,366,1,2b,24,2,1,
,,,,,,,,,,,,,,,,,,,,,,,,,,images/exp1b_trial_21_colour1_distractors19_l.png,l,1,016,001,2021-04-20_18h36.40.126,searchDisc4,2020.2.10,Win32,60,,,space,0.25163,1,1,0.597715,space,0,299,299,135,1,1b,21,1,19,18.1456
,,,,,,,,,,,,,,,,,,,,,,,,,,images/exp2b_trial_27_colour2_distractors19_l.png,l,1,016,001,2021-04-20_18h36.40.126,searchDisc4,2020.2.10,Win32,60,,,space,1.2685,1,1,0.531735,,0,300,300,369,1,2b,27,2,19,
,,,,,,,,,,,,,,,,,,,,,,,,,,images/exp2a_trial_3_colour1_distractors19_r.png,r,2,016,001,2021-04-20_18h36.40.126,searchDisc4,2020.2.10,Win32,60,,,space,0.269585,2,1,0.55464,,0,301,301,231,1,2a,3,1,19,
,,,,,,,,,,,,,,,,,,,,,,,,,,images/exp1a_trial_69_colour3_distractors4_l.png,l,1,016,001,2021-04-20_18h36.40.126,searchDisc4,2020.2.10,Win32,60,,,space,0.25917,1,1,0.66597,,0,302,302,69,1,1a,69,3,4,
,,,,,,,,,,,,,,,,,,,,,,,,,,images/exp1b_trial_31_colour3_distractors4_l.png,l,1,016,001,2021-04-20_18h36.40.126,searchDisc4,2020.2.10,Win32,60,,,space,0.247225,1,1,0.77239,,0,303,303,145,1,1b,31,3,4,
,,,,,,,,,,,,,,,,,,,,,,,,,,images/exp2c_trial_40_colour1_distractors9_r.png,r,2,016,001,2021-04-20_18h36.40.126,searchDisc4,2020.2.10,Win32,60,,,space,0.34629,2,1,0.48438,,0,304,304,496,1,2c,40,1,9,
,,,,,,,,,,,,,,,,,,,,,,,,,,images/exp1b_trial_107_colour3_distractors4_l.png,l,1,016,001,2021-04-20_18h36.40.126,searchDisc4,2020.2.10,Win32,60,,,space,0.252015,1,1,1.11759,,0,305,305,221,1,1b,107,3,4,
,,,,,,,,,,,,,,,,,,,,,,,,,,images/exp1a_trial_33_colour3_distractors19_l.png,l,1,016,001,2021-04-20_18h36.40.126,searchDisc4,2020.2.10,Win32,60,,,space,0.17941,1,1,0.505625,,0,306,306,33,1,1a,33,3,19,
,,,,,,,,,,,,,,,,,,,,,,,,,,images/exp2a_trial_109_colour3_distractors19_l.png,l,1,016,001,2021-04-20_18h36.40.126,searchDisc4,2020.2.10,Win32,60,,,space,0.15275,1,1,0.53258,,0,307,307,337,1,2a,109,3,19,
,,,,,,,,,,,,,,,,,,,,,,,,,,images/exp2b_trial_35_colour3_distractors43_l.png,l,1,016,001,2021-04-20_18h36.40.126,searchDisc4,2020.2.10,Win32,60,,,space,0.092415,1,1,0.56356,,0,308,308,377,1,2b,35,3,43,
,,,,,,,,,,,,,,,,,,,,,,,,,,images/exp1a_trial_113_colour0_distractors0_l.png,l,1,016,001,2021-04-20_18h36.40.126,searchDisc4,2020.2.10,Win32,60,,,space,0.068595,1,1,0.51611,,0,309,309,113,1,1a,113,0,0,
,,,,,,,,,,,,,,,,,,,,,,,,,,images/exp1a_trial_56_colour1_distractors1_l.png,l,1,016,001,2021-04-20_18h36.40.126,searchDisc4,2020.2.10,Win32,60,,,space,0.08016,1,1,0.616705,,0,310,310,56,1,1a,56,1,1,
,,,,,,,,,,,,,,,,,,,,,,,,,,images/exp1a_trial_64_colour2_distractors9_l.png,l,1,016,001,2021-04-20_18h36.40.126,searchDisc4,2020.2.10,Win32,60,,,space,0.06989,1,1,0.61772,,0,311,311,64,1,1a,64,2,9,
,,,,,,,,,,,,,,,,,,,,,,,,,,images/exp1a_trial_53_colour3_distractors19_r.png,r,2,016,001,2021-04-20_18h36.40.126,searchDisc4,2020.2.10,Win32,60,,,space,0.08164,2,1,0.501105,,0,312,312,53,1,1a,53,3,19,
,,,,,,,,,,,,,,,,,,,,,,,,,,images/exp1a_trial_108_colour3_distractors9_l.png,l,1,016,001,2021-04-20_18h36.40.126,searchDisc4,2020.2.10,Win32,60,,,space,0.08011,1,1,0.566675,,0,313,313,108,1,1a,108,3,9,
,,,,,,,,,,,,,,,,,,,,,,,,,,images/exp1a_trial_21_colour1_distractors19_l.png,l,1,016,001,2021-04-20_18h36.40.126,searchDisc4,2020.2.10,Win32,60,,,space,0.05116,1,1,0.65802,,0,314,314,21,1,1a,21,1,19,
,,,,,,,,,,,,,,,,,,,,,,,,,,images/exp1a_trial_84_colour2_distractors9_r.png,r,2,016,001,2021-04-20_18h36.40.126,searchDisc4,2020.2.10,Win32,60,,,space,0.091755,2,1,0.60288,,0,315,315,84,1,1a,84,2,9,
,,,,,,,,,,,,,,,,,,,,,,,,,,images/exp1a_trial_44_colour2_distractors1_r.png,r,2,016,001,2021-04-20_18h36.40.126,searchDisc4,2020.2.10,Win32,60,,,space,0.07643,2,1,0.64291,,0,316,316,44,1,1a,44,2,1,
,,,,,,,,,,,,,,,,,,,,,,,,,,images/exp1a_trial_46_colour2_distractors9_r.png,r,2,016,001,2021-04-20_18h36.40.126,searchDisc4,2020.2.10,Win32,60,,,space,0.096955,2,1,0.60322,,0,317,317,46,1,1a,46,2,9,
,,,,,,,,,,,,,,,,,,,,,,,,,,images/exp1a_trial_7_colour2_distractors4_r.png,r,2,016,001,2021-04-20_18h36.40.126,searchDisc4,2020.2.10,Win32,60,,,space,0.092,2,1,0.55646,,0,318,318,7,1,1a,7,2,4,
,,,,,,,,,,,,,,,,,,,,,,,,,,images/exp2c_trial_52_colour3_distractors9_r.png,r,2,016,001,2021-04-20_18h36.40.126,searchDisc4,2020.2.10,Win32,60,,,space,0.094045,2,1,0.522135,,0,319,319,508,1,2c,52,3,9,
,,,,,,,,,,,,,,,,,,,,,,,,,,images/exp2b_trial_101_colour2_distractors4_l.png,l,1,016,001,2021-04-20_18h36.40.126,searchDisc4,2020.2.10,Win32,60,,,space,0.088335,1,1,0.604285,,0,320,320,443,1,2b,101,2,4,
,,,,,,,,,,,,,,,,,,,,,,,,,,images/exp2a_trial_61_colour1_distractors43_l.png,l,1,016,001,2021-04-20_18h36.40.126,searchDisc4,2020.2.10,Win32,60,,,space,0.056985,1,1,0.56865,,0,321,321,289,1,2a,61,1,43,
,,,,,,,,,,,,,,,,,,,,,,,,,,images/exp1b_trial_39_colour1_distractors4_r.png,r,2,016,001,2021-04-20_18h36.40.126,searchDisc4,2020.2.10,Win32,60,,,space,0.063955,2,1,0.574535,,0,322,322,153,1,1b,39,1,4,
,,,,,,,,,,,,,,,,,,,,,,,,,,images/exp2b_trial_48_colour2_distractors31_r.png,r,2,016,001,2021-04-20_18h36.40.126,searchDisc4,2020.2.10,Win32,60,,,space,0.11249,2,1,0.686195,,0,323,323,390,1,2b,48,2,31,
,,,,,,,,,,,,,,,,,,,,,,,,,,images/exp1b_trial_90_colour3_distractors9_r.png,r,2,016,001,2021-04-20_18h36.40.126,searchDisc4,2020.2.10,Win32,60,,,space,0.11455,2,1,0.53814,,0,324,324,204,1,1b,90,3,9,
,,,,,,,,,,,,,,,,,,,,,,,,,,images/exp2a_trial_6_colour2_distractors1_r.png,r,2,016,001,2021-04-20_18h36.40.126,searchDisc4,2020.2.10,Win32,60,,,space,0.1189,2,1,0.45702,,0,325,325,234,1,2a,6,2,1,
,,,,,,,,,,,,,,,,,,,,,,,,,,images/exp1b_trial_15_colour3_distractors19_r.png,r,2,016,001,2021-04-20_18h36.40.126,searchDisc4,2020.2.10,Win32,60,,,space,0.09529,2,1,0.54992,,0,326,326,129,1,1b,15,3,19,
,,,,,,,,,,,,,,,,,,,,,,,,,,images/exp1a_trial_5_colour1_distractors43_r.png,r,2,016,001,2021-04-20_18h36.40.126,searchDisc4,2020.2.10,Win32,60,,,space,0.10094,2,1,0.565675,,0,327,327,5,1,1a,5,1,43,
,,,,,,,,,,,,,,,,,,,,,,,,,,images/exp2a_trial_79_colour1_distractors19_r.png,r,2,016,001,2021-04-20_18h36.40.126,searchDisc4,2020.2.10,Win32,60,,,space,0.11554,2,1,0.47638,,0,328,328,307,1,2a,79,1,19,
,,,,,,,,,,,,,,,,,,,,,,,,,,images/exp1a_trial_24_colour2_distractors1_l.png,l,1,016,001,2021-04-20_18h36.40.126,searchDisc4,2020.2.10,Win32,60,,,space,0.068685,1,1,0.58098,,0,329,329,24,1,1a,24,2,1,
,,,,,,,,,,,,,,,,,,,,,,,,,,images/exp2a_trial_51_colour3_distractors4_r.png,r,2,016,001,2021-04-20_18h36.40.126,searchDisc4,2020.2.10,Win32,60,,,space,0.04835,2,1,0.60332,,0,330,330,279,1,2a,51,3,4,
,,,,,,,,,,,,,,,,,,,,,,,,,,images/exp2c_trial_105_colour2_distractors43_l.png,l,1,016,001,2021-04-20_18h36.40.126,searchDisc4,2020.2.10,Win32,60,,,space,0.06228,1,1,0.53606,,0,331,331,561,1,2c,105,2,43,
,,,,,,,,,,,,,,,,,,,,,,,,,,images/exp2c_trial_50_colour3_distractors1_r.png,r,2,016,001,2021-04-20_18h36.40.126,searchDisc4,2020.2.10,Win32,60,,,space,0.051845,2,1,0.528305,,0,332,332,506,1,2c,50,3,1,
,,,,,,,,,,,,,,,,,,,,,,,,,,images/exp2b_trial_74_colour0_distractors0_r.png,r,2,016,001,2021-04-20_18h36.40.126,searchDisc4,2020.2.10,Win32,60,,,space,0.06446,2,1,0.678835,,0,333,333,416,1,2b,74,0,0,
,,,,,,,,,,,,,,,,,,,,,,,,,,images/exp2b_trial_43_colour1_distractors43_r.png,r,2,016,001,2021-04-20_18h36.40.126,searchDisc4,2020.2.10,Win32,60,,,space,0.080625,1,0,0.7684,,0,334,334,385,1,2b,43,1,43,
,,,,,,,,,,,,,,,,,,,,,,,,,,images/exp1b_trial_82_colour2_distractors1_r.png,r,2,016,001,2021-04-20_18h36.40.126,searchDisc4,2020.2.10,Win32,60,,,space,0.016665,2,1,1.08596,,0,335,335,196,1,1b,82,2,1,
,,,,,,,,,,,,,,,,,,,,,,,,,,images/exp1b_trial_1_colour1_distractors4_r.png,r,2,016,001,2021-04-20_18h36.40.126,searchDisc4,2020.2.10,Win32,60,,,space,0.011265,2,1,0.645445,,0,336,336,115,1,1b,1,1,4,
,,,,,,,,,,,,,,,,,,,,,,,,,,images/exp1b_trial_67_colour2_distractors43_l.png,l,1,016,001,2021-04-20_18h36.40.126,searchDisc4,2020.2.10,Win32,60,,,space,0.0652,1,1,0.747515,,0,337,337,181,1,1b,67,2,43,
,,,,,,,,,,,,,,,,,,,,,,,,,,images/exp2b_trial_0_colour1_distractors1_r.png,r,2,016,001,2021-04-20_18h36.40.126,searchDisc4,2020.2.10,Win32,60,,,space,0.062325,2,1,0.564315,,0,338,338,342,1,2b,0,1,1,
,,,,,,,,,,,,,,,,,,,,,,,,,,images/exp2a_trial_27_colour2_distractors19_l.png,l,1,016,001,2021-04-20_18h36.40.126,searchDisc4,2020.2.10,Win32,60,,,space,0.120995,1,1,0.578255,,0,339,339,255,1,2a,27,2,19,
,,,,,,,,,,,,,,,,,,,,,,,,,,images/exp2c_trial_97_colour1_distractors19_l.png,l,1,016,001,2021-04-20_18h36.40.126,searchDisc4,2020.2.10,Win32,60,,,space,0.05693,1,1,0.614775,,0,340,340,553,1,2c,97,1,19,
,,,,,,,,,,,,,,,,,,,,,,,,,,images/exp2b_trial_19_colour1_distractors4_l.png,l,1,016,001,2021-04-20_18h36.40.126,searchDisc4,2020.2.10,Win32,60,,,space,0.06213,1,1,0.56722,,0,341,341,361,1,2b,19,1,4,
,,,,,,,,,,,,,,,,,,,,,,,,,,images/exp1b_trial_91_colour3_distractors19_r.png,r,2,016,001,2021-04-20_18h36.40.126,searchDisc4,2020.2.10,Win32,60,,,space,0.084135,2,1,0.758785,,0,342,342,205,1,1b,91,3,19,
,,,,,,,,,,,,,,,,,,,,,,,,,,images/exp2c_trial_61_colour1_distractors43_l.png,l,1,016,001,2021-04-20_18h36.40.126,searchDisc4,2020.2.10,Win32,60,,,space,0.10106,1,1,0.530435,,0,343,343,517,1,2c,61,1,43,
,,,,,,,,,,,,,,,,,,,,,,,,,,images/exp1a_trial_23_colour1_distractors43_l.png,l,1,016,001,2021-04-20_18h36.40.126,searchDisc4,2020.2.10,Win32,60,,,space,0.08398,1,1,0.68205,,0,344,344,23,1,1a,23,1,43,
,,,,,,,,,,,,,,,,,,,,,,,,,,images/exp1a_trial_0_colour1_distractors1_r.png,r,2,016,001,2021-04-20_18h36.40.126,searchDisc4,2020.2.10,Win32,60,,,space,0.068725,2,1,0.614035,,0,345,345,0,1,1a,0,1,1,
,,,,,,,,,,,,,,,,,,,,,,,,,,images/exp2c_trial_62_colour2_distractors1_l.png,l,1,016,001,2021-04-20_18h36.40.126,searchDisc4,2020.2.10,Win32,60,,,space,0.06491,1,1,0.76248,,0,346,346,518,1,2c,62,2,1,
,,,,,,,,,,,,,,,,,,,,,,,,,,images/exp2a_trial_33_colour3_distractors19_l.png,l,1,016,001,2021-04-20_18h36.40.126,searchDisc4,2020.2.10,Win32,60,,,space,0.07284,1,1,0.571105,,0,347,347,261,1,2a,33,3,19,
,,,,,,,,,,,,,,,,,,,,,,,,,,images/exp2c_trial_35_colour3_distractors43_l.png,l,1,016,001,2021-04-20_18h36.40.126,searchDisc4,2020.2.10,Win32,60,,,space,0.073225,1,1,0.600325,,0,348,348,491,1,2c,35,3,43,
,,,,,,,,,,,,,,,,,,,,,,,,,,images/exp1a_trial_48_colour2_distractors31_r.png,r,2,016,001,2021-04-20_18h36.40.126,searchDisc4,2020.2.10,Win32,60,,,space,0.09598,2,1,0.60025,,0,349,349,48,1,1a,48,2,31,
,,,,,,,,,,,,,,,,,,,,,,,,,,images/exp2c_trial_66_colour2_distractors31_l.png,l,1,016,001,2021-04-20_18h36.40.126,searchDisc4,2020.2.10,Win32,60,,,space,0.119815,1,1,0.47854,,0,350,350,522,1,2c,66,2,31,
,,,,,,,,,,,,,,,,,,,,,,,,,,images/exp2b_trial_88_colour3_distractors1_r.png,r,2,016,001,2021-04-20_18h36.40.126,searchDisc4,2020.2.10,Win32,60,,,space,0.07045,2,1,0.48524,,0,351,351,430,1,2b,88,3,1,
,,,,,,,,,,,,,,,,,,,,,,,,,,images/exp2c_trial_4_colour1_distractors31_r.png,r,2,016,001,2021-04-20_18h36.40.126,searchDisc4,2020.2.10,Win32,60,,,space,0.144235,2,1,0.531335,,0,352,352,460,1,2c,4,1,31,
,,,,,,,,,,,,,,,,,,,,,,,,,,images/exp1b_trial_58_colour1_distractors9_l.png,l,1,016,001,2021-04-20_18h36.40.126,searchDisc4,2020.2.10,Win32,60,,,space,0.09843,1,1,0.53293,,0,353,353,172,1,1b,58,1,9,
,,,,,,,,,,,,,,,,,,,,,,,,,,images/exp2b_trial_61_colour1_distractors43_l.png,l,1,016,001,2021-04-20_18h36.40.126,searchDisc4,2020.2.10,Win32,60,,,space,0.06719,1,1,0.92848,,0,354,354,403,1,2b,61,1,43,
,,,,,,,,,,,,,,,,,,,,,,,,,,images/exp2a_trial_34_colour3_distractors31_l.png,l,1,016,001,2021-04-20_18h36.40.126,searchDisc4,2020.2.10,Win32,60,,,space,0.05093,1,1,0.67165,,0,355,355,262,1,2a,34,3,31,
,,,,,,,,,,,,,,,,,,,,,,,,,,images/exp1b_trial_30_colour3_distractors1_l.png,l,1,016,001,2021-04-20_18h36.40.126,searchDisc4,2020.2.10,Win32,60,,,space,0.08783,1,1,0.64991,,0,356,356,144,1,1b,30,3,1,
,,,,,,,,,,,,,,,,,,,,,,,,,,images/exp2c_trial_90_colour3_distractors9_r.png,r,2,016,001,2021-04-20_18h36.40.126,searchDisc4,2020.2.10,Win32,60,,,space,0.053605,2,1,0.651815,,0,357,357,546,1,2c,90,3,9,
,,,,,,,,,,,,,,,,,,,,,,,,,,images/exp2c_trial_29_colour2_distractors43_l.png,l,1,016,001,2021-04-20_18h36.40.126,searchDisc4,2020.2.10,Win32,60,,,space,0.09584,1,1,0.672505,,0,358,358,485,1,2c,29,2,43,
,,,,,,,,,,,,,,,,,,,,,,,,,,images/exp2a_trial_88_colour3_distractors1_r.png,r,2,016,001,2021-04-20_18h36.40.126,searchDisc4,2020.2.10,Win32,60,,,space,0.047505,2,1,0.66509,space,0,359,359,316,1,2a,88,3,1,0.08065
,,,,,,,,,,,,,,,,,,,,,,,,,,images/exp2b_trial_77_colour1_distractors4_r.png,r,2,016,001,2021-04-20_18h36.40.126,searchDisc4,2020.2.10,Win32,60,,,space,1.70328,2,1,0.559535,,0,360,360,419,1,2b,77,1,4,
,,,,,,,,,,,,,,,,,,,,,,,,,,images/exp2c_trial_14_colour3_distractors9_r.png,r,2,016,001,2021-04-20_18h36.40.126,searchDisc4,2020.2.10,Win32,60,,,space,0.058655,2,1,0.50349,,0,361,361,470,1,2c,14,3,9,
,,,,,,,,,,,,,,,,,,,,,,,,,,images/exp1b_trial_66_colour2_distractors31_l.png,l,1,016,001,2021-04-20_18h36.40.126,searchDisc4,2020.2.10,Win32,60,,,space,0.06788,1,1,0.629725,,0,362,362,180,1,1b,66,2,31,
,,,,,,,,,,,,,,,,,,,,,,,,,,images/exp2c_trial_10_colour2_distractors31_r.png,r,2,016,001,2021-04-20_18h36.40.126,searchDisc4,2020.2.10,Win32,60,,,space,0.051885,2,1,0.54596,,0,363,363,466,1,2c,10,2,31,
,,,,,,,,,,,,,,,,,,,,,,,,,,images/exp1b_trial_18_colour1_distractors1_l.png,l,1,016,001,2021-04-20_18h36.40.126,searchDisc4,2020.2.10,Win32,60,,,space,0.04979,1,1,0.767585,,0,364,364,132,1,1b,18,1,1,
,,,,,,,,,,,,,,,,,,,,,,,,,,images/exp2b_trial_17_colour3_distractors43_r.png,r,2,016,001,2021-04-20_18h36.40.126,searchDisc4,2020.2.10,Win32,60,,,space,0.044485,2,1,0.507975,,0,365,365,359,1,2b,17,3,43,
,,,,,,,,,,,,,,,,,,,,,,,,,,images/exp1b_trial_9_colour2_distractors19_r.png,r,2,016,001,2021-04-20_18h36.40.126,searchDisc4,2020.2.10,Win32,60,,,space,0.075355,2,1,0.633615,,0,366,366,123,1,1b,9,2,19,
,,,,,,,,,,,,,,,,,,,,,,,,,,images/exp1b_trial_61_colour1_distractors43_l.png,l,1,016,001,2021-04-20_18h36.40.126,searchDisc4,2020.2.10,Win32,60,,,space,0.043455,1,1,1.06053,,0,367,367,175,1,1b,61,1,43,
,,,,,,,,,,,,,,,,,,,,,,,,,,images/exp2b_trial_82_colour2_distractors1_r.png,r,2,016,001,2021-04-20_18h36.40.126,searchDisc4,2020.2.10,Win32,60,,,space,0.06673,2,1,0.535175,,0,368,368,424,1,2b,82,2,1,
,,,,,,,,,,,,,,,,,,,,,,,,,,images/exp1b_trial_109_colour3_distractors19_l.png,l,1,016,001,2021-04-20_18h36.40.126,searchDisc4,2020.2.10,Win32,60,,,space,0.05008,1,1,1.76731,,0,369,369,223,1,1b,109,3,19,
,,,,,,,,,,,,,,,,,,,,,,,,,,images/exp1b_trial_89_colour3_distractors4_r.png,r,2,016,001,2021-04-20_18h36.40.126,searchDisc4,2020.2.10,Win32,60,,,space,0.052735,2,1,0.714775,,0,370,370,203,1,1b,89,3,4,
,,,,,,,,,,,,,,,,,,,,,,,,,,images/exp1b_trial_57_colour1_distractors4_l.png,l,1,016,001,2021-04-20_18h36.40.126,searchDisc4,2020.2.10,Win32,60,,,space,0.096025,1,1,0.668825,,0,371,371,171,1,1b,57,1,4,
,,,,,,,,,,,,,,,,,,,,,,,,,,images/exp2a_trial_5_colour1_distractors43_r.png,r,2,016,001,2021-04-20_18h36.40.126,searchDisc4,2020.2.10,Win32,60,,,space,0.038495,2,1,0.55031,,0,372,372,233,1,2a,5,1,43,
,,,,,,,,,,,,,,,,,,,,,,,,,,images/exp2b_trial_39_colour1_distractors4_r.png,r,2,016,001,2021-04-20_18h36.40.126,searchDisc4,2020.2.10,Win32,60,,,space,0.10808,2,1,0.60065,,0,373,373,381,1,2b,39,1,4,
,,,,,,,,,,,,,,,,,,,,,,,,,,images/exp2c_trial_68_colour3_distractors1_l.png,l,1,016,001,2021-04-20_18h36.40.126,searchDisc4,2020.2.10,Win32,60,,,space,0.39639,1,1,0.58477,,0,374,374,524,1,2c,68,3,1,
,,,,,,,,,,,,,,,,,,,,,,,,,,images/exp1a_trial_47_colour2_distractors19_r.png,r,2,016,001,2021-04-20_18h36.40.126,searchDisc4,2020.2.10,Win32,60,,,space,0.04458,2,1,0.698255,,0,375,375,47,1,1a,47,2,19,
,,,,,,,,,,,,,,,,,,,,,,,,,,images/exp2a_trial_57_colour1_distractors4_l.png,l,1,016,001,2021-04-20_18h36.40.126,searchDisc4,2020.2.10,Win32,60,,,space,0.117345,1,1,0.581835,,0,376,376,285,1,2a,57,1,4,
,,,,,,,,,,,,,,,,,,,,,,,,,,images/exp1a_trial_98_colour1_distractors31_l.png,l,1,016,001,2021-04-20_18h36.40.126,searchDisc4,2020.2.10,Win32,60,,,space,0.055475,1,1,0.76527,,0,377,377,98,1,1a,98,1,31,
,,,,,,,,,,,,,,,,,,,,,,,,,,images/exp1a_trial_101_colour2_distractors4_l.png,l,1,016,001,2021-04-20_18h36.40.126,searchDisc4,2020.2.10,Win32,60,,,space,0.05635,1,1,0.54657,,0,378,378,101,1,1a,101,2,4,
,,,,,,,,,,,,,,,,,,,,,,,,,,images/exp2b_trial_52_colour3_distractors9_r.png,r,2,016,001,2021-04-20_18h36.40.126,searchDisc4,2020.2.10,Win32,60,,,space,0.079615,2,1,0.54717,,0,379,379,394,1,2b,52,3,9,
,,,,,,,,,,,,,,,,,,,,,,,,,,images/exp2c_trial_56_colour1_distractors1_l.png,l,1,016,001,2021-04-20_18h36.40.126,searchDisc4,2020.2.10,Win32,60,,,space,0.0708,1,1,0.64611,,0,380,380,512,1,2c,56,1,1,
,,,,,,,,,,,,,,,,,,,,,,,,,,images/exp1b_trial_79_colour1_distractors19_r.png,r,2,016,001,2021-04-20_18h36.40.126,searchDisc4,2020.2.10,Win32,60,,,space,0.0475,2,1,0.59214,,0,381,381,193,1,1b,79,1,19,
,,,,,,,,,,,,,,,,,,,,,,,,,,images/exp1a_trial_87_colour2_distractors43_r.png,r,2,016,001,2021-04-20_18h36.40.126,searchDisc4,2020.2.10,Win32,60,,,space,0.08609,2,1,0.65227,,0,382,382,87,1,1a,87,2,43,
,,,,,,,,,,,,,,,,,,,,,,,,,,images/exp2c_trial_94_colour1_distractors1_l.png,l,1,016,001,2021-04-20_18h36.40.126,searchDisc4,2020.2.10,Win32,60,,,space,0.07933,1,1,0.576905,,0,383,383,550,1,2c,94,1,1,
,,,,,,,,,,,,,,,,,,,,,,,,,,images/exp2a_trial_10_colour2_distractors31_r.png,r,2,016,001,2021-04-20_18h36.40.126,searchDisc4,2020.2.10,Win32,60,,,space,0.05858,2,1,0.672355,,0,384,384,238,1,2a,10,2,31,
,,,,,,,,,,,,,,,,,,,,,,,,,,images/exp2a_trial_48_colour2_distractors31_r.png,r,2,016,001,2021-04-20_18h36.40.126,searchDisc4,2020.2.10,Win32,60,,,space,0.09533,2,1,0.711085,,0,385,385,276,1,2a,48,2,31,
,,,,,,,,,,,,,,,,,,,,,,,,,,images/exp1b_trial_95_colour1_distractors4_l.png,l,1,016,001,2021-04-20_18h36.40.126,searchDisc4,2020.2.10,Win32,60,,,space,0.14941,1,1,0.54459,,0,386,386,209,1,1b,95,1,4,
,,,,,,,,,,,,,,,,,,,,,,,,,,images/exp2b_trial_83_colour2_distractors4_r.png,r,2,016,001,2021-04-20_18h36.40.126,searchDisc4,2020.2.10,Win32,60,,,space,0.03813,2,1,0.501355,,0,387,387,425,1,2b,83,2,4,
,,,,,,,,,,,,,,,,,,,,,,,,,,images/exp2a_trial_53_colour3_distractors19_r.png,r,2,016,001,2021-04-20_18h36.40.126,searchDisc4,2020.2.10,Win32,60,,,space,0.12913,1,0,0.506885,,0,388,388,281,1,2a,53,3,19,
,,,,,,,,,,,,,,,,,,,,,,,,,,images/exp1b_trial_99_colour1_distractors43_l.png,l,1,016,001,2021-04-20_18h36.40.126,searchDisc4,2020.2.10,Win32,60,,,space,0.115175,1,1,0.714435,,0,389,389,213,1,1b,99,1,43,
,,,,,,,,,,,,,,,,,,,,,,,,,,images/exp2b_trial_65_colour2_distractors19_l.png,l,1,016,001,2021-04-20_18h36.40.126,searchDisc4,2020.2.10,Win32,60,,,space,0.05889,1,1,0.64086,,0,390,390,407,1,2b,65,2,19,
,,,,,,,,,,,,,,,,,,,,,,,,,,images/exp2c_trial_23_colour1_distractors43_l.png,l,1,016,001,2021-04-20_18h36.40.126,searchDisc4,2020.2.10,Win32,60,,,space,0.066745,1,1,0.621,,0,391,391,479,1,2c,23,1,43,
,,,,,,,,,,,,,,,,,,,,,,,,,,images/exp1b_trial_2_colour1_distractors9_r.png,r,2,016,001,2021-04-20_18h36.40.126,searchDisc4,2020.2.10,Win32,60,,,space,0.085585,2,1,0.634165,,0,392,392,116,1,1b,2,1,9,
,,,,,,,,,,,,,,,,,,,,,,,,,,images/exp1b_trial_87_colour2_distractors43_r.png,r,2,016,001,2021-04-20_18h36.40.126,searchDisc4,2020.2.10,Win32,60,,,space,0.100215,2,1,0.595975,,0,393,393,201,1,1b,87,2,43,
,,,,,,,,,,,,,,,,,,,,,,,,,,images/exp2b_trial_91_colour3_distractors19_r.png,r,2,016,001,2021-04-20_18h36.40.126,searchDisc4,2020.2.10,Win32,60,,,space,0.120695,2,1,0.522,,0,394,394,433,1,2b,91,3,19,
,,,,,,,,,,,,,,,,,,,,,,,,,,images/exp1b_trial_54_colour3_distractors31_r.png,r,2,016,001,2021-04-20_18h36.40.126,searchDisc4,2020.2.10,Win32,60,,,space,0.102405,2,1,1.325595,,0,395,395,168,1,1b,54,3,31,
,,,,,,,,,,,,,,,,,,,,,,,,,,images/exp1a_trial_68_colour3_distractors1_l.png,l,1,016,001,2021-04-20_18h36.40.126,searchDisc4,2020.2.10,Win32,60,,,space,0.116575,1,1,0.455185,,0,396,396,68,1,1a,68,3,1,
,,,,,,,,,,,,,,,,,,,,,,,,,,images/exp1a_trial_75_colour0_distractors0_l.png,l,1,016,001,2021-04-20_18h36.40.126,searchDisc4,2020.2.10,Win32,60,,,space,0.08087,2,0,0.45088,,0,397,397,75,1,1a,75,0,0,
,,,,,,,,,,,,,,,,,,,,,,,,,,images/exp2a_trial_82_colour2_distractors1_r.png,r,2,016,001,2021-04-20_18h36.40.126,searchDisc4,2020.2.10,Win32,60,,,space,0.59036,2,1,0.61723,,0,398,398,310,1,2a,82,2,1,
,,,,,,,,,,,,,,,,,,,,,,,,,,images/exp2b_trial_46_colour2_distractors9_r.png,r,2,016,001,2021-04-20_18h36.40.126,searchDisc4,2020.2.10,Win32,60,,,space,0.08217,2,1,0.579145,,0,399,399,388,1,2b,46,2,9,
,,,,,,,,,,,,,,,,,,,,,,,,,,images/exp2c_trial_76_colour1_distractors1_r.png,r,2,016,001,2021-04-20_18h36.40.126,searchDisc4,2020.2.10,Win32,60,,,space,0.101505,2,1,0.517425,,0,400,400,532,1,2c,76,1,1,
,,,,,,,,,,,,,,,,,,,,,,,,,,images/exp2a_trial_90_colour3_distractors9_r.png,r,2,016,001,2021-04-20_18h36.40.126,searchDisc4,2020.2.10,Win32,60,,,space,0.099485,2,1,0.576135,,0,401,401,318,1,2a,90,3,9,
,,,,,,,,,,,,,,,,,,,,,,,,,,images/exp1b_trial_68_colour3_distractors1_l.png,l,1,016,001,2021-04-20_18h36.40.126,searchDisc4,2020.2.10,Win32,60,,,space,0.067905,1,1,0.772165,,0,402,402,182,1,1b,68,3,1,
,,,,,,,,,,,,,,,,,,,,,,,,,,images/exp2a_trial_67_colour2_distractors43_l.png,l,1,016,001,2021-04-20_18h36.40.126,searchDisc4,2020.2.10,Win32,60,,,space,0.055655,1,1,0.65493,,0,403,403,295,1,2a,67,2,43,
,,,,,,,,,,,,,,,,,,,,,,,,,,images/exp2b_trial_67_colour2_distractors43_l.png,l,1,016,001,2021-04-20_18h36.40.126,searchDisc4,2020.2.10,Win32,60,,,space,0.062315,1,1,0.530855,,0,404,404,409,1,2b,67,2,43,
,,,,,,,,,,,,,,,,,,,,,,,,,,images/exp2b_trial_89_colour3_distractors4_r.png,r,2,016,001,2021-04-20_18h36.40.126,searchDisc4,2020.2.10,Win32,60,,,space,0.085855,2,1,0.602175,,0,405,405,431,1,2b,89,3,4,
,,,,,,,,,,,,,,,,,,,,,,,,,,images/exp1b_trial_27_colour2_distractors19_l.png,l,1,016,001,2021-04-20_18h36.40.126,searchDisc4,2020.2.10,Win32,60,,,space,0.06654,1,1,0.631255,,0,406,406,141,1,1b,27,2,19,
,,,,,,,,,,,,,,,,,,,,,,,,,,images/exp1b_trial_84_colour2_distractors9_r.png,r,2,016,001,2021-04-20_18h36.40.126,searchDisc4,2020.2.10,Win32,60,,,space,0.078615,2,1,0.84701,,0,407,407,198,1,1b,84,2,9,
,,,,,,,,,,,,,,,,,,,,,,,,,,images/exp2b_trial_70_colour3_distractors9_l.png,l,1,016,001,2021-04-20_18h36.40.126,searchDisc4,2020.2.10,Win32,60,,,space,0.02878,1,1,0.80778,,0,408,408,412,1,2b,70,3,9,
,,,,,,,,,,,,,,,,,,,,,,,,,,images/exp2c_trial_107_colour3_distractors4_l.png,l,1,016,001,2021-04-20_18h36.40.126,searchDisc4,2020.2.10,Win32,60,,,space,0.06569,1,1,0.553535,,0,409,409,563,1,2c,107,3,4,
,,,,,,,,,,,,,,,,,,,,,,,,,,images/exp1b_trial_97_colour1_distractors19_l.png,l,1,016,001,2021-04-20_18h36.40.126,searchDisc4,2020.2.10,Win32,60,,,space,0.06572,1,1,0.65198,,0,410,410,211,1,1b,97,1,19,
,,,,,,,,,,,,,,,,,,,,,,,,,,images/exp2c_trial_96_colour1_distractors9_l.png,l,1,016,001,2021-04-20_18h36.40.126,searchDisc4,2020.2.10,Win32,60,,,space,0.101625,1,1,0.62832,,0,411,411,552,1,2c,96,1,9,
,,,,,,,,,,,,,,,,,,,,,,,,,,images/exp1b_trial_85_colour2_distractors19_r.png,r,2,016,001,2021-04-20_18h36.40.126,searchDisc4,2020.2.10,Win32,60,,,space,0.07394,2,1,1.023715,,0,412,412,199,1,1b,85,2,19,
,,,,,,,,,,,,,,,,,,,,,,,,,,images/exp2a_trial_65_colour2_distractors19_l.png,l,1,016,001,2021-04-20_18h36.40.126,searchDisc4,2020.2.10,Win32,60,,,space,0.032895,1,1,0.60101,,0,413,413,293,1,2a,65,2,19,
,,,,,,,,,,,,,,,,,,,,,,,,,,images/exp2b_trial_107_colour3_distractors4_l.png,l,1,016,001,2021-04-20_18h36.40.126,searchDisc4,2020.2.10,Win32,60,,,space,0.06783,1,1,0.61632,,0,414,414,449,1,2b,107,3,4,
,,,,,,,,,,,,,,,,,,,,,,,,,,images/exp2a_trial_42_colour1_distractors31_r.png,r,2,016,001,2021-04-20_18h36.40.126,searchDisc4,2020.2.10,Win32,60,,,space,0.09901,2,1,0.489395,,0,415,415,270,1,2a,42,1,31,
,,,,,,,,,,,,,,,,,,,,,,,,,,images/exp2b_trial_1_colour1_distractors4_r.png,r,2,016,001,2021-04-20_18h36.40.126,searchDisc4,2020.2.10,Win32,60,,,space,0.115535,2,1,0.566415,,0,416,416,343,1,2b,1,1,4,
,,,,,,,,,,,,,,,,,,,,,,,,,,images/exp1b_trial_29_colour2_distractors43_l.png,l,1,016,001,2021-04-20_18h36.40.126,searchDisc4,2020.2.10,Win32,60,,,space,0.073945,1,1,0.845525,,0,417,417,143,1,1b,29,2,43,
,,,,,,,,,,,,,,,,,,,,,,,,,,images/exp1b_trial_19_colour1_distractors4_l.png,l,1,016,001,2021-04-20_18h36.40.126,searchDisc4,2020.2.10,Win32,60,,,space,0.066435,1,1,0.64678,,0,418,418,133,1,1b,19,1,4,
,,,,,,,,,,,,,,,,,,,,,,,,,,images/exp2b_trial_109_colour3_distractors19_l.png,l,1,016,001,2021-04-20_18h36.40.126,searchDisc4,2020.2.10,Win32,60,,,space,0.06941,1,1,0.996165,space,0,419,419,451,1,2b,109,3,19,5.855145
,,,,,,,,,,,,,,,,,,,,,,,,,,images/exp1a_trial_72_colour3_distractors31_l.png,l,1,016,001,2021-04-20_18h36.40.126,searchDisc4,2020.2.10,Win32,60,,,space,0.48552,1,1,0.58257,,0,420,420,72,1,1a,72,3,31,
,,,,,,,,,,,,,,,,,,,,,,,,,,images/exp2b_trial_16_colour3_distractors31_r.png,r,2,016,001,2021-04-20_18h36.40.126,searchDisc4,2020.2.10,Win32,60,,,space,0.064485,2,1,0.66444,,0,421,421,358,1,2b,16,3,31,
,,,,,,,,,,,,,,,,,,,,,,,,,,images/exp2c_trial_33_colour3_distractors19_l.png,l,1,016,001,2021-04-20_18h36.40.126,searchDisc4,2020.2.10,Win32,60,,,space,0.08724,1,1,0.513645,,0,422,422,489,1,2c,33,3,19,
,,,,,,,,,,,,,,,,,,,,,,,,,,images/exp2b_trial_13_colour3_distractors4_r.png,r,2,016,001,2021-04-20_18h36.40.126,searchDisc4,2020.2.10,Win32,60,,,space,0.06026,2,1,0.47888,,0,423,423,355,1,2b,13,3,4,
,,,,,,,,,,,,,,,,,,,,,,,,,,images/exp2c_trial_91_colour3_distractors19_r.png,r,2,016,001,2021-04-20_18h36.40.126,searchDisc4,2020.2.10,Win32,60,,,space,0.10688,2,1,0.668255,,0,424,424,547,1,2c,91,3,19,
,,,,,,,,,,,,,,,,,,,,,,,,,,images/exp1a_trial_82_colour2_distractors1_r.png,r,2,016,001,2021-04-20_18h36.40.126,searchDisc4,2020.2.10,Win32,60,,,space,0.11469,2,1,0.44372,,0,425,425,82,1,1a,82,2,1,
,,,,,,,,,,,,,,,,,,,,,,,,,,images/exp2b_trial_6_colour2_distractors1_r.png,r,2,016,001,2021-04-20_18h36.40.126,searchDisc4,2020.2.10,Win32,60,,,space,0.10172,2,1,0.54457,,0,426,426,348,1,2b,6,2,1,
,,,,,,,,,,,,,,,,,,,,,,,,,,images/exp1b_trial_62_colour2_distractors1_l.png,l,1,016,001,2021-04-20_18h36.40.126,searchDisc4,2020.2.10,Win32,60,,,space,0.12946,1,1,0.55498,,0,427,427,176,1,1b,62,2,1,
,,,,,,,,,,,,,,,,,,,,,,,,,,images/exp1a_trial_12_colour3_distractors1_r.png,r,2,016,001,2021-04-20_18h36.40.126,searchDisc4,2020.2.10,Win32,60,,,space,0.05284,2,1,0.49661,,0,428,428,12,1,1a,12,3,1,
,,,,,,,,,,,,,,,,,,,,,,,,,,images/exp2a_trial_94_colour1_distractors1_l.png,l,1,016,001,2021-04-20_18h36.40.126,searchDisc4,2020.2.10,Win32,60,,,space,0.104645,1,1,0.69015,,0,429,429,322,1,2a,94,1,1,
,,,,,,,,,,,,,,,,,,,,,,,,,,images/exp2c_trial_103_colour2_distractors19_l.png,l,1,016,001,2021-04-20_18h36.40.126,searchDisc4,2020.2.10,Win32,60,,,space,0.052945,1,1,0.494345,,0,430,430,559,1,2c,103,2,19,
,,,,,,,,,,,,,,,,,,,,,,,,,,images/exp2b_trial_14_colour3_distractors9_r.png,r,2,016,001,2021-04-20_18h36.40.126,searchDisc4,2020.2.10,Win32,60,,,space,0.06772,2,1,0.467085,,0,431,431,356,1,2b,14,3,9,
,,,,,,,,,,,,,,,,,,,,,,,,,,images/exp1b_trial_42_colour1_distractors31_r.png,r,2,016,001,2021-04-20_18h36.40.126,searchDisc4,2020.2.10,Win32,60,,,space,0.10352,2,1,0.549145,,0,432,432,156,1,1b,42,1,31,
,,,,,,,,,,,,,,,,,,,,,,,,,,images/exp2c_trial_98_colour1_distractors31_l.png,l,1,016,001,2021-04-20_18h36.40.126,searchDisc4,2020.2.10,Win32,60,,,space,0.08001,1,1,0.43836,,0,433,433,554,1,2c,98,1,31,
,,,,,,,,,,,,,,,,,,,,,,,,,,images/exp2b_trial_104_colour2_distractors31_l.png,l,1,016,001,2021-04-20_18h36.40.126,searchDisc4,2020.2.10,Win32,60,,,space,0.08878,1,1,0.479195,,0,434,434,446,1,2b,104,2,31,
,,,,,,,,,,,,,,,,,,,,,,,,,,images/exp1b_trial_55_colour3_distractors43_r.png,r,2,016,001,2021-04-20_18h36.40.126,searchDisc4,2020.2.10,Win32,60,,,space,0.10117,2,1,2.307115,,0,435,435,169,1,1b,55,3,43,
,,,,,,,,,,,,,,,,,,,,,,,,,,images/exp2a_trial_36_colour0_distractors0_r.png,r,2,016,001,2021-04-20_18h36.40.126,searchDisc4,2020.2.10,Win32,60,,,space,0.11647,2,1,0.40147,,0,436,436,264,1,2a,36,0,0,
,,,,,,,,,,,,,,,,,,,,,,,,,,images/exp1b_trial_26_colour2_distractors9_l.png,l,1,016,001,2021-04-20_18h36.40.126,searchDisc4,2020.2.10,Win32,60,,,space,0.090415,1,1,0.54848,,0,437,437,140,1,1b,26,2,9,
,,,,,,,,,,,,,,,,,,,,,,,,,,images/exp1a_trial_73_colour3_distractors43_l.png,l,1,016,001,2021-04-20_18h36.40.126,searchDisc4,2020.2.10,Win32,60,,,space,0.036595,1,1,0.660275,,0,438,438,73,1,1a,73,3,43,
,,,,,,,,,,,,,,,,,,,,,,,,,,images/exp2a_trial_15_colour3_distractors19_r.png,r,2,016,001,2021-04-20_18h36.40.126,searchDisc4,2020.2.10,Win32,60,,,space,0.03465,2,1,0.5227,,0,439,439,243,1,2a,15,3,19,
,,,,,,,,,,,,,,,,,,,,,,,,,,images/exp2b_trial_78_colour1_distractors9_r.png,r,2,016,001,2021-04-20_18h36.40.126,searchDisc4,2020.2.10,Win32,60,,,space,0.09332,2,1,0.577105,,0,440,440,420,1,2b,78,1,9,
,,,,,,,,,,,,,,,,,,,,,,,,,,images/exp2b_trial_40_colour1_distractors9_r.png,r,2,016,001,2021-04-20_18h36.40.126,searchDisc4,2020.2.10,Win32,60,,,space,0.087965,1,0,0.51264,,0,441,441,382,1,2b,40,1,9,
,,,,,,,,,,,,,,,,,,,,,,,,,,images/exp1b_trial_22_colour1_distractors31_l.png,l,1,016,001,2021-04-20_18h36.40.126,searchDisc4,2020.2.10,Win32,60,,,space,0.038595,1,1,0.700255,,0,442,442,136,1,1b,22,1,31,
,,,,,,,,,,,,,,,,,,,,,,,,,,images/exp2b_trial_86_colour2_distractors31_r.png,r,2,016,001,2021-04-20_18h36.40.126,searchDisc4,2020.2.10,Win32,60,,,space,0.062795,2,1,0.477245,,0,443,443,428,1,2b,86,2,31,
,,,,,,,,,,,,,,,,,,,,,,,,,,images/exp2a_trial_19_colour1_distractors4_l.png,l,1,016,001,2021-04-20_18h36.40.126,searchDisc4,2020.2.10,Win32,60,,,space,0.115105,1,1,0.54915,,0,444,444,247,1,2a,19,1,4,
,,,,,,,,,,,,,,,,,,,,,,,,,,images/exp1a_trial_17_colour3_distractors43_r.png,r,2,016,001,2021-04-20_18h36.40.126,searchDisc4,2020.2.10,Win32,60,,,space,0.05376,2,1,0.543585,,0,445,445,17,1,1a,17,3,43,
,,,,,,,,,,,,,,,,,,,,,,,,,,images/exp1a_trial_51_colour3_distractors4_r.png,r,2,016,001,2021-04-20_18h36.40.126,searchDisc4,2020.2.10,Win32,60,,,space,0.107075,2,1,0.51255,,0,446,446,51,1,1a,51,3,4,
,,,,,,,,,,,,,,,,,,,,,,,,,,images/exp2a_trial_20_colour1_distractors9_l.png,l,1,016,001,2021-04-20_18h36.40.126,searchDisc4,2020.2.10,Win32,60,,,space,0.11936,2,0,0.489135,,0,447,447,248,1,2a,20,1,9,
,,,,,,,,,,,,,,,,,,,,,,,,,,images/exp1a_trial_10_colour2_distractors31_r.png,r,2,016,001,2021-04-20_18h36.40.126,searchDisc4,2020.2.10,Win32,60,,,space,0.570295,2,1,0.514885,,0,448,448,10,1,1a,10,2,31,
,,,,,,,,,,,,,,,,,,,,,,,,,,images/exp2a_trial_40_colour1_distractors9_r.png,r,2,016,001,2021-04-20_18h36.40.126,searchDisc4,2020.2.10,Win32,60,,,space,0.06965,2,1,0.579435,,0,449,449,268,1,2a,40,1,9,
,,,,,,,,,,,,,,,,,,,,,,,,,,images/exp2a_trial_69_colour3_distractors4_l.png,l,1,016,001,2021-04-20_18h36.40.126,searchDisc4,2020.2.10,Win32,60,,,space,0.093365,1,1,0.476235,,0,450,450,297,1,2a,69,3,4,
,,,,,,,,,,,,,,,,,,,,,,,,,,images/exp1a_trial_6_colour2_distractors1_r.png,r,2,016,001,2021-04-20_18h36.40.126,searchDisc4,2020.2.10,Win32,60,,,space,0.039705,2,1,0.487115,,0,451,451,6,1,1a,6,2,1,
,,,,,,,,,,,,,,,,,,,,,,,,,,images/exp2b_trial_15_colour3_distractors19_r.png,r,2,016,001,2021-04-20_18h36.40.126,searchDisc4,2020.2.10,Win32,60,,,space,0.10319,2,1,0.717705,,0,452,452,357,1,2b,15,3,19,
,,,,,,,,,,,,,,,,,,,,,,,,,,images/exp2c_trial_87_colour2_distractors43_r.png,r,2,016,001,2021-04-20_18h36.40.126,searchDisc4,2020.2.10,Win32,60,,,space,0.097655,2,1,0.59389,,0,453,453,543,1,2c,87,2,43,
,,,,,,,,,,,,,,,,,,,,,,,,,,images/exp2c_trial_71_colour3_distractors19_l.png,l,1,016,001,2021-04-20_18h36.40.126,searchDisc4,2020.2.10,Win32,60,,,space,0.102455,1,1,0.649145,,0,454,454,527,1,2c,71,3,19,
,,,,,,,,,,,,,,,,,,,,,,,,,,images/exp1a_trial_106_colour3_distractors1_l.png,l,1,016,001,2021-04-20_18h36.40.126,searchDisc4,2020.2.10,Win32,60,,,space,0.01782,1,1,0.65554,,0,455,455,106,1,1a,106,3,1,
,,,,,,,,,,,,,,,,,,,,,,,,,,images/exp2a_trial_104_colour2_distractors31_l.png,l,1,016,001,2021-04-20_18h36.40.126,searchDisc4,2020.2.10,Win32,60,,,space,0.062285,1,1,0.591905,,0,456,456,332,1,2a,104,2,31,
,,,,,,,,,,,,,,,,,,,,,,,,,,images/exp2c_trial_104_colour2_distractors31_l.png,l,1,016,001,2021-04-20_18h36.40.126,searchDisc4,2020.2.10,Win32,60,,,space,0.101025,1,1,0.56771,,0,457,457,560,1,2c,104,2,31,
,,,,,,,,,,,,,,,,,,,,,,,,,,images/exp2b_trial_98_colour1_distractors31_l.png,l,1,016,001,2021-04-20_18h36.40.126,searchDisc4,2020.2.10,Win32,60,,,space,0.06498,1,1,0.503885,,0,458,458,440,1,2b,98,1,31,
,,,,,,,,,,,,,,,,,,,,,,,,,,images/exp1b_trial_69_colour3_distractors4_l.png,l,1,016,001,2021-04-20_18h36.40.126,searchDisc4,2020.2.10,Win32,60,,,space,0.04488,1,1,0.697145,,0,459,459,183,1,1b,69,3,4,
,,,,,,,,,,,,,,,,,,,,,,,,,,images/exp2b_trial_96_colour1_distractors9_l.png,l,1,016,001,2021-04-20_18h36.40.126,searchDisc4,2020.2.10,Win32,60,,,space,0.034535,1,1,0.718505,,0,460,460,438,1,2b,96,1,9,
,,,,,,,,,,,,,,,,,,,,,,,,,,images/exp2c_trial_53_colour3_distractors19_r.png,r,2,016,001,2021-04-20_18h36.40.126,searchDisc4,2020.2.10,Win32,60,,,space,0.048335,2,1,0.69748,,0,461,461,509,1,2c,53,3,19,
,,,,,,,,,,,,,,,,,,,,,,,,,,images/exp1a_trial_37_colour0_distractors0_l.png,l,1,016,001,2021-04-20_18h36.40.126,searchDisc4,2020.2.10,Win32,60,,,space,0.08223,1,1,0.50055,,0,462,462,37,1,1a,37,0,0,
,,,,,,,,,,,,,,,,,,,,,,,,,,images/exp2b_trial_18_colour1_distractors1_l.png,l,1,016,001,2021-04-20_18h36.40.126,searchDisc4,2020.2.10,Win32,60,,,space,0.080985,2,0,0.540395,,0,463,463,360,1,2b,18,1,1,
,,,,,,,,,,,,,,,,,,,,,,,,,,images/exp2a_trial_107_colour3_distractors4_l.png,l,1,016,001,2021-04-20_18h36.40.126,searchDisc4,2020.2.10,Win32,60,,,space,0.48357,1,1,0.52291,,0,464,464,335,1,2a,107,3,4,
,,,,,,,,,,,,,,,,,,,,,,,,,,images/exp2a_trial_86_colour2_distractors31_r.png,r,2,016,001,2021-04-20_18h36.40.126,searchDisc4,2020.2.10,Win32,60,,,space,0.050955,2,1,0.5762,,0,465,465,314,1,2a,86,2,31,
,,,,,,,,,,,,,,,,,,,,,,,,,,images/exp2b_trial_29_colour2_distractors43_l.png,l,1,016,001,2021-04-20_18h36.40.126,searchDisc4,2020.2.10,Win32,60,,,space,0.088915,1,1,0.504955,,0,466,466,371,1,2b,29,2,43,
,,,,,,,,,,,,,,,,,,,,,,,,,,images/exp1a_trial_15_colour3_distractors19_r.png,r,2,016,001,2021-04-20_18h36.40.126,searchDisc4,2020.2.10,Win32,60,,,space,0.08535,2,1,0.63429,,0,467,467,15,1,1a,15,3,19,
,,,,,,,,,,,,,,,,,,,,,,,,,,images/exp2a_trial_98_colour1_distractors31_l.png,l,1,016,001,2021-04-20_18h36.40.126,searchDisc4,2020.2.10,Win32,60,,,space,0.049635,1,1,0.63202,,0,468,468,326,1,2a,98,1,31,
,,,,,,,,,,,,,,,,,,,,,,,,,,images/exp1b_trial_11_colour2_distractors43_r.png,r,2,016,001,2021-04-20_18h36.40.126,searchDisc4,2020.2.10,Win32,60,,,space,0.03969,2,1,0.64379,,0,469,469,125,1,1b,11,2,43,
,,,,,,,,,,,,,,,,,,,,,,,,,,images/exp2a_trial_39_colour1_distractors4_r.png,r,2,016,001,2021-04-20_18h36.40.126,searchDisc4,2020.2.10,Win32,60,,,space,0.04262,1,0,0.532815,,0,470,470,267,1,2a,39,1,4,
,,,,,,,,,,,,,,,,,,,,,,,,,,images/exp2a_trial_16_colour3_distractors31_r.png,r,2,016,001,2021-04-20_18h36.40.126,searchDisc4,2020.2.10,Win32,60,,,space,0.20361,2,1,0.737025,,0,471,471,244,1,2a,16,3,31,
,,,,,,,,,,,,,,,,,,,,,,,,,,images/exp2b_trial_7_colour2_distractors4_r.png,r,2,016,001,2021-04-20_18h36.40.126,searchDisc4,2020.2.10,Win32,60,,,space,0.0592,2,1,0.67996,,0,472,472,349,1,2b,7,2,4,
,,,,,,,,,,,,,,,,,,,,,,,,,,images/exp1b_trial_4_colour1_distractors31_r.png,r,2,016,001,2021-04-20_18h36.40.126,searchDisc4,2020.2.10,Win32,60,,,space,0.0988,2,1,0.76137,,0,473,473,118,1,1b,4,1,31,
,,,,,,,,,,,,,,,,,,,,,,,,,,images/exp2b_trial_3_colour1_distractors19_r.png,r,2,016,001,2021-04-20_18h36.40.126,searchDisc4,2020.2.10,Win32,60,,,space,0.054355,2,1,0.521575,,0,474,474,345,1,2b,3,1,19,
,,,,,,,,,,,,,,,,,,,,,,,,,,images/exp2a_trial_7_colour2_distractors4_r.png,r,2,016,001,2021-04-20_18h36.40.126,searchDisc4,2020.2.10,Win32,60,,,space,0.082845,2,1,0.487415,,0,475,475,235,1,2a,7,2,4,
,,,,,,,,,,,,,,,,,,,,,,,,,,images/exp1b_trial_98_colour1_distractors31_l.png,l,1,016,001,2021-04-20_18h36.40.126,searchDisc4,2020.2.10,Win32,60,,,space,0.09995,1,1,0.770575,,0,476,476,212,1,1b,98,1,31,
