X Scale,Y Scale,key_resp_10.keys,key_resp_10.rt,key_resp_11.keys,key_resp_11.rt,key_resp_12.keys,key_resp_12.rt,key_resp_13.keys,key_resp_13.rt,key_resp_5.keys,key_resp_5.rt,key_resp_8.keys,key_resp_8.rt,key_resp_6.keys,key_resp_6.rt,key_resp_7.keys,key_resp_7.rt,key_resp_4.keys,key_resp_4.corr,trials_2.thisRepN,trials_2.thisTrialN,trials_2.thisN,trials_2.thisIndex,trials_2.ran,ImageFile,targ_side,correctAnswer,participant,session,date,expName,psychopyVersion,OS,frameRate,key_resp_4.rt,key_resp_3.keys,key_resp_3.rt,key_resp_9.keys,key_resp_9.rt,key_resp_2.keys,key_resp_2.corr,key_resp_2.rt,key_resp.keys,trials.thisRepN,trials.thisTrialN,trials.thisN,trials.thisIndex,trials.ran,exp,trial,colour,distNo,key_resp.rt
20.5,20.3,space,7.313,space,39.195,space,38.53,space,10.666,space,8.389,space,66.699,space,19.968,space,23.181,,0,0,0,0,14,1,Practice arrays/exp1a_trial_29_colour2_distractors43_l.png,l,1,017,001,2021-04-20_12h23.08.422,searchDisc4,2020.2.10,Win32,60,,,,,,,,,,,,,,,,,,,
,,,,,,,,,,,,,,,,space,4.235,1,0,0,1,1,0,1,Practice arrays/exp1a_trial_0_colour1_distractors1_r.png,r,2,017,001,2021-04-20_12h23.08.422,searchDisc4,2020.2.10,Win32,60,0.843,,,,,,,,,,,,,,,,,,
,,,,,,,,,,,,,,,,space,3.92,1,1,0,2,2,9,1,Practice arrays/exp1a_trial_19_colour1_distractors4_l.png,l,1,017,001,2021-04-20_12h23.08.422,searchDisc4,2020.2.10,Win32,60,0.829,,,,,,,,,,,,,,,,,,
,,,,,,,,,,,,,,,,space,1.47,2,1,0,3,3,4,1,Practice arrays/exp1a_trial_8_colour2_distractors9_r.png,r,2,017,001,2021-04-20_12h23.08.422,searchDisc4,2020.2.10,Win32,60,0.629,,,,,,,,,,,,,,,,,,
,,,,,,,,,,,,,,,,space,0.851,2,1,0,4,4,6,1,Practice arrays/exp1a_trial_12_colour3_distractors1_r.png,r,2,017,001,2021-04-20_12h23.08.422,searchDisc4,2020.2.10,Win32,60,0.512,,,,,,,,,,,,,,,,,,
,,,,,,,,,,,,,,,,space,0.441,2,0,0,5,5,10,1,Practice arrays/exp1a_trial_20_colour1_distractors9_l.png,l,1,017,001,2021-04-20_12h23.08.422,searchDisc4,2020.2.10,Win32,60,0.582,,,,,,,,,,,,,,,,,,
,,,,,,,,,,,,,,,,space,0.451,2,1,0,6,6,18,1,Practice arrays/exp1a_trial_36_colour0_distractors0_r.png,r,2,017,001,2021-04-20_12h23.08.422,searchDisc4,2020.2.10,Win32,60,0.528,,,,,,,,,,,,,,,,,,
,,,,,,,,,,,,,,,,space,0.539,1,1,0,7,7,13,1,Practice arrays/exp1a_trial_28_colour2_distractors31_l.png,l,1,017,001,2021-04-20_12h23.08.422,searchDisc4,2020.2.10,Win32,60,0.836,,,,,,,,,,,,,,,,,,
,,,,,,,,,,,,,,,,space,0.435,1,1,0,8,8,19,1,Practice arrays/exp1a_trial_37_colour0_distractors0_l.png,l,1,017,001,2021-04-20_12h23.08.422,searchDisc4,2020.2.10,Win32,60,0.584,,,,,,,,,,,,,,,,,,
,,,,,,,,,,,,,,,,space,0.451,1,1,0,9,9,15,1,Practice arrays/exp1a_trial_32_colour3_distractors9_l.png,l,1,017,001,2021-04-20_12h23.08.422,searchDisc4,2020.2.10,Win32,60,0.715,,,,,,,,,,,,,,,,,,
,,,,,,,,,,,,,,,,space,0.569,1,1,0,10,10,12,1,Practice arrays/exp1a_trial_25_colour2_distractors4_l.png,l,1,017,001,2021-04-20_12h23.08.422,searchDisc4,2020.2.10,Win32,60,0.628,,,,,,,,,,,,,,,,,,
,,,,,,,,,,,,,,,,space,0.368,1,1,0,11,11,17,1,Practice arrays/exp1a_trial_35_colour3_distractors43_l.png,l,1,017,001,2021-04-20_12h23.08.422,searchDisc4,2020.2.10,Win32,60,0.837,,,,,,,,,,,,,,,,,,
,,,,,,,,,,,,,,,,space,0.386,2,1,0,12,12,8,1,Practice arrays/exp1a_trial_16_colour3_distractors31_r.png,r,2,017,001,2021-04-20_12h23.08.422,searchDisc4,2020.2.10,Win32,60,0.784,,,,,,,,,,,,,,,,,,
,,,,,,,,,,,,,,,,space,0.442,2,1,0,13,13,2,1,Practice arrays/exp1a_trial_5_colour1_distractors43_r.png,r,2,017,001,2021-04-20_12h23.08.422,searchDisc4,2020.2.10,Win32,60,0.894,,,,,,,,,,,,,,,,,,
,,,,,,,,,,,,,,,,space,0.759,1,1,0,14,14,16,1,Practice arrays/exp1a_trial_33_colour3_distractors19_l.png,l,1,017,001,2021-04-20_12h23.08.422,searchDisc4,2020.2.10,Win32,60,0.662,,,,,,,,,,,,,,,,,,
,,,,,,,,,,,,,,,,space,0.435,2,1,0,15,15,7,1,Practice arrays/exp1a_trial_13_colour3_distractors4_r.png,r,2,017,001,2021-04-20_12h23.08.422,searchDisc4,2020.2.10,Win32,60,0.796,,,,,,,,,,,,,,,,,,
,,,,,,,,,,,,,,,,space,0.421,2,1,0,16,16,1,1,Practice arrays/exp1a_trial_3_colour1_distractors19_r.png,r,2,017,001,2021-04-20_12h23.08.422,searchDisc4,2020.2.10,Win32,60,0.699,,,,,,,,,,,,,,,,,,
,,,,,,,,,,,,,,,,space,0.34,1,1,0,17,17,11,1,Practice arrays/exp1a_trial_21_colour1_distractors19_l.png,l,1,017,001,2021-04-20_12h23.08.422,searchDisc4,2020.2.10,Win32,60,0.562,,,,,,,,,,,,,,,,,,
,,,,,,,,,,,,,,,,space,0.436,2,1,0,18,18,3,1,Practice arrays/exp1a_trial_7_colour2_distractors4_r.png,r,2,017,001,2021-04-20_12h23.08.422,searchDisc4,2020.2.10,Win32,60,0.713,,,,,,,,,,,,,,,,,,
,,,,,,,,,,,,,,,,space,0.451,2,1,0,19,19,5,1,Practice arrays/exp1a_trial_10_colour2_distractors31_r.png,r,2,017,001,2021-04-20_12h23.08.422,searchDisc4,2020.2.10,Win32,60,1.181,,,,,,,,,,,,,,,,,,
,,,,,,,,,,,,,,,,,,,,,,,,,images/exp1a_trial_28_colour2_distractors31_l.png,l,1,017,001,2021-04-20_12h23.08.422,searchDisc4,2020.2.10,Win32,60,,space,1.707,space,1.461,1,1,0.764,,0,0,0,28,1,1a,28,2,31,
,,,,,,,,,,,,,,,,,,,,,,,,,images/exp2a_trial_1_colour1_distractors4_r.png,r,2,017,001,2021-04-20_12h23.08.422,searchDisc4,2020.2.10,Win32,60,,,,space,1.505,2,1,0.668,,0,1,1,229,1,2a,1,1,4,
,,,,,,,,,,,,,,,,,,,,,,,,,images/exp2a_trial_113_colour0_distractors0_l.png,l,1,017,001,2021-04-20_12h23.08.422,searchDisc4,2020.2.10,Win32,60,,,,space,1.086,1,1,0.687,,0,2,2,341,1,2a,113,0,0,
,,,,,,,,,,,,,,,,,,,,,,,,,images/exp1a_trial_70_colour3_distractors9_l.png,l,1,017,001,2021-04-20_12h23.08.422,searchDisc4,2020.2.10,Win32,60,,,,space,0.505,1,1,0.782,,0,3,3,70,1,1a,70,3,9,
,,,,,,,,,,,,,,,,,,,,,,,,,images/exp1a_trial_93_colour3_distractors43_r.png,r,2,017,001,2021-04-20_12h23.08.422,searchDisc4,2020.2.10,Win32,60,,,,space,0.624,2,1,0.911,,0,4,4,93,1,1a,93,3,43,
,,,,,,,,,,,,,,,,,,,,,,,,,images/exp2c_trial_60_colour1_distractors31_l.png,l,1,017,001,2021-04-20_12h23.08.422,searchDisc4,2020.2.10,Win32,60,,,,space,0.585,1,1,0.846,,0,5,5,516,1,2c,60,1,31,
,,,,,,,,,,,,,,,,,,,,,,,,,images/exp2c_trial_33_colour3_distractors19_l.png,l,1,017,001,2021-04-20_12h23.08.422,searchDisc4,2020.2.10,Win32,60,,,,space,0.501,1,1,1.066,,0,6,6,489,1,2c,33,3,19,
,,,,,,,,,,,,,,,,,,,,,,,,,images/exp2a_trial_17_colour3_distractors43_r.png,r,2,017,001,2021-04-20_12h23.08.422,searchDisc4,2020.2.10,Win32,60,,,,space,0.585,2,1,0.854,,0,7,7,245,1,2a,17,3,43,
,,,,,,,,,,,,,,,,,,,,,,,,,images/exp1a_trial_85_colour2_distractors19_r.png,r,2,017,001,2021-04-20_12h23.08.422,searchDisc4,2020.2.10,Win32,60,,,,space,0.534,2,1,0.764,,0,8,8,85,1,1a,85,2,19,
,,,,,,,,,,,,,,,,,,,,,,,,,images/exp2a_trial_15_colour3_distractors19_r.png,r,2,017,001,2021-04-20_12h23.08.422,searchDisc4,2020.2.10,Win32,60,,,,space,0.534,1,0,0.818,,0,9,9,243,1,2a,15,3,19,
,,,,,,,,,,,,,,,,,,,,,,,,,images/exp2c_trial_111_colour3_distractors43_l.png,l,1,017,001,2021-04-20_12h23.08.422,searchDisc4,2020.2.10,Win32,60,,,,space,0.737,1,1,0.763,,0,10,10,567,1,2c,111,3,43,
,,,,,,,,,,,,,,,,,,,,,,,,,images/exp2c_trial_21_colour1_distractors19_l.png,l,1,017,001,2021-04-20_12h23.08.422,searchDisc4,2020.2.10,Win32,60,,,,space,0.456,1,1,0.679,,0,11,11,477,1,2c,21,1,19,
,,,,,,,,,,,,,,,,,,,,,,,,,images/exp1b_trial_24_colour2_distractors1_l.png,l,1,017,001,2021-04-20_12h23.08.422,searchDisc4,2020.2.10,Win32,60,,,,space,0.519,1,1,1.283,,0,12,12,138,1,1b,24,2,1,
,,,,,,,,,,,,,,,,,,,,,,,,,images/exp1a_trial_60_colour1_distractors31_l.png,l,1,017,001,2021-04-20_12h23.08.422,searchDisc4,2020.2.10,Win32,60,,,,space,0.589,1,1,0.867,,0,13,13,60,1,1a,60,1,31,
,,,,,,,,,,,,,,,,,,,,,,,,,images/exp1b_trial_33_colour3_distractors19_l.png,l,1,017,001,2021-04-20_12h23.08.422,searchDisc4,2020.2.10,Win32,60,,,,space,0.454,1,1,2.431,,0,14,14,147,1,1b,33,3,19,
,,,,,,,,,,,,,,,,,,,,,,,,,images/exp2b_trial_76_colour1_distractors1_r.png,r,2,017,001,2021-04-20_12h23.08.422,searchDisc4,2020.2.10,Win32,60,,,,space,0.535,2,1,0.65,,0,15,15,418,1,2b,76,1,1,
,,,,,,,,,,,,,,,,,,,,,,,,,images/exp2a_trial_102_colour2_distractors9_l.png,l,1,017,001,2021-04-20_12h23.08.422,searchDisc4,2020.2.10,Win32,60,,,,space,0.476,1,1,0.832,,0,16,16,330,1,2a,102,2,9,
,,,,,,,,,,,,,,,,,,,,,,,,,images/exp1b_trial_14_colour3_distractors9_r.png,r,2,017,001,2021-04-20_12h23.08.422,searchDisc4,2020.2.10,Win32,60,,,,space,0.501,2,1,1.813,,0,17,17,128,1,1b,14,3,9,
,,,,,,,,,,,,,,,,,,,,,,,,,images/exp1b_trial_13_colour3_distractors4_r.png,r,2,017,001,2021-04-20_12h23.08.422,searchDisc4,2020.2.10,Win32,60,,,,space,0.451,2,1,0.847,,0,18,18,127,1,1b,13,3,4,
,,,,,,,,,,,,,,,,,,,,,,,,,images/exp2b_trial_89_colour3_distractors4_r.png,r,2,017,001,2021-04-20_12h23.08.422,searchDisc4,2020.2.10,Win32,60,,,,space,0.501,2,1,0.913,,0,19,19,431,1,2b,89,3,4,
,,,,,,,,,,,,,,,,,,,,,,,,,images/exp2a_trial_61_colour1_distractors43_l.png,l,1,017,001,2021-04-20_12h23.08.422,searchDisc4,2020.2.10,Win32,60,,,,space,0.434,1,1,0.804,,0,20,20,289,1,2a,61,1,43,
,,,,,,,,,,,,,,,,,,,,,,,,,images/exp1a_trial_111_colour3_distractors43_l.png,l,1,017,001,2021-04-20_12h23.08.422,searchDisc4,2020.2.10,Win32,60,,,,space,0.421,1,1,0.845,,0,21,21,111,1,1a,111,3,43,
,,,,,,,,,,,,,,,,,,,,,,,,,images/exp2a_trial_26_colour2_distractors9_l.png,l,1,017,001,2021-04-20_12h23.08.422,searchDisc4,2020.2.10,Win32,60,,,,space,0.404,1,1,0.746,,0,22,22,254,1,2a,26,2,9,
,,,,,,,,,,,,,,,,,,,,,,,,,images/exp2c_trial_98_colour1_distractors31_l.png,l,1,017,001,2021-04-20_12h23.08.422,searchDisc4,2020.2.10,Win32,60,,,,space,0.44,1,1,0.779,,0,23,23,554,1,2c,98,1,31,
,,,,,,,,,,,,,,,,,,,,,,,,,images/exp2c_trial_54_colour3_distractors31_r.png,r,2,017,001,2021-04-20_12h23.08.422,searchDisc4,2020.2.10,Win32,60,,,,space,0.438,2,1,0.714,,0,24,24,510,1,2c,54,3,31,
,,,,,,,,,,,,,,,,,,,,,,,,,images/exp2c_trial_88_colour3_distractors1_r.png,r,2,017,001,2021-04-20_12h23.08.422,searchDisc4,2020.2.10,Win32,60,,,,space,0.441,2,1,0.747,,0,25,25,544,1,2c,88,3,1,
,,,,,,,,,,,,,,,,,,,,,,,,,images/exp1a_trial_40_colour1_distractors9_r.png,r,2,017,001,2021-04-20_12h23.08.422,searchDisc4,2020.2.10,Win32,60,,,,space,0.523,2,1,1.25,,0,26,26,40,1,1a,40,1,9,
,,,,,,,,,,,,,,,,,,,,,,,,,images/exp1b_trial_91_colour3_distractors19_r.png,r,2,017,001,2021-04-20_12h23.08.422,searchDisc4,2020.2.10,Win32,60,,,,space,0.301,2,1,2.962,,0,27,27,205,1,1b,91,3,19,
,,,,,,,,,,,,,,,,,,,,,,,,,images/exp2b_trial_24_colour2_distractors1_l.png,l,1,017,001,2021-04-20_12h23.08.422,searchDisc4,2020.2.10,Win32,60,,,,space,0.505,1,1,1.704,,0,28,28,366,1,2b,24,2,1,
,,,,,,,,,,,,,,,,,,,,,,,,,images/exp2a_trial_64_colour2_distractors9_l.png,l,1,017,001,2021-04-20_12h23.08.422,searchDisc4,2020.2.10,Win32,60,,,,space,0.551,1,1,0.679,,0,29,29,292,1,2a,64,2,9,
,,,,,,,,,,,,,,,,,,,,,,,,,images/exp1a_trial_27_colour2_distractors19_l.png,l,1,017,001,2021-04-20_12h23.08.422,searchDisc4,2020.2.10,Win32,60,,,,space,0.485,2,0,0.746,,0,30,30,27,1,1a,27,2,19,
,,,,,,,,,,,,,,,,,,,,,,,,,images/exp2a_trial_23_colour1_distractors43_l.png,l,1,017,001,2021-04-20_12h23.08.422,searchDisc4,2020.2.10,Win32,60,,,,space,1.135,1,1,1.412,,0,31,31,251,1,2a,23,1,43,
,,,,,,,,,,,,,,,,,,,,,,,,,images/exp1a_trial_97_colour1_distractors19_l.png,l,1,017,001,2021-04-20_12h23.08.422,searchDisc4,2020.2.10,Win32,60,,,,space,0.785,1,1,0.729,,0,32,32,97,1,1a,97,1,19,
,,,,,,,,,,,,,,,,,,,,,,,,,images/exp1a_trial_74_colour0_distractors0_r.png,r,2,017,001,2021-04-20_12h23.08.422,searchDisc4,2020.2.10,Win32,60,,,,space,0.401,2,1,0.882,,0,33,33,74,1,1a,74,0,0,
,,,,,,,,,,,,,,,,,,,,,,,,,images/exp1b_trial_10_colour2_distractors31_r.png,r,2,017,001,2021-04-20_12h23.08.422,searchDisc4,2020.2.10,Win32,60,,,,space,0.484,2,1,0.864,,0,34,34,124,1,1b,10,2,31,
,,,,,,,,,,,,,,,,,,,,,,,,,images/exp2a_trial_72_colour3_distractors31_l.png,l,1,017,001,2021-04-20_12h23.08.422,searchDisc4,2020.2.10,Win32,60,,,,space,0.602,1,1,0.735,,0,35,35,300,1,2a,72,3,31,
,,,,,,,,,,,,,,,,,,,,,,,,,images/exp1b_trial_83_colour2_distractors4_r.png,r,2,017,001,2021-04-20_12h23.08.422,searchDisc4,2020.2.10,Win32,60,,,,space,0.557,2,1,0.98,,0,36,36,197,1,1b,83,2,4,
,,,,,,,,,,,,,,,,,,,,,,,,,images/exp2c_trial_15_colour3_distractors19_r.png,r,2,017,001,2021-04-20_12h23.08.422,searchDisc4,2020.2.10,Win32,60,,,,space,0.534,2,1,0.718,,0,37,37,471,1,2c,15,3,19,
,,,,,,,,,,,,,,,,,,,,,,,,,images/exp2b_trial_59_colour1_distractors19_l.png,l,1,017,001,2021-04-20_12h23.08.422,searchDisc4,2020.2.10,Win32,60,,,,space,0.419,1,1,0.813,,0,38,38,401,1,2b,59,1,19,
,,,,,,,,,,,,,,,,,,,,,,,,,images/exp2b_trial_78_colour1_distractors9_r.png,r,2,017,001,2021-04-20_12h23.08.422,searchDisc4,2020.2.10,Win32,60,,,,space,0.452,2,1,0.698,,0,39,39,420,1,2b,78,1,9,
,,,,,,,,,,,,,,,,,,,,,,,,,images/exp2c_trial_52_colour3_distractors9_r.png,r,2,017,001,2021-04-20_12h23.08.422,searchDisc4,2020.2.10,Win32,60,,,,space,0.424,2,1,0.964,,0,40,40,508,1,2c,52,3,9,
,,,,,,,,,,,,,,,,,,,,,,,,,images/exp2a_trial_59_colour1_distractors19_l.png,l,1,017,001,2021-04-20_12h23.08.422,searchDisc4,2020.2.10,Win32,60,,,,space,0.418,1,1,0.717,,0,41,41,287,1,2a,59,1,19,
,,,,,,,,,,,,,,,,,,,,,,,,,images/exp2a_trial_13_colour3_distractors4_r.png,r,2,017,001,2021-04-20_12h23.08.422,searchDisc4,2020.2.10,Win32,60,,,,space,0.485,2,1,0.918,,0,42,42,241,1,2a,13,3,4,
,,,,,,,,,,,,,,,,,,,,,,,,,images/exp2a_trial_110_colour3_distractors31_l.png,l,1,017,001,2021-04-20_12h23.08.422,searchDisc4,2020.2.10,Win32,60,,,,space,0.885,1,1,0.929,,0,43,43,338,1,2a,110,3,31,
,,,,,,,,,,,,,,,,,,,,,,,,,images/exp2a_trial_33_colour3_distractors19_l.png,l,1,017,001,2021-04-20_12h23.08.422,searchDisc4,2020.2.10,Win32,60,,,,space,0.403,1,1,0.943,,0,44,44,261,1,2a,33,3,19,
,,,,,,,,,,,,,,,,,,,,,,,,,images/exp2b_trial_41_colour1_distractors19_r.png,r,2,017,001,2021-04-20_12h23.08.422,searchDisc4,2020.2.10,Win32,60,,,,space,0.457,2,1,0.754,,0,45,45,383,1,2b,41,1,19,
,,,,,,,,,,,,,,,,,,,,,,,,,images/exp2c_trial_84_colour2_distractors9_r.png,r,2,017,001,2021-04-20_12h23.08.422,searchDisc4,2020.2.10,Win32,60,,,,space,0.441,2,1,1.37,,0,46,46,540,1,2c,84,2,9,
,,,,,,,,,,,,,,,,,,,,,,,,,images/exp1a_trial_46_colour2_distractors9_r.png,r,2,017,001,2021-04-20_12h23.08.422,searchDisc4,2020.2.10,Win32,60,,,,space,0.818,2,1,0.97,,0,47,47,46,1,1a,46,2,9,
,,,,,,,,,,,,,,,,,,,,,,,,,images/exp2c_trial_32_colour3_distractors9_l.png,l,1,017,001,2021-04-20_12h23.08.422,searchDisc4,2020.2.10,Win32,60,,,,space,0.451,1,1,0.73,,0,48,48,488,1,2c,32,3,9,
,,,,,,,,,,,,,,,,,,,,,,,,,images/exp1a_trial_2_colour1_distractors9_r.png,r,2,017,001,2021-04-20_12h23.08.422,searchDisc4,2020.2.10,Win32,60,,,,space,0.718,2,1,0.695,,0,49,49,2,1,1a,2,1,9,
,,,,,,,,,,,,,,,,,,,,,,,,,images/exp2a_trial_91_colour3_distractors19_r.png,r,2,017,001,2021-04-20_12h23.08.422,searchDisc4,2020.2.10,Win32,60,,,,space,0.451,2,1,0.951,,0,50,50,319,1,2a,91,3,19,
,,,,,,,,,,,,,,,,,,,,,,,,,images/exp2c_trial_24_colour2_distractors1_l.png,l,1,017,001,2021-04-20_12h23.08.422,searchDisc4,2020.2.10,Win32,60,,,,space,0.385,1,1,0.928,,0,51,51,480,1,2c,24,2,1,
,,,,,,,,,,,,,,,,,,,,,,,,,images/exp2c_trial_57_colour1_distractors4_l.png,l,1,017,001,2021-04-20_12h23.08.422,searchDisc4,2020.2.10,Win32,60,,,,space,0.389,1,1,0.68,,0,52,52,513,1,2c,57,1,4,
,,,,,,,,,,,,,,,,,,,,,,,,,images/exp2c_trial_92_colour3_distractors31_r.png,r,2,017,001,2021-04-20_12h23.08.422,searchDisc4,2020.2.10,Win32,60,,,,space,0.284,2,1,0.68,,0,53,53,548,1,2c,92,3,31,
,,,,,,,,,,,,,,,,,,,,,,,,,images/exp2a_trial_53_colour3_distractors19_r.png,r,2,017,001,2021-04-20_12h23.08.422,searchDisc4,2020.2.10,Win32,60,,,,space,0.286,2,1,0.763,,0,54,54,281,1,2a,53,3,19,
,,,,,,,,,,,,,,,,,,,,,,,,,images/exp1b_trial_38_colour1_distractors1_r.png,r,2,017,001,2021-04-20_12h23.08.422,searchDisc4,2020.2.10,Win32,60,,,,space,0.585,2,1,1.1,,0,55,55,152,1,1b,38,1,1,
,,,,,,,,,,,,,,,,,,,,,,,,,images/exp2b_trial_14_colour3_distractors9_r.png,r,2,017,001,2021-04-20_12h23.08.422,searchDisc4,2020.2.10,Win32,60,,,,space,0.351,2,1,0.77,,0,56,56,356,1,2b,14,3,9,
,,,,,,,,,,,,,,,,,,,,,,,,,images/exp2c_trial_51_colour3_distractors4_r.png,r,2,017,001,2021-04-20_12h23.08.422,searchDisc4,2020.2.10,Win32,60,,,,space,0.334,2,1,0.913,,0,57,57,507,1,2c,51,3,4,
,,,,,,,,,,,,,,,,,,,,,,,,,images/exp2a_trial_55_colour3_distractors43_r.png,r,2,017,001,2021-04-20_12h23.08.422,searchDisc4,2020.2.10,Win32,60,,,,space,0.358,2,1,0.844,,0,58,58,283,1,2a,55,3,43,
,,,,,,,,,,,,,,,,,,,,,,,,,images/exp1b_trial_80_colour1_distractors31_r.png,r,2,017,001,2021-04-20_12h23.08.422,searchDisc4,2020.2.10,Win32,60,,,,space,0.342,2,1,0.818,space,0,59,59,194,1,1b,80,1,31,0.365
,,,,,,,,,,,,,,,,,,,,,,,,,images/exp1b_trial_67_colour2_distractors43_l.png,l,1,017,001,2021-04-20_12h23.08.422,searchDisc4,2020.2.10,Win32,60,,,,space,2.802,1,1,1.565,,0,60,60,181,1,1b,67,2,43,
,,,,,,,,,,,,,,,,,,,,,,,,,images/exp1a_trial_35_colour3_distractors43_l.png,l,1,017,001,2021-04-20_12h23.08.422,searchDisc4,2020.2.10,Win32,60,,,,space,0.418,1,1,0.919,,0,61,61,35,1,1a,35,3,43,
,,,,,,,,,,,,,,,,,,,,,,,,,images/exp2a_trial_66_colour2_distractors31_l.png,l,1,017,001,2021-04-20_12h23.08.422,searchDisc4,2020.2.10,Win32,60,,,,space,0.353,1,1,0.798,,0,62,62,294,1,2a,66,2,31,
,,,,,,,,,,,,,,,,,,,,,,,,,images/exp1a_trial_41_colour1_distractors19_r.png,r,2,017,001,2021-04-20_12h23.08.422,searchDisc4,2020.2.10,Win32,60,,,,space,0.403,2,1,0.767,,0,63,63,41,1,1a,41,1,19,
,,,,,,,,,,,,,,,,,,,,,,,,,images/exp2b_trial_67_colour2_distractors43_l.png,l,1,017,001,2021-04-20_12h23.08.422,searchDisc4,2020.2.10,Win32,60,,,,space,0.418,1,1,0.864,,0,64,64,409,1,2b,67,2,43,
,,,,,,,,,,,,,,,,,,,,,,,,,images/exp2b_trial_25_colour2_distractors4_l.png,l,1,017,001,2021-04-20_12h23.08.422,searchDisc4,2020.2.10,Win32,60,,,,space,0.701,1,1,0.682,,0,65,65,367,1,2b,25,2,4,
,,,,,,,,,,,,,,,,,,,,,,,,,images/exp2a_trial_6_colour2_distractors1_r.png,r,2,017,001,2021-04-20_12h23.08.422,searchDisc4,2020.2.10,Win32,60,,,,space,0.385,2,1,1.067,,0,66,66,234,1,2a,6,2,1,
,,,,,,,,,,,,,,,,,,,,,,,,,images/exp1b_trial_50_colour3_distractors1_r.png,r,2,017,001,2021-04-20_12h23.08.422,searchDisc4,2020.2.10,Win32,60,,,,space,0.334,2,1,1.163,,0,67,67,164,1,1b,50,3,1,
,,,,,,,,,,,,,,,,,,,,,,,,,images/exp1b_trial_19_colour1_distractors4_l.png,l,1,017,001,2021-04-20_12h23.08.422,searchDisc4,2020.2.10,Win32,60,,,,space,0.657,1,1,0.847,,0,68,68,133,1,1b,19,1,4,
,,,,,,,,,,,,,,,,,,,,,,,,,images/exp2c_trial_42_colour1_distractors31_r.png,r,2,017,001,2021-04-20_12h23.08.422,searchDisc4,2020.2.10,Win32,60,,,,space,0.368,2,1,1.279,,0,69,69,498,1,2c,42,1,31,
,,,,,,,,,,,,,,,,,,,,,,,,,images/exp1b_trial_68_colour3_distractors1_l.png,l,1,017,001,2021-04-20_12h23.08.422,searchDisc4,2020.2.10,Win32,60,,,,space,0.452,1,1,1.913,,0,70,70,182,1,1b,68,3,1,
,,,,,,,,,,,,,,,,,,,,,,,,,images/exp2c_trial_3_colour1_distractors19_r.png,r,2,017,001,2021-04-20_12h23.08.422,searchDisc4,2020.2.10,Win32,60,,,,space,0.401,2,1,1.586,,0,71,71,459,1,2c,3,1,19,
,,,,,,,,,,,,,,,,,,,,,,,,,images/exp1b_trial_105_colour2_distractors43_l.png,l,1,017,001,2021-04-20_12h23.08.422,searchDisc4,2020.2.10,Win32,60,,,,space,0.323,1,1,2.431,,0,72,72,219,1,1b,105,2,43,
,,,,,,,,,,,,,,,,,,,,,,,,,images/exp2c_trial_40_colour1_distractors9_r.png,r,2,017,001,2021-04-20_12h23.08.422,searchDisc4,2020.2.10,Win32,60,,,,space,0.404,2,1,0.755,,0,73,73,496,1,2c,40,1,9,
,,,,,,,,,,,,,,,,,,,,,,,,,images/exp2b_trial_86_colour2_distractors31_r.png,r,2,017,001,2021-04-20_12h23.08.422,searchDisc4,2020.2.10,Win32,60,,,,space,0.354,2,1,0.584,,0,74,74,428,1,2b,86,2,31,
,,,,,,,,,,,,,,,,,,,,,,,,,images/exp2c_trial_65_colour2_distractors19_l.png,l,1,017,001,2021-04-20_12h23.08.422,searchDisc4,2020.2.10,Win32,60,,,,space,0.389,1,1,0.669,,0,75,75,521,1,2c,65,2,19,
,,,,,,,,,,,,,,,,,,,,,,,,,images/exp1b_trial_41_colour1_distractors19_r.png,r,2,017,001,2021-04-20_12h23.08.422,searchDisc4,2020.2.10,Win32,60,,,,space,0.385,2,1,1.365,,0,76,76,155,1,1b,41,1,19,
,,,,,,,,,,,,,,,,,,,,,,,,,images/exp2a_trial_83_colour2_distractors4_r.png,r,2,017,001,2021-04-20_12h23.08.422,searchDisc4,2020.2.10,Win32,60,,,,space,0.348,2,1,0.772,,0,77,77,311,1,2a,83,2,4,
,,,,,,,,,,,,,,,,,,,,,,,,,images/exp2b_trial_61_colour1_distractors43_l.png,l,1,017,001,2021-04-20_12h23.08.422,searchDisc4,2020.2.10,Win32,60,,,,space,0.385,1,1,0.831,,0,78,78,403,1,2b,61,1,43,
,,,,,,,,,,,,,,,,,,,,,,,,,images/exp1b_trial_47_colour2_distractors19_r.png,r,2,017,001,2021-04-20_12h23.08.422,searchDisc4,2020.2.10,Win32,60,,,,space,0.392,2,1,1.353,,0,79,79,161,1,1b,47,2,19,
,,,,,,,,,,,,,,,,,,,,,,,,,images/exp2b_trial_47_colour2_distractors19_r.png,r,2,017,001,2021-04-20_12h23.08.422,searchDisc4,2020.2.10,Win32,60,,,,space,0.392,2,1,0.629,,0,80,80,389,1,2b,47,2,19,
,,,,,,,,,,,,,,,,,,,,,,,,,images/exp1a_trial_102_colour2_distractors9_l.png,l,1,017,001,2021-04-20_12h23.08.422,searchDisc4,2020.2.10,Win32,60,,,,space,0.368,1,1,1.13,,0,81,81,102,1,1a,102,2,9,
,,,,,,,,,,,,,,,,,,,,,,,,,images/exp2b_trial_35_colour3_distractors43_l.png,l,1,017,001,2021-04-20_12h23.08.422,searchDisc4,2020.2.10,Win32,60,,,,space,0.356,1,1,0.78,,0,82,82,377,1,2b,35,3,43,
,,,,,,,,,,,,,,,,,,,,,,,,,images/exp2c_trial_74_colour0_distractors0_r.png,r,2,017,001,2021-04-20_12h23.08.422,searchDisc4,2020.2.10,Win32,60,,,,space,0.385,2,1,0.681,,0,83,83,530,1,2c,74,0,0,
,,,,,,,,,,,,,,,,,,,,,,,,,images/exp2a_trial_85_colour2_distractors19_r.png,r,2,017,001,2021-04-20_12h23.08.422,searchDisc4,2020.2.10,Win32,60,,,,space,0.335,1,0,0.63,,0,84,84,313,1,2a,85,2,19,
,,,,,,,,,,,,,,,,,,,,,,,,,images/exp2a_trial_12_colour3_distractors1_r.png,r,2,017,001,2021-04-20_12h23.08.422,searchDisc4,2020.2.10,Win32,60,,,,space,1.001,2,1,1.048,,0,85,85,240,1,2a,12,3,1,
,,,,,,,,,,,,,,,,,,,,,,,,,images/exp1b_trial_9_colour2_distractors19_r.png,r,2,017,001,2021-04-20_12h23.08.422,searchDisc4,2020.2.10,Win32,60,,,,space,0.34,2,1,1.035,,0,86,86,123,1,1b,9,2,19,
,,,,,,,,,,,,,,,,,,,,,,,,,images/exp1b_trial_18_colour1_distractors1_l.png,l,1,017,001,2021-04-20_12h23.08.422,searchDisc4,2020.2.10,Win32,60,,,,space,0.388,1,1,0.896,,0,87,87,132,1,1b,18,1,1,
,,,,,,,,,,,,,,,,,,,,,,,,,images/exp1a_trial_16_colour3_distractors31_r.png,r,2,017,001,2021-04-20_12h23.08.422,searchDisc4,2020.2.10,Win32,60,,,,space,0.384,2,1,0.921,,0,88,88,16,1,1a,16,3,31,
,,,,,,,,,,,,,,,,,,,,,,,,,images/exp2b_trial_93_colour3_distractors43_r.png,r,2,017,001,2021-04-20_12h23.08.422,searchDisc4,2020.2.10,Win32,60,,,,space,0.401,2,1,1.332,,0,89,89,435,1,2b,93,3,43,
,,,,,,,,,,,,,,,,,,,,,,,,,images/exp2c_trial_16_colour3_distractors31_r.png,r,2,017,001,2021-04-20_12h23.08.422,searchDisc4,2020.2.10,Win32,60,,,,space,0.401,2,1,0.934,,0,90,90,472,1,2c,16,3,31,
,,,,,,,,,,,,,,,,,,,,,,,,,images/exp2c_trial_36_colour0_distractors0_r.png,r,2,017,001,2021-04-20_12h23.08.422,searchDisc4,2020.2.10,Win32,60,,,,space,0.405,2,1,1.08,,0,91,91,492,1,2c,36,0,0,
,,,,,,,,,,,,,,,,,,,,,,,,,images/exp2a_trial_67_colour2_distractors43_l.png,l,1,017,001,2021-04-20_12h23.08.422,searchDisc4,2020.2.10,Win32,60,,,,space,0.417,1,1,0.994,,0,92,92,295,1,2a,67,2,43,
,,,,,,,,,,,,,,,,,,,,,,,,,images/exp1a_trial_82_colour2_distractors1_r.png,r,2,017,001,2021-04-20_12h23.08.422,searchDisc4,2020.2.10,Win32,60,,,,space,0.352,2,1,0.681,,0,93,93,82,1,1a,82,2,1,
,,,,,,,,,,,,,,,,,,,,,,,,,images/exp1b_trial_32_colour3_distractors9_l.png,l,1,017,001,2021-04-20_12h23.08.422,searchDisc4,2020.2.10,Win32,60,,,,space,0.352,1,1,1.628,,0,94,94,146,1,1b,32,3,9,
,,,,,,,,,,,,,,,,,,,,,,,,,images/exp2b_trial_2_colour1_distractors9_r.png,r,2,017,001,2021-04-20_12h23.08.422,searchDisc4,2020.2.10,Win32,60,,,,space,0.343,2,1,0.677,,0,95,95,344,1,2b,2,1,9,
,,,,,,,,,,,,,,,,,,,,,,,,,images/exp2a_trial_42_colour1_distractors31_r.png,r,2,017,001,2021-04-20_12h23.08.422,searchDisc4,2020.2.10,Win32,60,,,,space,0.334,2,1,0.696,,0,96,96,270,1,2a,42,1,31,
,,,,,,,,,,,,,,,,,,,,,,,,,images/exp2c_trial_69_colour3_distractors4_l.png,l,1,017,001,2021-04-20_12h23.08.422,searchDisc4,2020.2.10,Win32,60,,,,space,0.351,1,1,1.019,,0,97,97,525,1,2c,69,3,4,
,,,,,,,,,,,,,,,,,,,,,,,,,images/exp2b_trial_48_colour2_distractors31_r.png,r,2,017,001,2021-04-20_12h23.08.422,searchDisc4,2020.2.10,Win32,60,,,,space,0.369,2,1,0.747,,0,98,98,390,1,2b,48,2,31,
,,,,,,,,,,,,,,,,,,,,,,,,,images/exp1a_trial_51_colour3_distractors4_r.png,r,2,017,001,2021-04-20_12h23.08.422,searchDisc4,2020.2.10,Win32,60,,,,space,0.368,2,1,0.729,,0,99,99,51,1,1a,51,3,4,
,,,,,,,,,,,,,,,,,,,,,,,,,images/exp1a_trial_71_colour3_distractors19_l.png,l,1,017,001,2021-04-20_12h23.08.422,searchDisc4,2020.2.10,Win32,60,,,,space,0.351,1,1,0.995,,0,100,100,71,1,1a,71,3,19,
,,,,,,,,,,,,,,,,,,,,,,,,,images/exp1a_trial_30_colour3_distractors1_l.png,l,1,017,001,2021-04-20_12h23.08.422,searchDisc4,2020.2.10,Win32,60,,,,space,0.338,1,1,0.636,,0,101,101,30,1,1a,30,3,1,
,,,,,,,,,,,,,,,,,,,,,,,,,images/exp2c_trial_4_colour1_distractors31_r.png,r,2,017,001,2021-04-20_12h23.08.422,searchDisc4,2020.2.10,Win32,60,,,,space,0.568,2,1,1.113,,0,102,102,460,1,2c,4,1,31,
,,,,,,,,,,,,,,,,,,,,,,,,,images/exp2a_trial_108_colour3_distractors9_l.png,l,1,017,001,2021-04-20_12h23.08.422,searchDisc4,2020.2.10,Win32,60,,,,space,0.305,1,1,0.811,,0,103,103,336,1,2a,108,3,9,
,,,,,,,,,,,,,,,,,,,,,,,,,images/exp1b_trial_40_colour1_distractors9_r.png,r,2,017,001,2021-04-20_12h23.08.422,searchDisc4,2020.2.10,Win32,60,,,,space,0.351,2,1,1.318,,0,104,104,154,1,1b,40,1,9,
,,,,,,,,,,,,,,,,,,,,,,,,,images/exp1a_trial_45_colour2_distractors4_r.png,r,2,017,001,2021-04-20_12h23.08.422,searchDisc4,2020.2.10,Win32,60,,,,space,0.31,2,1,0.898,,0,105,105,45,1,1a,45,2,4,
,,,,,,,,,,,,,,,,,,,,,,,,,images/exp2a_trial_94_colour1_distractors1_l.png,l,1,017,001,2021-04-20_12h23.08.422,searchDisc4,2020.2.10,Win32,60,,,,space,0.385,1,1,0.663,,0,106,106,322,1,2a,94,1,1,
,,,,,,,,,,,,,,,,,,,,,,,,,images/exp1b_trial_65_colour2_distractors19_l.png,l,1,017,001,2021-04-20_12h23.08.422,searchDisc4,2020.2.10,Win32,60,,,,space,0.375,1,1,1.763,,0,107,107,179,1,1b,65,2,19,
,,,,,,,,,,,,,,,,,,,,,,,,,images/exp2a_trial_101_colour2_distractors4_l.png,l,1,017,001,2021-04-20_12h23.08.422,searchDisc4,2020.2.10,Win32,60,,,,space,0.346,1,1,1.07,,0,108,108,329,1,2a,101,2,4,
,,,,,,,,,,,,,,,,,,,,,,,,,images/exp2c_trial_25_colour2_distractors4_l.png,l,1,017,001,2021-04-20_12h23.08.422,searchDisc4,2020.2.10,Win32,60,,,,space,0.406,1,1,0.848,,0,109,109,481,1,2c,25,2,4,
,,,,,,,,,,,,,,,,,,,,,,,,,images/exp2b_trial_38_colour1_distractors1_r.png,r,2,017,001,2021-04-20_12h23.08.422,searchDisc4,2020.2.10,Win32,60,,,,space,0.354,2,1,0.67,,0,110,110,380,1,2b,38,1,1,
,,,,,,,,,,,,,,,,,,,,,,,,,images/exp1b_trial_112_colour0_distractors0_r.png,r,2,017,001,2021-04-20_12h23.08.422,searchDisc4,2020.2.10,Win32,60,,,,space,0.351,2,1,0.595,,0,111,111,226,1,1b,112,0,0,
,,,,,,,,,,,,,,,,,,,,,,,,,images/exp2b_trial_88_colour3_distractors1_r.png,r,2,017,001,2021-04-20_12h23.08.422,searchDisc4,2020.2.10,Win32,60,,,,space,0.488,2,1,1.637,,0,112,112,430,1,2b,88,3,1,
,,,,,,,,,,,,,,,,,,,,,,,,,images/exp1b_trial_73_colour3_distractors43_l.png,l,1,017,001,2021-04-20_12h23.08.422,searchDisc4,2020.2.10,Win32,60,,,,space,0.268,1,1,2.664,,0,113,113,187,1,1b,73,3,43,
,,,,,,,,,,,,,,,,,,,,,,,,,images/exp1a_trial_62_colour2_distractors1_l.png,l,1,017,001,2021-04-20_12h23.08.422,searchDisc4,2020.2.10,Win32,60,,,,space,0.351,1,1,2.234,,0,114,114,62,1,1a,62,2,1,
,,,,,,,,,,,,,,,,,,,,,,,,,images/exp1b_trial_15_colour3_distractors19_r.png,r,2,017,001,2021-04-20_12h23.08.422,searchDisc4,2020.2.10,Win32,60,,,,space,0.442,2,1,1.445,,0,115,115,129,1,1b,15,3,19,
,,,,,,,,,,,,,,,,,,,,,,,,,images/exp2b_trial_28_colour2_distractors31_l.png,l,1,017,001,2021-04-20_12h23.08.422,searchDisc4,2020.2.10,Win32,60,,,,space,0.284,1,1,1.064,,0,116,116,370,1,2b,28,2,31,
,,,,,,,,,,,,,,,,,,,,,,,,,images/exp2b_trial_56_colour1_distractors1_l.png,l,1,017,001,2021-04-20_12h23.08.422,searchDisc4,2020.2.10,Win32,60,,,,space,0.358,1,1,0.595,,0,117,117,398,1,2b,56,1,1,
,,,,,,,,,,,,,,,,,,,,,,,,,images/exp1a_trial_98_colour1_distractors31_l.png,l,1,017,001,2021-04-20_12h23.08.422,searchDisc4,2020.2.10,Win32,60,,,,space,0.334,1,1,1.23,,0,118,118,98,1,1a,98,1,31,
,,,,,,,,,,,,,,,,,,,,,,,,,images/exp2b_trial_55_colour3_distractors43_r.png,r,2,017,001,2021-04-20_12h23.08.422,searchDisc4,2020.2.10,Win32,60,,,,space,0.319,2,1,0.58,space,0,119,119,397,1,2b,55,3,43,7.45
,,,,,,,,,,,,,,,,,,,,,,,,,images/exp2b_trial_0_colour1_distractors1_r.png,r,2,017,001,2021-04-20_12h23.08.422,searchDisc4,2020.2.10,Win32,60,,,,space,0.834,2,1,0.814,,0,120,120,342,1,2b,0,1,1,
,,,,,,,,,,,,,,,,,,,,,,,,,images/exp2b_trial_57_colour1_distractors4_l.png,l,1,017,001,2021-04-20_12h23.08.422,searchDisc4,2020.2.10,Win32,60,,,,space,0.337,1,1,0.705,,0,121,121,399,1,2b,57,1,4,
,,,,,,,,,,,,,,,,,,,,,,,,,images/exp1b_trial_101_colour2_distractors4_l.png,l,1,017,001,2021-04-20_12h23.08.422,searchDisc4,2020.2.10,Win32,60,,,,space,0.369,1,1,1.502,,0,122,122,215,1,1b,101,2,4,
,,,,,,,,,,,,,,,,,,,,,,,,,images/exp2b_trial_17_colour3_distractors43_r.png,r,2,017,001,2021-04-20_12h23.08.422,searchDisc4,2020.2.10,Win32,60,,,,space,0.302,2,1,1.046,,0,123,123,359,1,2b,17,3,43,
,,,,,,,,,,,,,,,,,,,,,,,,,images/exp2b_trial_87_colour2_distractors43_r.png,r,2,017,001,2021-04-20_12h23.08.422,searchDisc4,2020.2.10,Win32,60,,,,space,0.335,2,1,0.716,,0,124,124,429,1,2b,87,2,43,
,,,,,,,,,,,,,,,,,,,,,,,,,images/exp2c_trial_113_colour0_distractors0_l.png,l,1,017,001,2021-04-20_12h23.08.422,searchDisc4,2020.2.10,Win32,60,,,,space,0.341,1,1,0.68,,0,125,125,569,1,2c,113,0,0,
,,,,,,,,,,,,,,,,,,,,,,,,,images/exp2c_trial_11_colour2_distractors43_r.png,r,2,017,001,2021-04-20_12h23.08.422,searchDisc4,2020.2.10,Win32,60,,,,space,0.4,2,1,0.896,,0,126,126,467,1,2c,11,2,43,
,,,,,,,,,,,,,,,,,,,,,,,,,images/exp2b_trial_81_colour1_distractors43_r.png,r,2,017,001,2021-04-20_12h23.08.422,searchDisc4,2020.2.10,Win32,60,,,,space,0.34,2,1,0.746,,0,127,127,423,1,2b,81,1,43,
,,,,,,,,,,,,,,,,,,,,,,,,,images/exp2b_trial_112_colour0_distractors0_r.png,r,2,017,001,2021-04-20_12h23.08.422,searchDisc4,2020.2.10,Win32,60,,,,space,0.373,2,1,0.779,,0,128,128,454,1,2b,112,0,0,
,,,,,,,,,,,,,,,,,,,,,,,,,images/exp1a_trial_14_colour3_distractors9_r.png,r,2,017,001,2021-04-20_12h23.08.422,searchDisc4,2020.2.10,Win32,60,,,,space,0.336,2,1,0.829,,0,129,129,14,1,1a,14,3,9,
,,,,,,,,,,,,,,,,,,,,,,,,,images/exp2b_trial_108_colour3_distractors9_l.png,l,1,017,001,2021-04-20_12h23.08.422,searchDisc4,2020.2.10,Win32,60,,,,space,0.724,1,1,0.964,,0,130,130,450,1,2b,108,3,9,
,,,,,,,,,,,,,,,,,,,,,,,,,images/exp2b_trial_105_colour2_distractors43_l.png,l,1,017,001,2021-04-20_12h23.08.422,searchDisc4,2020.2.10,Win32,60,,,,space,0.387,1,1,1.234,,0,131,131,447,1,2b,105,2,43,
,,,,,,,,,,,,,,,,,,,,,,,,,images/exp1a_trial_52_colour3_distractors9_r.png,r,2,017,001,2021-04-20_12h23.08.422,searchDisc4,2020.2.10,Win32,60,,,,space,0.39,2,1,0.65,,0,132,132,52,1,1a,52,3,9,
,,,,,,,,,,,,,,,,,,,,,,,,,images/exp2c_trial_90_colour3_distractors9_r.png,r,2,017,001,2021-04-20_12h23.08.422,searchDisc4,2020.2.10,Win32,60,,,,space,0.401,1,0,0.663,,0,133,133,546,1,2c,90,3,9,
,,,,,,,,,,,,,,,,,,,,,,,,,images/exp2c_trial_70_colour3_distractors9_l.png,l,1,017,001,2021-04-20_12h23.08.422,searchDisc4,2020.2.10,Win32,60,,,,space,0.951,1,1,0.879,,0,134,134,526,1,2c,70,3,9,
,,,,,,,,,,,,,,,,,,,,,,,,,images/exp1a_trial_88_colour3_distractors1_r.png,r,2,017,001,2021-04-20_12h23.08.422,searchDisc4,2020.2.10,Win32,60,,,,space,0.268,2,1,0.696,,0,135,135,88,1,1a,88,3,1,
,,,,,,,,,,,,,,,,,,,,,,,,,images/exp2c_trial_61_colour1_distractors43_l.png,l,1,017,001,2021-04-20_12h23.08.422,searchDisc4,2020.2.10,Win32,60,,,,space,0.317,1,1,0.885,,0,136,136,517,1,2c,61,1,43,
,,,,,,,,,,,,,,,,,,,,,,,,,images/exp2c_trial_55_colour3_distractors43_r.png,r,2,017,001,2021-04-20_12h23.08.422,searchDisc4,2020.2.10,Win32,60,,,,space,0.334,2,1,0.98,,0,137,137,511,1,2c,55,3,43,
,,,,,,,,,,,,,,,,,,,,,,,,,images/exp1a_trial_105_colour2_distractors43_l.png,l,1,017,001,2021-04-20_12h23.08.422,searchDisc4,2020.2.10,Win32,60,,,,space,0.284,1,1,0.936,,0,138,138,105,1,1a,105,2,43,
,,,,,,,,,,,,,,,,,,,,,,,,,images/exp2a_trial_24_colour2_distractors1_l.png,l,1,017,001,2021-04-20_12h23.08.422,searchDisc4,2020.2.10,Win32,60,,,,space,0.972,1,1,0.766,,0,139,139,252,1,2a,24,2,1,
,,,,,,,,,,,,,,,,,,,,,,,,,images/exp1b_trial_89_colour3_distractors4_r.png,r,2,017,001,2021-04-20_12h23.08.422,searchDisc4,2020.2.10,Win32,60,,,,space,0.334,2,1,1.713,,0,140,140,203,1,1b,89,3,4,
,,,,,,,,,,,,,,,,,,,,,,,,,images/exp2b_trial_19_colour1_distractors4_l.png,l,1,017,001,2021-04-20_12h23.08.422,searchDisc4,2020.2.10,Win32,60,,,,space,0.735,1,1,0.65,,0,141,141,361,1,2b,19,1,4,
,,,,,,,,,,,,,,,,,,,,,,,,,images/exp1a_trial_78_colour1_distractors9_r.png,r,2,017,001,2021-04-20_12h23.08.422,searchDisc4,2020.2.10,Win32,60,,,,space,0.351,2,1,0.663,,0,142,142,78,1,1a,78,1,9,
,,,,,,,,,,,,,,,,,,,,,,,,,images/exp2c_trial_87_colour2_distractors43_r.png,r,2,017,001,2021-04-20_12h23.08.422,searchDisc4,2020.2.10,Win32,60,,,,space,0.335,2,1,0.965,,0,143,143,543,1,2c,87,2,43,
,,,,,,,,,,,,,,,,,,,,,,,,,images/exp2c_trial_96_colour1_distractors9_l.png,l,1,017,001,2021-04-20_12h23.08.422,searchDisc4,2020.2.10,Win32,60,,,,space,0.359,1,1,0.868,,0,144,144,552,1,2c,96,1,9,
,,,,,,,,,,,,,,,,,,,,,,,,,images/exp2c_trial_49_colour2_distractors43_r.png,r,2,017,001,2021-04-20_12h23.08.422,searchDisc4,2020.2.10,Win32,60,,,,space,0.301,2,1,0.648,,0,145,145,505,1,2c,49,2,43,
,,,,,,,,,,,,,,,,,,,,,,,,,images/exp2a_trial_11_colour2_distractors43_r.png,r,2,017,001,2021-04-20_12h23.08.422,searchDisc4,2020.2.10,Win32,60,,,,space,0.29,2,1,0.628,,0,146,146,239,1,2a,11,2,43,
,,,,,,,,,,,,,,,,,,,,,,,,,images/exp2b_trial_80_colour1_distractors31_r.png,r,2,017,001,2021-04-20_12h23.08.422,searchDisc4,2020.2.10,Win32,60,,,,space,0.338,2,1,0.849,,0,147,147,422,1,2b,80,1,31,
,,,,,,,,,,,,,,,,,,,,,,,,,images/exp2b_trial_44_colour2_distractors1_r.png,r,2,017,001,2021-04-20_12h23.08.422,searchDisc4,2020.2.10,Win32,60,,,,space,0.373,2,1,0.584,,0,148,148,386,1,2b,44,2,1,
,,,,,,,,,,,,,,,,,,,,,,,,,images/exp1b_trial_76_colour1_distractors1_r.png,r,2,017,001,2021-04-20_12h23.08.422,searchDisc4,2020.2.10,Win32,60,,,,space,0.384,2,1,0.928,,0,149,149,190,1,1b,76,1,1,
,,,,,,,,,,,,,,,,,,,,,,,,,images/exp1b_trial_34_colour3_distractors31_l.png,l,1,017,001,2021-04-20_12h23.08.422,searchDisc4,2020.2.10,Win32,60,,,,space,0.388,1,1,2.245,,0,150,150,148,1,1b,34,3,31,
,,,,,,,,,,,,,,,,,,,,,,,,,images/exp1b_trial_45_colour2_distractors4_r.png,r,2,017,001,2021-04-20_12h23.08.422,searchDisc4,2020.2.10,Win32,60,,,,space,0.334,2,1,1.288,,0,151,151,159,1,1b,45,2,4,
,,,,,,,,,,,,,,,,,,,,,,,,,images/exp1a_trial_6_colour2_distractors1_r.png,r,2,017,001,2021-04-20_12h23.08.422,searchDisc4,2020.2.10,Win32,60,,,,space,0.351,2,1,0.799,,0,152,152,6,1,1a,6,2,1,
,,,,,,,,,,,,,,,,,,,,,,,,,images/exp1b_trial_70_colour3_distractors9_l.png,l,1,017,001,2021-04-20_12h23.08.422,searchDisc4,2020.2.10,Win32,60,,,,space,0.368,1,1,1.547,,0,153,153,184,1,1b,70,3,9,
,,,,,,,,,,,,,,,,,,,,,,,,,images/exp1b_trial_21_colour1_distractors19_l.png,l,1,017,001,2021-04-20_12h23.08.422,searchDisc4,2020.2.10,Win32,60,,,,space,0.326,1,1,1.102,,0,154,154,135,1,1b,21,1,19,
,,,,,,,,,,,,,,,,,,,,,,,,,images/exp1b_trial_1_colour1_distractors4_r.png,r,2,017,001,2021-04-20_12h23.08.422,searchDisc4,2020.2.10,Win32,60,,,,space,0.334,2,1,0.93,,0,155,155,115,1,1b,1,1,4,
,,,,,,,,,,,,,,,,,,,,,,,,,images/exp1b_trial_26_colour2_distractors9_l.png,l,1,017,001,2021-04-20_12h23.08.422,searchDisc4,2020.2.10,Win32,60,,,,space,0.352,1,1,0.912,,0,156,156,140,1,1b,26,2,9,
,,,,,,,,,,,,,,,,,,,,,,,,,images/exp1b_trial_27_colour2_distractors19_l.png,l,1,017,001,2021-04-20_12h23.08.422,searchDisc4,2020.2.10,Win32,60,,,,space,0.352,1,1,0.915,,0,157,157,141,1,1b,27,2,19,
,,,,,,,,,,,,,,,,,,,,,,,,,images/exp1a_trial_43_colour1_distractors43_r.png,r,2,017,001,2021-04-20_12h23.08.422,searchDisc4,2020.2.10,Win32,60,,,,space,0.368,2,1,0.717,,0,158,158,43,1,1a,43,1,43,
,,,,,,,,,,,,,,,,,,,,,,,,,images/exp2a_trial_46_colour2_distractors9_r.png,r,2,017,001,2021-04-20_12h23.08.422,searchDisc4,2020.2.10,Win32,60,,,,space,0.334,2,1,0.818,,0,159,159,274,1,2a,46,2,9,
,,,,,,,,,,,,,,,,,,,,,,,,,images/exp2c_trial_31_colour3_distractors4_l.png,l,1,017,001,2021-04-20_12h23.08.422,searchDisc4,2020.2.10,Win32,60,,,,space,0.351,1,1,0.646,,0,160,160,487,1,2c,31,3,4,
,,,,,,,,,,,,,,,,,,,,,,,,,images/exp2a_trial_93_colour3_distractors43_r.png,r,2,017,001,2021-04-20_12h23.08.422,searchDisc4,2020.2.10,Win32,60,,,,space,0.384,2,1,0.834,,0,161,161,321,1,2a,93,3,43,
,,,,,,,,,,,,,,,,,,,,,,,,,images/exp2c_trial_82_colour2_distractors1_r.png,r,2,017,001,2021-04-20_12h23.08.422,searchDisc4,2020.2.10,Win32,60,,,,space,0.372,2,1,0.795,,0,162,162,538,1,2c,82,2,1,
,,,,,,,,,,,,,,,,,,,,,,,,,images/exp1a_trial_89_colour3_distractors4_r.png,r,2,017,001,2021-04-20_12h23.08.422,searchDisc4,2020.2.10,Win32,60,,,,space,0.402,2,1,0.813,,0,163,163,89,1,1a,89,3,4,
,,,,,,,,,,,,,,,,,,,,,,,,,images/exp2c_trial_9_colour2_distractors19_r.png,r,2,017,001,2021-04-20_12h23.08.422,searchDisc4,2020.2.10,Win32,60,,,,space,0.357,2,1,0.92,,0,164,164,465,1,2c,9,2,19,
,,,,,,,,,,,,,,,,,,,,,,,,,images/exp1a_trial_108_colour3_distractors9_l.png,l,1,017,001,2021-04-20_12h23.08.422,searchDisc4,2020.2.10,Win32,60,,,,space,0.369,1,1,0.849,,0,165,165,108,1,1a,108,3,9,
,,,,,,,,,,,,,,,,,,,,,,,,,images/exp2b_trial_39_colour1_distractors4_r.png,r,2,017,001,2021-04-20_12h23.08.422,searchDisc4,2020.2.10,Win32,60,,,,space,0.383,2,1,0.701,,0,166,166,381,1,2b,39,1,4,
,,,,,,,,,,,,,,,,,,,,,,,,,images/exp2a_trial_79_colour1_distractors19_r.png,r,2,017,001,2021-04-20_12h23.08.422,searchDisc4,2020.2.10,Win32,60,,,,space,0.852,2,1,0.715,,0,167,167,307,1,2a,79,1,19,
,,,,,,,,,,,,,,,,,,,,,,,,,images/exp2c_trial_56_colour1_distractors1_l.png,l,1,017,001,2021-04-20_12h23.08.422,searchDisc4,2020.2.10,Win32,60,,,,space,0.389,1,1,0.763,,0,168,168,512,1,2c,56,1,1,
,,,,,,,,,,,,,,,,,,,,,,,,,images/exp2b_trial_29_colour2_distractors43_l.png,l,1,017,001,2021-04-20_12h23.08.422,searchDisc4,2020.2.10,Win32,60,,,,space,0.368,1,1,0.799,,0,169,169,371,1,2b,29,2,43,
,,,,,,,,,,,,,,,,,,,,,,,,,images/exp2b_trial_5_colour1_distractors43_r.png,r,2,017,001,2021-04-20_12h23.08.422,searchDisc4,2020.2.10,Win32,60,,,,space,0.351,2,1,0.646,,0,170,170,347,1,2b,5,1,43,
,,,,,,,,,,,,,,,,,,,,,,,,,images/exp2a_trial_71_colour3_distractors19_l.png,l,1,017,001,2021-04-20_12h23.08.422,searchDisc4,2020.2.10,Win32,60,,,,space,0.357,1,1,0.818,,0,171,171,299,1,2a,71,3,19,
,,,,,,,,,,,,,,,,,,,,,,,,,images/exp1a_trial_83_colour2_distractors4_r.png,r,2,017,001,2021-04-20_12h23.08.422,searchDisc4,2020.2.10,Win32,60,,,,space,0.407,2,1,0.65,,0,172,172,83,1,1a,83,2,4,
,,,,,,,,,,,,,,,,,,,,,,,,,images/exp1b_trial_69_colour3_distractors4_l.png,l,1,017,001,2021-04-20_12h23.08.422,searchDisc4,2020.2.10,Win32,60,,,,space,0.321,1,1,0.845,,0,173,173,183,1,1b,69,3,4,
,,,,,,,,,,,,,,,,,,,,,,,,,images/exp2a_trial_87_colour2_distractors43_r.png,r,2,017,001,2021-04-20_12h23.08.422,searchDisc4,2020.2.10,Win32,60,,,,space,0.376,2,1,0.684,,0,174,174,315,1,2a,87,2,43,
,,,,,,,,,,,,,,,,,,,,,,,,,images/exp2a_trial_28_colour2_distractors31_l.png,l,1,017,001,2021-04-20_12h23.08.422,searchDisc4,2020.2.10,Win32,60,,,,space,0.27,1,1,0.528,,0,175,175,256,1,2a,28,2,31,
,,,,,,,,,,,,,,,,,,,,,,,,,images/exp2a_trial_98_colour1_distractors31_l.png,l,1,017,001,2021-04-20_12h23.08.422,searchDisc4,2020.2.10,Win32,60,,,,space,0.357,1,1,1.115,,0,176,176,326,1,2a,98,1,31,
,,,,,,,,,,,,,,,,,,,,,,,,,images/exp1a_trial_19_colour1_distractors4_l.png,l,1,017,001,2021-04-20_12h23.08.422,searchDisc4,2020.2.10,Win32,60,,,,space,0.322,1,1,0.763,,0,177,177,19,1,1a,19,1,4,
,,,,,,,,,,,,,,,,,,,,,,,,,images/exp1b_trial_48_colour2_distractors31_r.png,r,2,017,001,2021-04-20_12h23.08.422,searchDisc4,2020.2.10,Win32,60,,,,space,0.706,2,1,0.82,,0,178,178,162,1,1b,48,2,31,
,,,,,,,,,,,,,,,,,,,,,,,,,images/exp1b_trial_60_colour1_distractors31_l.png,l,1,017,001,2021-04-20_12h23.08.422,searchDisc4,2020.2.10,Win32,60,,,,space,0.318,1,1,1.285,space,0,179,179,174,1,1b,60,1,31,21.082
,,,,,,,,,,,,,,,,,,,,,,,,,images/exp2b_trial_79_colour1_distractors19_r.png,r,2,017,001,2021-04-20_12h23.08.422,searchDisc4,2020.2.10,Win32,60,,,,space,0.968,2,1,0.696,,0,180,180,421,1,2b,79,1,19,
,,,,,,,,,,,,,,,,,,,,,,,,,images/exp1b_trial_53_colour3_distractors19_r.png,r,2,017,001,2021-04-20_12h23.08.422,searchDisc4,2020.2.10,Win32,60,,,,space,0.385,,0,,,0,181,181,167,1,1b,53,3,19,
,,,,,,,,,,,,,,,,,,,,,,,,,images/exp2b_trial_1_colour1_distractors4_r.png,r,2,017,001,2021-04-20_12h23.08.422,searchDisc4,2020.2.10,Win32,60,,,,space,1.173,2,1,0.697,,0,182,182,343,1,2b,1,1,4,
,,,,,,,,,,,,,,,,,,,,,,,,,images/exp1b_trial_113_colour0_distractors0_l.png,l,1,017,001,2021-04-20_12h23.08.422,searchDisc4,2020.2.10,Win32,60,,,,space,0.268,1,1,0.622,,0,183,183,227,1,1b,113,0,0,
,,,,,,,,,,,,,,,,,,,,,,,,,images/exp1a_trial_42_colour1_distractors31_r.png,r,2,017,001,2021-04-20_12h23.08.422,searchDisc4,2020.2.10,Win32,60,,,,space,0.275,2,1,0.695,,0,184,184,42,1,1a,42,1,31,
,,,,,,,,,,,,,,,,,,,,,,,,,images/exp1b_trial_52_colour3_distractors9_r.png,r,2,017,001,2021-04-20_12h23.08.422,searchDisc4,2020.2.10,Win32,60,,,,space,0.236,2,1,1.654,,0,185,185,166,1,1b,52,3,9,
,,,,,,,,,,,,,,,,,,,,,,,,,images/exp1a_trial_75_colour0_distractors0_l.png,l,1,017,001,2021-04-20_12h23.08.422,searchDisc4,2020.2.10,Win32,60,,,,space,0.339,1,1,0.73,,0,186,186,75,1,1a,75,0,0,
,,,,,,,,,,,,,,,,,,,,,,,,,images/exp1a_trial_17_colour3_distractors43_r.png,r,2,017,001,2021-04-20_12h23.08.422,searchDisc4,2020.2.10,Win32,60,,,,space,0.302,2,1,0.985,,0,187,187,17,1,1a,17,3,43,
,,,,,,,,,,,,,,,,,,,,,,,,,images/exp2a_trial_56_colour1_distractors1_l.png,l,1,017,001,2021-04-20_12h23.08.422,searchDisc4,2020.2.10,Win32,60,,,,space,0.334,1,1,0.88,,0,188,188,284,1,2a,56,1,1,
,,,,,,,,,,,,,,,,,,,,,,,,,images/exp1b_trial_61_colour1_distractors43_l.png,l,1,017,001,2021-04-20_12h23.08.422,searchDisc4,2020.2.10,Win32,60,,,,space,0.284,1,1,0.816,,0,189,189,175,1,1b,61,1,43,
,,,,,,,,,,,,,,,,,,,,,,,,,images/exp2b_trial_74_colour0_distractors0_r.png,r,2,017,001,2021-04-20_12h23.08.422,searchDisc4,2020.2.10,Win32,60,,,,space,0.323,2,1,0.931,,0,190,190,416,1,2b,74,0,0,
,,,,,,,,,,,,,,,,,,,,,,,,,images/exp1b_trial_7_colour2_distractors4_r.png,r,2,017,001,2021-04-20_12h23.08.422,searchDisc4,2020.2.10,Win32,60,,,,space,0.339,2,1,0.913,,0,191,191,121,1,1b,7,2,4,
,,,,,,,,,,,,,,,,,,,,,,,,,images/exp2a_trial_81_colour1_distractors43_r.png,r,2,017,001,2021-04-20_12h23.08.422,searchDisc4,2020.2.10,Win32,60,,,,space,0.788,2,1,0.729,,0,192,192,309,1,2a,81,1,43,
,,,,,,,,,,,,,,,,,,,,,,,,,images/exp2c_trial_83_colour2_distractors4_r.png,r,2,017,001,2021-04-20_12h23.08.422,searchDisc4,2020.2.10,Win32,60,,,,space,0.39,2,1,0.769,,0,193,193,539,1,2c,83,2,4,
,,,,,,,,,,,,,,,,,,,,,,,,,images/exp2c_trial_85_colour2_distractors19_r.png,r,2,017,001,2021-04-20_12h23.08.422,searchDisc4,2020.2.10,Win32,60,,,,space,0.318,2,1,0.629,,0,194,194,541,1,2c,85,2,19,
,,,,,,,,,,,,,,,,,,,,,,,,,images/exp2a_trial_2_colour1_distractors9_r.png,r,2,017,001,2021-04-20_12h23.08.422,searchDisc4,2020.2.10,Win32,60,,,,space,0.341,2,1,0.633,,0,195,195,230,1,2a,2,1,9,
,,,,,,,,,,,,,,,,,,,,,,,,,images/exp1b_trial_22_colour1_distractors31_l.png,l,1,017,001,2021-04-20_12h23.08.422,searchDisc4,2020.2.10,Win32,60,,,,space,0.306,1,1,1.164,,0,196,196,136,1,1b,22,1,31,
,,,,,,,,,,,,,,,,,,,,,,,,,images/exp2a_trial_106_colour3_distractors1_l.png,l,1,017,001,2021-04-20_12h23.08.422,searchDisc4,2020.2.10,Win32,60,,,,space,0.291,1,1,0.63,,0,197,197,334,1,2a,106,3,1,
,,,,,,,,,,,,,,,,,,,,,,,,,images/exp2c_trial_78_colour1_distractors9_r.png,r,2,017,001,2021-04-20_12h23.08.422,searchDisc4,2020.2.10,Win32,60,,,,space,0.318,2,1,0.646,,0,198,198,534,1,2c,78,1,9,
,,,,,,,,,,,,,,,,,,,,,,,,,images/exp1a_trial_72_colour3_distractors31_l.png,l,1,017,001,2021-04-20_12h23.08.422,searchDisc4,2020.2.10,Win32,60,,,,space,0.301,1,1,0.733,,0,199,199,72,1,1a,72,3,31,
,,,,,,,,,,,,,,,,,,,,,,,,,images/exp1b_trial_106_colour3_distractors1_l.png,l,1,017,001,2021-04-20_12h23.08.422,searchDisc4,2020.2.10,Win32,60,,,,space,0.335,1,1,0.884,,0,200,200,220,1,1b,106,3,1,
,,,,,,,,,,,,,,,,,,,,,,,,,images/exp2a_trial_21_colour1_distractors19_l.png,l,1,017,001,2021-04-20_12h23.08.422,searchDisc4,2020.2.10,Win32,60,,,,space,0.267,2,0,0.729,,0,201,201,249,1,2a,21,1,19,
,,,,,,,,,,,,,,,,,,,,,,,,,images/exp2c_trial_67_colour2_distractors43_l.png,l,1,017,001,2021-04-20_12h23.08.422,searchDisc4,2020.2.10,Win32,60,,,,space,0.551,1,1,0.647,,0,202,202,523,1,2c,67,2,43,
,,,,,,,,,,,,,,,,,,,,,,,,,images/exp2b_trial_84_colour2_distractors9_r.png,r,2,017,001,2021-04-20_12h23.08.422,searchDisc4,2020.2.10,Win32,60,,,,space,0.317,2,1,0.916,,0,203,203,426,1,2b,84,2,9,
,,,,,,,,,,,,,,,,,,,,,,,,,images/exp2c_trial_91_colour3_distractors19_r.png,r,2,017,001,2021-04-20_12h23.08.422,searchDisc4,2020.2.10,Win32,60,,,,space,0.271,2,1,0.812,,0,204,204,547,1,2c,91,3,19,
,,,,,,,,,,,,,,,,,,,,,,,,,images/exp2c_trial_50_colour3_distractors1_r.png,r,2,017,001,2021-04-20_12h23.08.422,searchDisc4,2020.2.10,Win32,60,,,,space,0.256,2,1,0.637,,0,205,205,506,1,2c,50,3,1,
,,,,,,,,,,,,,,,,,,,,,,,,,images/exp2a_trial_74_colour0_distractors0_r.png,r,2,017,001,2021-04-20_12h23.08.422,searchDisc4,2020.2.10,Win32,60,,,,space,0.336,1,0,0.53,,0,206,206,302,1,2a,74,0,0,
,,,,,,,,,,,,,,,,,,,,,,,,,images/exp2b_trial_53_colour3_distractors19_r.png,r,2,017,001,2021-04-20_12h23.08.422,searchDisc4,2020.2.10,Win32,60,,,,space,0.751,2,1,1.063,,0,207,207,395,1,2b,53,3,19,
,,,,,,,,,,,,,,,,,,,,,,,,,images/exp2c_trial_63_colour2_distractors4_l.png,l,1,017,001,2021-04-20_12h23.08.422,searchDisc4,2020.2.10,Win32,60,,,,space,0.286,1,1,0.785,,0,208,208,519,1,2c,63,2,4,
,,,,,,,,,,,,,,,,,,,,,,,,,images/exp2a_trial_96_colour1_distractors9_l.png,l,1,017,001,2021-04-20_12h23.08.422,searchDisc4,2020.2.10,Win32,60,,,,space,0.284,1,1,0.713,,0,209,209,324,1,2a,96,1,9,
,,,,,,,,,,,,,,,,,,,,,,,,,images/exp1b_trial_20_colour1_distractors9_l.png,l,1,017,001,2021-04-20_12h23.08.422,searchDisc4,2020.2.10,Win32,60,,,,space,0.304,1,1,0.728,,0,210,210,134,1,1b,20,1,9,
,,,,,,,,,,,,,,,,,,,,,,,,,images/exp2a_trial_90_colour3_distractors9_r.png,r,2,017,001,2021-04-20_12h23.08.422,searchDisc4,2020.2.10,Win32,60,,,,space,0.373,2,1,1.32,,0,211,211,318,1,2a,90,3,9,
,,,,,,,,,,,,,,,,,,,,,,,,,images/exp1b_trial_99_colour1_distractors43_l.png,l,1,017,001,2021-04-20_12h23.08.422,searchDisc4,2020.2.10,Win32,60,,,,space,0.343,1,1,0.863,,0,212,212,213,1,1b,99,1,43,
,,,,,,,,,,,,,,,,,,,,,,,,,images/exp2c_trial_68_colour3_distractors1_l.png,l,1,017,001,2021-04-20_12h23.08.422,searchDisc4,2020.2.10,Win32,60,,,,space,0.334,1,1,1.246,,0,213,213,524,1,2c,68,3,1,
,,,,,,,,,,,,,,,,,,,,,,,,,images/exp1a_trial_84_colour2_distractors9_r.png,r,2,017,001,2021-04-20_12h23.08.422,searchDisc4,2020.2.10,Win32,60,,,,space,0.668,2,1,0.796,,0,214,214,84,1,1a,84,2,9,
,,,,,,,,,,,,,,,,,,,,,,,,,images/exp2a_trial_35_colour3_distractors43_l.png,l,1,017,001,2021-04-20_12h23.08.422,searchDisc4,2020.2.10,Win32,60,,,,space,0.268,1,1,0.933,,0,215,215,263,1,2a,35,3,43,
,,,,,,,,,,,,,,,,,,,,,,,,,images/exp2a_trial_29_colour2_distractors43_l.png,l,1,017,001,2021-04-20_12h23.08.422,searchDisc4,2020.2.10,Win32,60,,,,space,0.309,1,1,0.912,,0,216,216,257,1,2a,29,2,43,
,,,,,,,,,,,,,,,,,,,,,,,,,images/exp2b_trial_82_colour2_distractors1_r.png,r,2,017,001,2021-04-20_12h23.08.422,searchDisc4,2020.2.10,Win32,60,,,,space,0.307,2,1,0.646,,0,217,217,424,1,2b,82,2,1,
,,,,,,,,,,,,,,,,,,,,,,,,,images/exp2a_trial_78_colour1_distractors9_r.png,r,2,017,001,2021-04-20_12h23.08.422,searchDisc4,2020.2.10,Win32,60,,,,space,0.393,2,1,0.745,,0,218,218,306,1,2a,78,1,9,
,,,,,,,,,,,,,,,,,,,,,,,,,images/exp2b_trial_62_colour2_distractors1_l.png,l,1,017,001,2021-04-20_12h23.08.422,searchDisc4,2020.2.10,Win32,60,,,,space,0.418,1,1,0.9,,0,219,219,404,1,2b,62,2,1,
,,,,,,,,,,,,,,,,,,,,,,,,,images/exp2a_trial_45_colour2_distractors4_r.png,r,2,017,001,2021-04-20_12h23.08.422,searchDisc4,2020.2.10,Win32,60,,,,space,0.303,2,1,0.695,,0,220,220,273,1,2a,45,2,4,
,,,,,,,,,,,,,,,,,,,,,,,,,images/exp1b_trial_98_colour1_distractors31_l.png,l,1,017,001,2021-04-20_12h23.08.422,searchDisc4,2020.2.10,Win32,60,,,,space,0.3,1,1,0.946,,0,221,221,212,1,1b,98,1,31,
,,,,,,,,,,,,,,,,,,,,,,,,,images/exp2a_trial_60_colour1_distractors31_l.png,l,1,017,001,2021-04-20_12h23.08.422,searchDisc4,2020.2.10,Win32,60,,,,space,0.374,1,1,0.762,,0,222,222,288,1,2a,60,1,31,
,,,,,,,,,,,,,,,,,,,,,,,,,images/exp1a_trial_61_colour1_distractors43_l.png,l,1,017,001,2021-04-20_12h23.08.422,searchDisc4,2020.2.10,Win32,60,,,,space,0.319,1,1,0.631,,0,223,223,61,1,1a,61,1,43,
,,,,,,,,,,,,,,,,,,,,,,,,,images/exp2b_trial_100_colour2_distractors1_l.png,l,1,017,001,2021-04-20_12h23.08.422,searchDisc4,2020.2.10,Win32,60,,,,space,0.352,1,1,0.879,,0,224,224,442,1,2b,100,2,1,
,,,,,,,,,,,,,,,,,,,,,,,,,images/exp2c_trial_34_colour3_distractors31_l.png,l,1,017,001,2021-04-20_12h23.08.422,searchDisc4,2020.2.10,Win32,60,,,,space,0.301,1,1,0.632,,0,225,225,490,1,2c,34,3,31,
,,,,,,,,,,,,,,,,,,,,,,,,,images/exp1a_trial_39_colour1_distractors4_r.png,r,2,017,001,2021-04-20_12h23.08.422,searchDisc4,2020.2.10,Win32,60,,,,space,0.335,2,1,0.636,,0,226,226,39,1,1a,39,1,4,
,,,,,,,,,,,,,,,,,,,,,,,,,images/exp1b_trial_28_colour2_distractors31_l.png,l,1,017,001,2021-04-20_12h23.08.422,searchDisc4,2020.2.10,Win32,60,,,,space,0.338,1,1,1.279,,0,227,227,142,1,1b,28,2,31,
,,,,,,,,,,,,,,,,,,,,,,,,,images/exp1a_trial_79_colour1_distractors19_r.png,r,2,017,001,2021-04-20_12h23.08.422,searchDisc4,2020.2.10,Win32,60,,,,space,0.368,2,1,0.917,,0,228,228,79,1,1a,79,1,19,
,,,,,,,,,,,,,,,,,,,,,,,,,images/exp1b_trial_78_colour1_distractors9_r.png,r,2,017,001,2021-04-20_12h23.08.422,searchDisc4,2020.2.10,Win32,60,,,,space,0.321,2,1,1.096,,0,229,229,192,1,1b,78,1,9,
,,,,,,,,,,,,,,,,,,,,,,,,,images/exp1b_trial_100_colour2_distractors1_l.png,l,1,017,001,2021-04-20_12h23.08.422,searchDisc4,2020.2.10,Win32,60,,,,space,0.122,1,1,0.712,,0,230,230,214,1,1b,100,2,1,
,,,,,,,,,,,,,,,,,,,,,,,,,images/exp1a_trial_107_colour3_distractors4_l.png,l,1,017,001,2021-04-20_12h23.08.422,searchDisc4,2020.2.10,Win32,60,,,,space,0.287,1,1,1.437,,0,231,231,107,1,1a,107,3,4,
,,,,,,,,,,,,,,,,,,,,,,,,,images/exp1a_trial_25_colour2_distractors4_l.png,l,1,017,001,2021-04-20_12h23.08.422,searchDisc4,2020.2.10,Win32,60,,,,space,0.303,1,1,0.68,,0,232,232,25,1,1a,25,2,4,
,,,,,,,,,,,,,,,,,,,,,,,,,images/exp1b_trial_63_colour2_distractors4_l.png,l,1,017,001,2021-04-20_12h23.08.422,searchDisc4,2020.2.10,Win32,60,,,,space,0.252,1,1,0.679,,0,233,233,177,1,1b,63,2,4,
,,,,,,,,,,,,,,,,,,,,,,,,,images/exp2a_trial_109_colour3_distractors19_l.png,l,1,017,001,2021-04-20_12h23.08.422,searchDisc4,2020.2.10,Win32,60,,,,space,0.238,1,1,0.562,,0,234,234,337,1,2a,109,3,19,
,,,,,,,,,,,,,,,,,,,,,,,,,images/exp2b_trial_69_colour3_distractors4_l.png,l,1,017,001,2021-04-20_12h23.08.422,searchDisc4,2020.2.10,Win32,60,,,,space,0.269,2,0,0.662,,0,235,235,411,1,2b,69,3,4,
,,,,,,,,,,,,,,,,,,,,,,,,,images/exp1b_trial_46_colour2_distractors9_r.png,r,2,017,001,2021-04-20_12h23.08.422,searchDisc4,2020.2.10,Win32,60,,,,space,0.585,2,1,1.401,,0,236,236,160,1,1b,46,2,9,
,,,,,,,,,,,,,,,,,,,,,,,,,images/exp2a_trial_104_colour2_distractors31_l.png,l,1,017,001,2021-04-20_12h23.08.422,searchDisc4,2020.2.10,Win32,60,,,,space,0.401,1,1,0.749,,0,237,237,332,1,2a,104,2,31,
,,,,,,,,,,,,,,,,,,,,,,,,,images/exp1b_trial_109_colour3_distractors19_l.png,l,1,017,001,2021-04-20_12h23.08.422,searchDisc4,2020.2.10,Win32,60,,,,space,0.244,1,1,3.864,,0,238,238,223,1,1b,109,3,19,
,,,,,,,,,,,,,,,,,,,,,,,,,images/exp1b_trial_72_colour3_distractors31_l.png,l,1,017,001,2021-04-20_12h23.08.422,searchDisc4,2020.2.10,Win32,60,,,,space,0.276,1,1,3.413,space,0,239,239,186,1,1b,72,3,31,0.289
,,,,,,,,,,,,,,,,,,,,,,,,,images/exp2a_trial_76_colour1_distractors1_r.png,r,2,017,001,2021-04-20_12h23.08.422,searchDisc4,2020.2.10,Win32,60,,,,space,1.127,2,1,0.85,,0,240,240,304,1,2a,76,1,1,
,,,,,,,,,,,,,,,,,,,,,,,,,images/exp1a_trial_44_colour2_distractors1_r.png,r,2,017,001,2021-04-20_12h23.08.422,searchDisc4,2020.2.10,Win32,60,,,,space,0.268,1,0,0.647,,0,241,241,44,1,1a,44,2,1,
,,,,,,,,,,,,,,,,,,,,,,,,,images/exp1b_trial_92_colour3_distractors31_r.png,r,2,017,001,2021-04-20_12h23.08.422,searchDisc4,2020.2.10,Win32,60,,,,space,0.519,2,1,1.436,,0,242,242,206,1,1b,92,3,31,
,,,,,,,,,,,,,,,,,,,,,,,,,images/exp1a_trial_63_colour2_distractors4_l.png,l,1,017,001,2021-04-20_12h23.08.422,searchDisc4,2020.2.10,Win32,60,,,,space,0.316,1,1,1.846,,0,243,243,63,1,1a,63,2,4,
,,,,,,,,,,,,,,,,,,,,,,,,,images/exp2a_trial_41_colour1_distractors19_r.png,r,2,017,001,2021-04-20_12h23.08.422,searchDisc4,2020.2.10,Win32,60,,,,space,0.368,2,1,1.112,,0,244,244,269,1,2a,41,1,19,
,,,,,,,,,,,,,,,,,,,,,,,,,images/exp2c_trial_59_colour1_distractors19_l.png,l,1,017,001,2021-04-20_12h23.08.422,searchDisc4,2020.2.10,Win32,60,,,,space,0.235,1,1,0.821,,0,245,245,515,1,2c,59,1,19,
,,,,,,,,,,,,,,,,,,,,,,,,,images/exp2a_trial_107_colour3_distractors4_l.png,l,1,017,001,2021-04-20_12h23.08.422,searchDisc4,2020.2.10,Win32,60,,,,space,0.303,1,1,0.73,,0,246,246,335,1,2a,107,3,4,
,,,,,,,,,,,,,,,,,,,,,,,,,images/exp1b_trial_75_colour0_distractors0_l.png,l,1,017,001,2021-04-20_12h23.08.422,searchDisc4,2020.2.10,Win32,60,,,,space,0.324,1,1,0.646,,0,247,247,189,1,1b,75,0,0,
,,,,,,,,,,,,,,,,,,,,,,,,,images/exp2c_trial_100_colour2_distractors1_l.png,l,1,017,001,2021-04-20_12h23.08.422,searchDisc4,2020.2.10,Win32,60,,,,space,0.343,1,1,0.712,,0,248,248,556,1,2c,100,2,1,
,,,,,,,,,,,,,,,,,,,,,,,,,images/exp2c_trial_10_colour2_distractors31_r.png,r,2,017,001,2021-04-20_12h23.08.422,searchDisc4,2020.2.10,Win32,60,,,,space,0.318,2,1,0.913,,0,249,249,466,1,2c,10,2,31,
,,,,,,,,,,,,,,,,,,,,,,,,,images/exp2a_trial_57_colour1_distractors4_l.png,l,1,017,001,2021-04-20_12h23.08.422,searchDisc4,2020.2.10,Win32,60,,,,space,0.286,1,1,0.847,,0,250,250,285,1,2a,57,1,4,
,,,,,,,,,,,,,,,,,,,,,,,,,images/exp2a_trial_95_colour1_distractors4_l.png,l,1,017,001,2021-04-20_12h23.08.422,searchDisc4,2020.2.10,Win32,60,,,,space,0.324,1,1,0.948,,0,251,251,323,1,2a,95,1,4,
,,,,,,,,,,,,,,,,,,,,,,,,,images/exp2a_trial_20_colour1_distractors9_l.png,l,1,017,001,2021-04-20_12h23.08.422,searchDisc4,2020.2.10,Win32,60,,,,space,0.32,1,1,0.654,,0,252,252,248,1,2a,20,1,9,
,,,,,,,,,,,,,,,,,,,,,,,,,images/exp1a_trial_87_colour2_distractors43_r.png,r,2,017,001,2021-04-20_12h23.08.422,searchDisc4,2020.2.10,Win32,60,,,,space,0.307,2,1,1.112,,0,253,253,87,1,1a,87,2,43,
,,,,,,,,,,,,,,,,,,,,,,,,,images/exp1a_trial_90_colour3_distractors9_r.png,r,2,017,001,2021-04-20_12h23.08.422,searchDisc4,2020.2.10,Win32,60,,,,space,0.268,2,1,1.146,,0,254,254,90,1,1a,90,3,9,
,,,,,,,,,,,,,,,,,,,,,,,,,images/exp2c_trial_5_colour1_distractors43_r.png,r,2,017,001,2021-04-20_12h23.08.422,searchDisc4,2020.2.10,Win32,60,,,,space,0.574,2,1,0.58,,0,255,255,461,1,2c,5,1,43,
,,,,,,,,,,,,,,,,,,,,,,,,,images/exp2c_trial_23_colour1_distractors43_l.png,l,1,017,001,2021-04-20_12h23.08.422,searchDisc4,2020.2.10,Win32,60,,,,space,0.335,1,1,0.731,,0,256,256,479,1,2c,23,1,43,
,,,,,,,,,,,,,,,,,,,,,,,,,images/exp1a_trial_112_colour0_distractors0_r.png,r,2,017,001,2021-04-20_12h23.08.422,searchDisc4,2020.2.10,Win32,60,,,,space,0.317,2,1,0.88,,0,257,257,112,1,1a,112,0,0,
,,,,,,,,,,,,,,,,,,,,,,,,,images/exp1a_trial_73_colour3_distractors43_l.png,l,1,017,001,2021-04-20_12h23.08.422,searchDisc4,2020.2.10,Win32,60,,,,space,0.301,1,1,0.83,,0,258,258,73,1,1a,73,3,43,
,,,,,,,,,,,,,,,,,,,,,,,,,images/exp1b_trial_79_colour1_distractors19_r.png,r,2,017,001,2021-04-20_12h23.08.422,searchDisc4,2020.2.10,Win32,60,,,,space,0.32,2,1,2.18,,0,259,259,193,1,1b,79,1,19,
,,,,,,,,,,,,,,,,,,,,,,,,,images/exp1a_trial_50_colour3_distractors1_r.png,r,2,017,001,2021-04-20_12h23.08.422,searchDisc4,2020.2.10,Win32,60,,,,space,0.351,2,1,2.11,,0,260,260,50,1,1a,50,3,1,
,,,,,,,,,,,,,,,,,,,,,,,,,images/exp1a_trial_104_colour2_distractors31_l.png,l,1,017,001,2021-04-20_12h23.08.422,searchDisc4,2020.2.10,Win32,60,,,,space,0.417,1,1,0.666,,0,261,261,104,1,1a,104,2,31,
,,,,,,,,,,,,,,,,,,,,,,,,,images/exp2c_trial_107_colour3_distractors4_l.png,l,1,017,001,2021-04-20_12h23.08.422,searchDisc4,2020.2.10,Win32,60,,,,space,0.32,1,1,0.568,,0,262,262,563,1,2c,107,3,4,
,,,,,,,,,,,,,,,,,,,,,,,,,images/exp2b_trial_83_colour2_distractors4_r.png,r,2,017,001,2021-04-20_12h23.08.422,searchDisc4,2020.2.10,Win32,60,,,,space,0.327,2,1,0.896,,0,263,263,425,1,2b,83,2,4,
,,,,,,,,,,,,,,,,,,,,,,,,,images/exp1a_trial_94_colour1_distractors1_l.png,l,1,017,001,2021-04-20_12h23.08.422,searchDisc4,2020.2.10,Win32,60,,,,space,0.353,1,1,1.401,,0,264,264,94,1,1a,94,1,1,
,,,,,,,,,,,,,,,,,,,,,,,,,images/exp1a_trial_37_colour0_distractors0_l.png,l,1,017,001,2021-04-20_12h23.08.422,searchDisc4,2020.2.10,Win32,60,,,,space,0.468,1,1,0.749,,0,265,265,37,1,1a,37,0,0,
,,,,,,,,,,,,,,,,,,,,,,,,,images/exp2a_trial_88_colour3_distractors1_r.png,r,2,017,001,2021-04-20_12h23.08.422,searchDisc4,2020.2.10,Win32,60,,,,space,0.287,2,1,0.803,,0,266,266,316,1,2a,88,3,1,
,,,,,,,,,,,,,,,,,,,,,,,,,images/exp2c_trial_13_colour3_distractors4_r.png,r,2,017,001,2021-04-20_12h23.08.422,searchDisc4,2020.2.10,Win32,60,,,,space,0.284,2,1,1.151,,0,267,267,469,1,2c,13,3,4,
,,,,,,,,,,,,,,,,,,,,,,,,,images/exp1a_trial_95_colour1_distractors4_l.png,l,1,017,001,2021-04-20_12h23.08.422,searchDisc4,2020.2.10,Win32,60,,,,space,0.269,1,1,0.747,,0,268,268,95,1,1a,95,1,4,
,,,,,,,,,,,,,,,,,,,,,,,,,images/exp1b_trial_55_colour3_distractors43_r.png,r,2,017,001,2021-04-20_12h23.08.422,searchDisc4,2020.2.10,Win32,60,,,,space,0.284,2,1,2.913,,0,269,269,169,1,1b,55,3,43,
,,,,,,,,,,,,,,,,,,,,,,,,,images/exp2c_trial_18_colour1_distractors1_l.png,l,1,017,001,2021-04-20_12h23.08.422,searchDisc4,2020.2.10,Win32,60,,,,space,0.641,1,1,0.848,,0,270,270,474,1,2c,18,1,1,
,,,,,,,,,,,,,,,,,,,,,,,,,images/exp2a_trial_22_colour1_distractors31_l.png,l,1,017,001,2021-04-20_12h23.08.422,searchDisc4,2020.2.10,Win32,60,,,,space,0.241,1,1,0.734,,0,271,271,250,1,2a,22,1,31,
,,,,,,,,,,,,,,,,,,,,,,,,,images/exp2c_trial_62_colour2_distractors1_l.png,l,1,017,001,2021-04-20_12h23.08.422,searchDisc4,2020.2.10,Win32,60,,,,space,0.267,1,1,0.819,,0,272,272,518,1,2c,62,2,1,
,,,,,,,,,,,,,,,,,,,,,,,,,images/exp1b_trial_0_colour1_distractors1_r.png,r,2,017,001,2021-04-20_12h23.08.422,searchDisc4,2020.2.10,Win32,60,,,,space,0.219,2,1,0.629,,0,273,273,114,1,1b,0,1,1,
,,,,,,,,,,,,,,,,,,,,,,,,,images/exp2c_trial_105_colour2_distractors43_l.png,l,1,017,001,2021-04-20_12h23.08.422,searchDisc4,2020.2.10,Win32,60,,,,space,0.285,1,1,0.848,,0,274,274,561,1,2c,105,2,43,
,,,,,,,,,,,,,,,,,,,,,,,,,images/exp2c_trial_44_colour2_distractors1_r.png,r,2,017,001,2021-04-20_12h23.08.422,searchDisc4,2020.2.10,Win32,60,,,,space,0.292,2,1,0.912,,0,275,275,500,1,2c,44,2,1,
,,,,,,,,,,,,,,,,,,,,,,,,,images/exp1a_trial_48_colour2_distractors31_r.png,r,2,017,001,2021-04-20_12h23.08.422,searchDisc4,2020.2.10,Win32,60,,,,space,0.269,2,1,0.764,,0,276,276,48,1,1a,48,2,31,
,,,,,,,,,,,,,,,,,,,,,,,,,images/exp1a_trial_101_colour2_distractors4_l.png,l,1,017,001,2021-04-20_12h23.08.422,searchDisc4,2020.2.10,Win32,60,,,,space,0.284,1,1,0.579,,0,277,277,101,1,1a,101,2,4,
,,,,,,,,,,,,,,,,,,,,,,,,,images/exp1b_trial_107_colour3_distractors4_l.png,l,1,017,001,2021-04-20_12h23.08.422,searchDisc4,2020.2.10,Win32,60,,,,space,0.302,1,1,1.764,,0,278,278,221,1,1b,107,3,4,
,,,,,,,,,,,,,,,,,,,,,,,,,images/exp2c_trial_26_colour2_distractors9_l.png,l,1,017,001,2021-04-20_12h23.08.422,searchDisc4,2020.2.10,Win32,60,,,,space,0.774,1,1,0.729,,0,279,279,482,1,2c,26,2,9,
,,,,,,,,,,,,,,,,,,,,,,,,,images/exp1b_trial_59_colour1_distractors19_l.png,l,1,017,001,2021-04-20_12h23.08.422,searchDisc4,2020.2.10,Win32,60,,,,space,0.241,1,1,0.771,,0,280,280,173,1,1b,59,1,19,
,,,,,,,,,,,,,,,,,,,,,,,,,images/exp2c_trial_106_colour3_distractors1_l.png,l,1,017,001,2021-04-20_12h23.08.422,searchDisc4,2020.2.10,Win32,60,,,,space,0.225,1,1,1.011,,0,281,281,562,1,2c,106,3,1,
,,,,,,,,,,,,,,,,,,,,,,,,,images/exp2b_trial_45_colour2_distractors4_r.png,r,2,017,001,2021-04-20_12h23.08.422,searchDisc4,2020.2.10,Win32,60,,,,space,0.118,2,1,0.649,,0,282,282,387,1,2b,45,2,4,
,,,,,,,,,,,,,,,,,,,,,,,,,images/exp1a_trial_38_colour1_distractors1_r.png,r,2,017,001,2021-04-20_12h23.08.422,searchDisc4,2020.2.10,Win32,60,,,,space,0.184,1,0,0.817,,0,283,283,38,1,1a,38,1,1,
,,,,,,,,,,,,,,,,,,,,,,,,,images/exp2c_trial_0_colour1_distractors1_r.png,r,2,017,001,2021-04-20_12h23.08.422,searchDisc4,2020.2.10,Win32,60,,,,space,0.605,2,1,0.568,,0,284,284,456,1,2c,0,1,1,
,,,,,,,,,,,,,,,,,,,,,,,,,images/exp2b_trial_96_colour1_distractors9_l.png,l,1,017,001,2021-04-20_12h23.08.422,searchDisc4,2020.2.10,Win32,60,,,,space,0.204,1,1,0.814,,0,285,285,438,1,2b,96,1,9,
,,,,,,,,,,,,,,,,,,,,,,,,,images/exp2c_trial_30_colour3_distractors1_l.png,l,1,017,001,2021-04-20_12h23.08.422,searchDisc4,2020.2.10,Win32,60,,,,space,0.241,1,1,0.814,,0,286,286,486,1,2c,30,3,1,
,,,,,,,,,,,,,,,,,,,,,,,,,images/exp2c_trial_37_colour0_distractors0_l.png,l,1,017,001,2021-04-20_12h23.08.422,searchDisc4,2020.2.10,Win32,60,,,,space,0.251,1,1,0.663,,0,287,287,493,1,2c,37,0,0,
,,,,,,,,,,,,,,,,,,,,,,,,,images/exp1b_trial_2_colour1_distractors9_r.png,r,2,017,001,2021-04-20_12h23.08.422,searchDisc4,2020.2.10,Win32,60,,,,space,0.24,2,1,0.787,,0,288,288,116,1,1b,2,1,9,
,,,,,,,,,,,,,,,,,,,,,,,,,images/exp2c_trial_109_colour3_distractors19_l.png,l,1,017,001,2021-04-20_12h23.08.422,searchDisc4,2020.2.10,Win32,60,,,,space,0.326,1,1,0.786,,0,289,289,565,1,2c,109,3,19,
,,,,,,,,,,,,,,,,,,,,,,,,,images/exp2b_trial_16_colour3_distractors31_r.png,r,2,017,001,2021-04-20_12h23.08.422,searchDisc4,2020.2.10,Win32,60,,,,space,0.256,2,1,1.029,,0,290,290,358,1,2b,16,3,31,
,,,,,,,,,,,,,,,,,,,,,,,,,images/exp2b_trial_9_colour2_distractors19_r.png,r,2,017,001,2021-04-20_12h23.08.422,searchDisc4,2020.2.10,Win32,60,,,,space,1.552,2,1,0.784,,0,291,291,351,1,2b,9,2,19,
,,,,,,,,,,,,,,,,,,,,,,,,,images/exp2b_trial_32_colour3_distractors9_l.png,l,1,017,001,2021-04-20_12h23.08.422,searchDisc4,2020.2.10,Win32,60,,,,space,0.267,1,1,0.847,,0,292,292,374,1,2b,32,3,9,
,,,,,,,,,,,,,,,,,,,,,,,,,images/exp1b_trial_11_colour2_distractors43_r.png,r,2,017,001,2021-04-20_12h23.08.422,searchDisc4,2020.2.10,Win32,60,,,,space,0.286,2,1,1.682,,0,293,293,125,1,1b,11,2,43,
,,,,,,,,,,,,,,,,,,,,,,,,,images/exp1b_trial_8_colour2_distractors9_r.png,r,2,017,001,2021-04-20_12h23.08.422,searchDisc4,2020.2.10,Win32,60,,,,space,0.286,2,1,0.73,,0,294,294,122,1,1b,8,2,9,
,,,,,,,,,,,,,,,,,,,,,,,,,images/exp2b_trial_50_colour3_distractors1_r.png,r,2,017,001,2021-04-20_12h23.08.422,searchDisc4,2020.2.10,Win32,60,,,,space,0.239,2,1,1.097,,0,295,295,392,1,2b,50,3,1,
,,,,,,,,,,,,,,,,,,,,,,,,,images/exp1a_trial_68_colour3_distractors1_l.png,l,1,017,001,2021-04-20_12h23.08.422,searchDisc4,2020.2.10,Win32,60,,,,space,0.251,1,1,0.849,,0,296,296,68,1,1a,68,3,1,
,,,,,,,,,,,,,,,,,,,,,,,,,images/exp2c_trial_89_colour3_distractors4_r.png,r,2,017,001,2021-04-20_12h23.08.422,searchDisc4,2020.2.10,Win32,60,,,,space,0.271,2,1,1.065,,0,297,297,545,1,2c,89,3,4,
,,,,,,,,,,,,,,,,,,,,,,,,,images/exp2b_trial_75_colour0_distractors0_l.png,l,1,017,001,2021-04-20_12h23.08.422,searchDisc4,2020.2.10,Win32,60,,,,space,0.189,1,1,0.616,,0,298,298,417,1,2b,75,0,0,
,,,,,,,,,,,,,,,,,,,,,,,,,images/exp1b_trial_82_colour2_distractors1_r.png,r,2,017,001,2021-04-20_12h23.08.422,searchDisc4,2020.2.10,Win32,60,,,,space,0.27,2,1,0.648,space,0,299,299,196,1,1b,82,2,1,0.266
,,,,,,,,,,,,,,,,,,,,,,,,,images/exp2a_trial_8_colour2_distractors9_r.png,r,2,017,001,2021-04-20_12h23.08.422,searchDisc4,2020.2.10,Win32,60,,,,space,2.451,2,1,0.637,,0,300,300,236,1,2a,8,2,9,
,,,,,,,,,,,,,,,,,,,,,,,,,images/exp2b_trial_72_colour3_distractors31_l.png,l,1,017,001,2021-04-20_12h23.08.422,searchDisc4,2020.2.10,Win32,60,,,,space,0.269,1,1,0.997,,0,301,301,414,1,2b,72,3,31,
,,,,,,,,,,,,,,,,,,,,,,,,,images/exp2a_trial_103_colour2_distractors19_l.png,l,1,017,001,2021-04-20_12h23.08.422,searchDisc4,2020.2.10,Win32,60,,,,space,0.252,1,1,0.613,,0,302,302,331,1,2a,103,2,19,
,,,,,,,,,,,,,,,,,,,,,,,,,images/exp2c_trial_7_colour2_distractors4_r.png,r,2,017,001,2021-04-20_12h23.08.422,searchDisc4,2020.2.10,Win32,60,,,,space,0.234,2,1,0.903,,0,303,303,463,1,2c,7,2,4,
,,,,,,,,,,,,,,,,,,,,,,,,,images/exp1a_trial_59_colour1_distractors19_l.png,l,1,017,001,2021-04-20_12h23.08.422,searchDisc4,2020.2.10,Win32,60,,,,space,0.259,1,1,0.778,,0,304,304,59,1,1a,59,1,19,
,,,,,,,,,,,,,,,,,,,,,,,,,images/exp2a_trial_51_colour3_distractors4_r.png,r,2,017,001,2021-04-20_12h23.08.422,searchDisc4,2020.2.10,Win32,60,,,,space,0.267,2,1,1.064,,0,305,305,279,1,2a,51,3,4,
,,,,,,,,,,,,,,,,,,,,,,,,,images/exp2b_trial_20_colour1_distractors9_l.png,l,1,017,001,2021-04-20_12h23.08.422,searchDisc4,2020.2.10,Win32,60,,,,space,0.252,1,1,0.569,,0,306,306,362,1,2b,20,1,9,
,,,,,,,,,,,,,,,,,,,,,,,,,images/exp2a_trial_14_colour3_distractors9_r.png,r,2,017,001,2021-04-20_12h23.08.422,searchDisc4,2020.2.10,Win32,60,,,,space,0.267,2,1,0.896,,0,307,307,242,1,2a,14,3,9,
,,,,,,,,,,,,,,,,,,,,,,,,,images/exp2b_trial_101_colour2_distractors4_l.png,l,1,017,001,2021-04-20_12h23.08.422,searchDisc4,2020.2.10,Win32,60,,,,space,0.584,1,1,0.788,,0,308,308,443,1,2b,101,2,4,
,,,,,,,,,,,,,,,,,,,,,,,,,images/exp1a_trial_7_colour2_distractors4_r.png,r,2,017,001,2021-04-20_12h23.08.422,searchDisc4,2020.2.10,Win32,60,,,,space,0.67,2,1,0.602,,0,309,309,7,1,1a,7,2,4,
,,,,,,,,,,,,,,,,,,,,,,,,,images/exp2a_trial_48_colour2_distractors31_r.png,r,2,017,001,2021-04-20_12h23.08.422,searchDisc4,2020.2.10,Win32,60,,,,space,0.218,2,1,0.715,,0,310,310,276,1,2a,48,2,31,
,,,,,,,,,,,,,,,,,,,,,,,,,images/exp1b_trial_51_colour3_distractors4_r.png,r,2,017,001,2021-04-20_12h23.08.422,searchDisc4,2020.2.10,Win32,60,,,,space,0.175,2,1,1.362,,0,311,311,165,1,1b,51,3,4,
,,,,,,,,,,,,,,,,,,,,,,,,,images/exp1a_trial_56_colour1_distractors1_l.png,l,1,017,001,2021-04-20_12h23.08.422,searchDisc4,2020.2.10,Win32,60,,,,space,0.201,1,1,0.901,,0,312,312,56,1,1a,56,1,1,
,,,,,,,,,,,,,,,,,,,,,,,,,images/exp1b_trial_108_colour3_distractors9_l.png,l,1,017,001,2021-04-20_12h23.08.422,searchDisc4,2020.2.10,Win32,60,,,,space,0.25,1,1,1.296,,0,313,313,222,1,1b,108,3,9,
,,,,,,,,,,,,,,,,,,,,,,,,,images/exp1b_trial_36_colour0_distractors0_r.png,r,2,017,001,2021-04-20_12h23.08.422,searchDisc4,2020.2.10,Win32,60,,,,space,0.308,2,1,1.846,,0,314,314,150,1,1b,36,0,0,
,,,,,,,,,,,,,,,,,,,,,,,,,images/exp2c_trial_73_colour3_distractors43_l.png,l,1,017,001,2021-04-20_12h23.08.422,searchDisc4,2020.2.10,Win32,60,,,,space,1.658,1,1,2.247,,0,315,315,529,1,2c,73,3,43,
,,,,,,,,,,,,,,,,,,,,,,,,,images/exp2c_trial_77_colour1_distractors4_r.png,r,2,017,001,2021-04-20_12h23.08.422,searchDisc4,2020.2.10,Win32,60,,,,space,0.384,2,1,0.584,,0,316,316,533,1,2c,77,1,4,
,,,,,,,,,,,,,,,,,,,,,,,,,images/exp2c_trial_6_colour2_distractors1_r.png,r,2,017,001,2021-04-20_12h23.08.422,searchDisc4,2020.2.10,Win32,60,,,,space,0.273,2,1,0.744,,0,317,317,462,1,2c,6,2,1,
,,,,,,,,,,,,,,,,,,,,,,,,,images/exp2b_trial_42_colour1_distractors31_r.png,r,2,017,001,2021-04-20_12h23.08.422,searchDisc4,2020.2.10,Win32,60,,,,space,0.252,2,1,1.047,,0,318,318,384,1,2b,42,1,31,
,,,,,,,,,,,,,,,,,,,,,,,,,images/exp2b_trial_63_colour2_distractors4_l.png,l,1,017,001,2021-04-20_12h23.08.422,searchDisc4,2020.2.10,Win32,60,,,,space,0.189,1,1,0.654,,0,319,319,405,1,2b,63,2,4,
,,,,,,,,,,,,,,,,,,,,,,,,,images/exp1a_trial_26_colour2_distractors9_l.png,l,1,017,001,2021-04-20_12h23.08.422,searchDisc4,2020.2.10,Win32,60,,,,space,0.321,1,1,0.914,,0,320,320,26,1,1a,26,2,9,
,,,,,,,,,,,,,,,,,,,,,,,,,images/exp2a_trial_25_colour2_distractors4_l.png,l,1,017,001,2021-04-20_12h23.08.422,searchDisc4,2020.2.10,Win32,60,,,,space,0.289,1,1,0.717,,0,321,321,253,1,2a,25,2,4,
,,,,,,,,,,,,,,,,,,,,,,,,,images/exp2b_trial_60_colour1_distractors31_l.png,l,1,017,001,2021-04-20_12h23.08.422,searchDisc4,2020.2.10,Win32,60,,,,space,0.687,1,1,0.796,,0,322,322,402,1,2b,60,1,31,
,,,,,,,,,,,,,,,,,,,,,,,,,images/exp1a_trial_13_colour3_distractors4_r.png,r,2,017,001,2021-04-20_12h23.08.422,searchDisc4,2020.2.10,Win32,60,,,,space,0.268,2,1,0.851,,0,323,323,13,1,1a,13,3,4,
,,,,,,,,,,,,,,,,,,,,,,,,,images/exp2a_trial_100_colour2_distractors1_l.png,l,1,017,001,2021-04-20_12h23.08.422,searchDisc4,2020.2.10,Win32,60,,,,space,0.268,1,1,0.677,,0,324,324,328,1,2a,100,2,1,
,,,,,,,,,,,,,,,,,,,,,,,,,images/exp1a_trial_96_colour1_distractors9_l.png,l,1,017,001,2021-04-20_12h23.08.422,searchDisc4,2020.2.10,Win32,60,,,,space,0.283,2,0,0.529,,0,325,325,96,1,1a,96,1,9,
,,,,,,,,,,,,,,,,,,,,,,,,,images/exp2c_trial_94_colour1_distractors1_l.png,l,1,017,001,2021-04-20_12h23.08.422,searchDisc4,2020.2.10,Win32,60,,,,space,0.558,1,1,0.482,,0,326,326,550,1,2c,94,1,1,
,,,,,,,,,,,,,,,,,,,,,,,,,images/exp2b_trial_34_colour3_distractors31_l.png,l,1,017,001,2021-04-20_12h23.08.422,searchDisc4,2020.2.10,Win32,60,,,,space,0.268,1,1,0.946,,0,327,327,376,1,2b,34,3,31,
,,,,,,,,,,,,,,,,,,,,,,,,,images/exp2c_trial_66_colour2_distractors31_l.png,l,1,017,001,2021-04-20_12h23.08.422,searchDisc4,2020.2.10,Win32,60,,,,space,0.258,1,1,0.764,,0,328,328,522,1,2c,66,2,31,
,,,,,,,,,,,,,,,,,,,,,,,,,images/exp1b_trial_23_colour1_distractors43_l.png,l,1,017,001,2021-04-20_12h23.08.422,searchDisc4,2020.2.10,Win32,60,,,,space,0.284,1,1,1.167,,0,329,329,137,1,1b,23,1,43,
,,,,,,,,,,,,,,,,,,,,,,,,,images/exp2b_trial_26_colour2_distractors9_l.png,l,1,017,001,2021-04-20_12h23.08.422,searchDisc4,2020.2.10,Win32,60,,,,space,0.253,1,1,0.713,,0,330,330,368,1,2b,26,2,9,
,,,,,,,,,,,,,,,,,,,,,,,,,images/exp2a_trial_73_colour3_distractors43_l.png,l,1,017,001,2021-04-20_12h23.08.422,searchDisc4,2020.2.10,Win32,60,,,,space,0.241,1,1,0.593,,0,331,331,301,1,2a,73,3,43,
,,,,,,,,,,,,,,,,,,,,,,,,,images/exp1b_trial_17_colour3_distractors43_r.png,r,2,017,001,2021-04-20_12h23.08.422,searchDisc4,2020.2.10,Win32,60,,,,space,0.234,2,1,2.567,,0,332,332,131,1,1b,17,3,43,
,,,,,,,,,,,,,,,,,,,,,,,,,images/exp1b_trial_96_colour1_distractors9_l.png,l,1,017,001,2021-04-20_12h23.08.422,searchDisc4,2020.2.10,Win32,60,,,,space,0.235,1,1,1.385,,0,333,333,210,1,1b,96,1,9,
,,,,,,,,,,,,,,,,,,,,,,,,,images/exp2b_trial_22_colour1_distractors31_l.png,l,1,017,001,2021-04-20_12h23.08.422,searchDisc4,2020.2.10,Win32,60,,,,space,0.342,1,1,0.794,,0,334,334,364,1,2b,22,1,31,
,,,,,,,,,,,,,,,,,,,,,,,,,images/exp1a_trial_69_colour3_distractors4_l.png,l,1,017,001,2021-04-20_12h23.08.422,searchDisc4,2020.2.10,Win32,60,,,,space,0.251,1,1,0.779,,0,335,335,69,1,1a,69,3,4,
,,,,,,,,,,,,,,,,,,,,,,,,,images/exp2c_trial_75_colour0_distractors0_l.png,l,1,017,001,2021-04-20_12h23.08.422,searchDisc4,2020.2.10,Win32,60,,,,space,0.21,1,1,0.478,,0,336,336,531,1,2c,75,0,0,
,,,,,,,,,,,,,,,,,,,,,,,,,images/exp1b_trial_25_colour2_distractors4_l.png,l,1,017,001,2021-04-20_12h23.08.422,searchDisc4,2020.2.10,Win32,60,,,,space,0.175,1,1,0.864,,0,337,337,139,1,1b,25,2,4,
,,,,,,,,,,,,,,,,,,,,,,,,,images/exp2c_trial_12_colour3_distractors1_r.png,r,2,017,001,2021-04-20_12h23.08.422,searchDisc4,2020.2.10,Win32,60,,,,space,0.454,2,1,0.546,,0,338,338,468,1,2c,12,3,1,
,,,,,,,,,,,,,,,,,,,,,,,,,images/exp2a_trial_9_colour2_distractors19_r.png,r,2,017,001,2021-04-20_12h23.08.422,searchDisc4,2020.2.10,Win32,60,,,,space,0.235,2,1,1.021,,0,339,339,237,1,2a,9,2,19,
,,,,,,,,,,,,,,,,,,,,,,,,,images/exp2b_trial_54_colour3_distractors31_r.png,r,2,017,001,2021-04-20_12h23.08.422,searchDisc4,2020.2.10,Win32,60,,,,space,0.523,2,1,0.748,,0,340,340,396,1,2b,54,3,31,
,,,,,,,,,,,,,,,,,,,,,,,,,images/exp1b_trial_29_colour2_distractors43_l.png,l,1,017,001,2021-04-20_12h23.08.422,searchDisc4,2020.2.10,Win32,60,,,,space,0.301,1,1,3.567,,0,341,341,143,1,1b,29,2,43,
,,,,,,,,,,,,,,,,,,,,,,,,,images/exp2b_trial_8_colour2_distractors9_r.png,r,2,017,001,2021-04-20_12h23.08.422,searchDisc4,2020.2.10,Win32,60,,,,space,0.371,2,1,0.663,,0,342,342,350,1,2b,8,2,9,
,,,,,,,,,,,,,,,,,,,,,,,,,images/exp2b_trial_46_colour2_distractors9_r.png,r,2,017,001,2021-04-20_12h23.08.422,searchDisc4,2020.2.10,Win32,60,,,,space,0.288,2,1,0.734,,0,343,343,388,1,2b,46,2,9,
,,,,,,,,,,,,,,,,,,,,,,,,,images/exp2a_trial_27_colour2_distractors19_l.png,l,1,017,001,2021-04-20_12h23.08.422,searchDisc4,2020.2.10,Win32,60,,,,space,0.334,1,1,0.595,,0,344,344,255,1,2a,27,2,19,
,,,,,,,,,,,,,,,,,,,,,,,,,images/exp1a_trial_64_colour2_distractors9_l.png,l,1,017,001,2021-04-20_12h23.08.422,searchDisc4,2020.2.10,Win32,60,,,,space,0.274,1,1,0.919,,0,345,345,64,1,1a,64,2,9,
,,,,,,,,,,,,,,,,,,,,,,,,,images/exp1a_trial_21_colour1_distractors19_l.png,l,1,017,001,2021-04-20_12h23.08.422,searchDisc4,2020.2.10,Win32,60,,,,space,0.34,1,1,0.688,,0,346,346,21,1,1a,21,1,19,
,,,,,,,,,,,,,,,,,,,,,,,,,images/exp1b_trial_57_colour1_distractors4_l.png,l,1,017,001,2021-04-20_12h23.08.422,searchDisc4,2020.2.10,Win32,60,,,,space,0.318,1,1,0.797,,0,347,347,171,1,1b,57,1,4,
,,,,,,,,,,,,,,,,,,,,,,,,,images/exp2a_trial_31_colour3_distractors4_l.png,l,1,017,001,2021-04-20_12h23.08.422,searchDisc4,2020.2.10,Win32,60,,,,space,0.301,1,1,0.602,,0,348,348,259,1,2a,31,3,4,
,,,,,,,,,,,,,,,,,,,,,,,,,images/exp2b_trial_52_colour3_distractors9_r.png,r,2,017,001,2021-04-20_12h23.08.422,searchDisc4,2020.2.10,Win32,60,,,,space,0.233,2,1,0.92,,0,349,349,394,1,2b,52,3,9,
,,,,,,,,,,,,,,,,,,,,,,,,,images/exp2b_trial_18_colour1_distractors1_l.png,l,1,017,001,2021-04-20_12h23.08.422,searchDisc4,2020.2.10,Win32,60,,,,space,0.302,1,1,0.846,,0,350,350,360,1,2b,18,1,1,
,,,,,,,,,,,,,,,,,,,,,,,,,images/exp2a_trial_58_colour1_distractors9_l.png,l,1,017,001,2021-04-20_12h23.08.422,searchDisc4,2020.2.10,Win32,60,,,,space,0.284,1,1,0.653,,0,351,351,286,1,2a,58,1,9,
,,,,,,,,,,,,,,,,,,,,,,,,,images/exp1b_trial_37_colour0_distractors0_l.png,l,1,017,001,2021-04-20_12h23.08.422,searchDisc4,2020.2.10,Win32,60,,,,space,0.29,1,1,0.652,,0,352,352,151,1,1b,37,0,0,
,,,,,,,,,,,,,,,,,,,,,,,,,images/exp1a_trial_65_colour2_distractors19_l.png,l,1,017,001,2021-04-20_12h23.08.422,searchDisc4,2020.2.10,Win32,60,,,,space,0.674,1,1,0.829,,0,353,353,65,1,1a,65,2,19,
,,,,,,,,,,,,,,,,,,,,,,,,,images/exp1a_trial_20_colour1_distractors9_l.png,l,1,017,001,2021-04-20_12h23.08.422,searchDisc4,2020.2.10,Win32,60,,,,space,0.502,1,1,0.747,,0,354,354,20,1,1a,20,1,9,
,,,,,,,,,,,,,,,,,,,,,,,,,images/exp1a_trial_106_colour3_distractors1_l.png,l,1,017,001,2021-04-20_12h23.08.422,searchDisc4,2020.2.10,Win32,60,,,,space,0.285,1,1,2.011,,0,355,355,106,1,1a,106,3,1,
,,,,,,,,,,,,,,,,,,,,,,,,,images/exp1b_trial_77_colour1_distractors4_r.png,r,2,017,001,2021-04-20_12h23.08.422,searchDisc4,2020.2.10,Win32,60,,,,space,0.436,2,1,0.782,,0,356,356,191,1,1b,77,1,4,
,,,,,,,,,,,,,,,,,,,,,,,,,images/exp1a_trial_11_colour2_distractors43_r.png,r,2,017,001,2021-04-20_12h23.08.422,searchDisc4,2020.2.10,Win32,60,,,,space,0.268,2,1,0.88,,0,357,357,11,1,1a,11,2,43,
,,,,,,,,,,,,,,,,,,,,,,,,,images/exp2c_trial_19_colour1_distractors4_l.png,l,1,017,001,2021-04-20_12h23.08.422,searchDisc4,2020.2.10,Win32,60,,,,space,0.284,1,1,0.715,,0,358,358,475,1,2c,19,1,4,
,,,,,,,,,,,,,,,,,,,,,,,,,images/exp1b_trial_71_colour3_distractors19_l.png,l,1,017,001,2021-04-20_12h23.08.422,searchDisc4,2020.2.10,Win32,60,,,,space,0.301,1,1,3.054,space,0,359,359,185,1,1b,71,3,19,81.384
,,,,,,,,,,,,,,,,,,,,,,,,,images/exp1b_trial_86_colour2_distractors31_r.png,r,2,017,001,2021-04-20_12h23.08.422,searchDisc4,2020.2.10,Win32,60,,,,space,0.984,2,1,1.235,,0,360,360,200,1,1b,86,2,31,
,,,,,,,,,,,,,,,,,,,,,,,,,images/exp2b_trial_3_colour1_distractors19_r.png,r,2,017,001,2021-04-20_12h23.08.422,searchDisc4,2020.2.10,Win32,60,,,,space,0.473,2,1,0.668,,0,361,361,345,1,2b,3,1,19,
,,,,,,,,,,,,,,,,,,,,,,,,,images/exp1a_trial_18_colour1_distractors1_l.png,l,1,017,001,2021-04-20_12h23.08.422,searchDisc4,2020.2.10,Win32,60,,,,space,0.334,1,1,0.712,,0,362,362,18,1,1a,18,1,1,
,,,,,,,,,,,,,,,,,,,,,,,,,images/exp1a_trial_32_colour3_distractors9_l.png,l,1,017,001,2021-04-20_12h23.08.422,searchDisc4,2020.2.10,Win32,60,,,,space,0.32,1,1,0.549,,0,363,363,32,1,1a,32,3,9,
,,,,,,,,,,,,,,,,,,,,,,,,,images/exp2a_trial_47_colour2_distractors19_r.png,r,2,017,001,2021-04-20_12h23.08.422,searchDisc4,2020.2.10,Win32,60,,,,space,0.318,2,1,0.577,,0,364,364,275,1,2a,47,2,19,
,,,,,,,,,,,,,,,,,,,,,,,,,images/exp1a_trial_3_colour1_distractors19_r.png,r,2,017,001,2021-04-20_12h23.08.422,searchDisc4,2020.2.10,Win32,60,,,,space,0.251,2,1,0.664,,0,365,365,3,1,1a,3,1,19,
,,,,,,,,,,,,,,,,,,,,,,,,,images/exp1b_trial_39_colour1_distractors4_r.png,r,2,017,001,2021-04-20_12h23.08.422,searchDisc4,2020.2.10,Win32,60,,,,space,0.474,2,1,1.014,,0,366,366,153,1,1b,39,1,4,
,,,,,,,,,,,,,,,,,,,,,,,,,images/exp2b_trial_109_colour3_distractors19_l.png,l,1,017,001,2021-04-20_12h23.08.422,searchDisc4,2020.2.10,Win32,60,,,,space,0.256,1,1,0.597,,0,367,367,451,1,2b,109,3,19,
,,,,,,,,,,,,,,,,,,,,,,,,,images/exp2a_trial_44_colour2_distractors1_r.png,r,2,017,001,2021-04-20_12h23.08.422,searchDisc4,2020.2.10,Win32,60,,,,space,0.237,2,1,0.613,,0,368,368,272,1,2a,44,2,1,
,,,,,,,,,,,,,,,,,,,,,,,,,images/exp1a_trial_77_colour1_distractors4_r.png,r,2,017,001,2021-04-20_12h23.08.422,searchDisc4,2020.2.10,Win32,60,,,,space,0.242,2,1,0.568,,0,369,369,77,1,1a,77,1,4,
,,,,,,,,,,,,,,,,,,,,,,,,,images/exp2a_trial_86_colour2_distractors31_r.png,r,2,017,001,2021-04-20_12h23.08.422,searchDisc4,2020.2.10,Win32,60,,,,space,0.234,2,1,0.584,,0,370,370,314,1,2a,86,2,31,
,,,,,,,,,,,,,,,,,,,,,,,,,images/exp2b_trial_30_colour3_distractors1_l.png,l,1,017,001,2021-04-20_12h23.08.422,searchDisc4,2020.2.10,Win32,60,,,,space,0.238,2,0,0.636,,0,371,371,372,1,2b,30,3,1,
,,,,,,,,,,,,,,,,,,,,,,,,,images/exp1b_trial_104_colour2_distractors31_l.png,l,1,017,001,2021-04-20_12h23.08.422,searchDisc4,2020.2.10,Win32,60,,,,space,0.467,1,1,2.13,,0,372,372,218,1,1b,104,2,31,
,,,,,,,,,,,,,,,,,,,,,,,,,images/exp2c_trial_43_colour1_distractors43_r.png,r,2,017,001,2021-04-20_12h23.08.422,searchDisc4,2020.2.10,Win32,60,,,,space,0.22,2,1,0.654,,0,373,373,499,1,2c,43,1,43,
,,,,,,,,,,,,,,,,,,,,,,,,,images/exp2c_trial_104_colour2_distractors31_l.png,l,1,017,001,2021-04-20_12h23.08.422,searchDisc4,2020.2.10,Win32,60,,,,space,0.254,1,1,0.731,,0,374,374,560,1,2c,104,2,31,
,,,,,,,,,,,,,,,,,,,,,,,,,images/exp1a_trial_55_colour3_distractors43_r.png,r,2,017,001,2021-04-20_12h23.08.422,searchDisc4,2020.2.10,Win32,60,,,,space,0.242,2,1,0.822,,0,375,375,55,1,1a,55,3,43,
,,,,,,,,,,,,,,,,,,,,,,,,,images/exp1b_trial_44_colour2_distractors1_r.png,r,2,017,001,2021-04-20_12h23.08.422,searchDisc4,2020.2.10,Win32,60,,,,space,0.235,2,1,0.713,,0,376,376,158,1,1b,44,2,1,
,,,,,,,,,,,,,,,,,,,,,,,,,images/exp2b_trial_71_colour3_distractors19_l.png,l,1,017,001,2021-04-20_12h23.08.422,searchDisc4,2020.2.10,Win32,60,,,,space,0.285,1,1,0.698,,0,377,377,413,1,2b,71,3,19,
,,,,,,,,,,,,,,,,,,,,,,,,,images/exp2c_trial_27_colour2_distractors19_l.png,l,1,017,001,2021-04-20_12h23.08.422,searchDisc4,2020.2.10,Win32,60,,,,space,0.285,1,1,0.814,,0,378,378,483,1,2c,27,2,19,
,,,,,,,,,,,,,,,,,,,,,,,,,images/exp2b_trial_13_colour3_distractors4_r.png,r,2,017,001,2021-04-20_12h23.08.422,searchDisc4,2020.2.10,Win32,60,,,,space,0.27,2,1,0.746,,0,379,379,355,1,2b,13,3,4,
,,,,,,,,,,,,,,,,,,,,,,,,,images/exp1a_trial_110_colour3_distractors31_l.png,l,1,017,001,2021-04-20_12h23.08.422,searchDisc4,2020.2.10,Win32,60,,,,space,0.251,1,1,0.729,,0,380,380,110,1,1a,110,3,31,
,,,,,,,,,,,,,,,,,,,,,,,,,images/exp2a_trial_70_colour3_distractors9_l.png,l,1,017,001,2021-04-20_12h23.08.422,searchDisc4,2020.2.10,Win32,60,,,,space,0.301,1,1,0.645,,0,381,381,298,1,2a,70,3,9,
,,,,,,,,,,,,,,,,,,,,,,,,,images/exp1b_trial_87_colour2_distractors43_r.png,r,2,017,001,2021-04-20_12h23.08.422,searchDisc4,2020.2.10,Win32,60,,,,space,0.287,2,1,2.702,,0,382,382,201,1,1b,87,2,43,
,,,,,,,,,,,,,,,,,,,,,,,,,images/exp1a_trial_36_colour0_distractors0_r.png,r,2,017,001,2021-04-20_12h23.08.422,searchDisc4,2020.2.10,Win32,60,,,,space,0.338,2,1,0.663,,0,383,383,36,1,1a,36,0,0,
,,,,,,,,,,,,,,,,,,,,,,,,,images/exp2b_trial_49_colour2_distractors43_r.png,r,2,017,001,2021-04-20_12h23.08.422,searchDisc4,2020.2.10,Win32,60,,,,space,0.304,2,1,0.819,,0,384,384,391,1,2b,49,2,43,
,,,,,,,,,,,,,,,,,,,,,,,,,images/exp1a_trial_29_colour2_distractors43_l.png,l,1,017,001,2021-04-20_12h23.08.422,searchDisc4,2020.2.10,Win32,60,,,,space,0.317,1,1,0.786,,0,385,385,29,1,1a,29,2,43,
,,,,,,,,,,,,,,,,,,,,,,,,,images/exp2b_trial_6_colour2_distractors1_r.png,r,2,017,001,2021-04-20_12h23.08.422,searchDisc4,2020.2.10,Win32,60,,,,space,0.304,2,1,0.6,,0,386,386,348,1,2b,6,2,1,
,,,,,,,,,,,,,,,,,,,,,,,,,images/exp2a_trial_84_colour2_distractors9_r.png,r,2,017,001,2021-04-20_12h23.08.422,searchDisc4,2020.2.10,Win32,60,,,,space,0.306,2,1,0.58,,0,387,387,312,1,2a,84,2,9,
,,,,,,,,,,,,,,,,,,,,,,,,,images/exp1a_trial_22_colour1_distractors31_l.png,l,1,017,001,2021-04-20_12h23.08.422,searchDisc4,2020.2.10,Win32,60,,,,space,0.323,1,1,0.597,,0,388,388,22,1,1a,22,1,31,
,,,,,,,,,,,,,,,,,,,,,,,,,images/exp2b_trial_21_colour1_distractors19_l.png,l,1,017,001,2021-04-20_12h23.08.422,searchDisc4,2020.2.10,Win32,60,,,,space,0.368,1,1,0.713,,0,389,389,363,1,2b,21,1,19,
,,,,,,,,,,,,,,,,,,,,,,,,,images/exp2c_trial_97_colour1_distractors19_l.png,l,1,017,001,2021-04-20_12h23.08.422,searchDisc4,2020.2.10,Win32,60,,,,space,0.368,1,1,0.699,,0,390,390,553,1,2c,97,1,19,
,,,,,,,,,,,,,,,,,,,,,,,,,images/exp1a_trial_67_colour2_distractors43_l.png,l,1,017,001,2021-04-20_12h23.08.422,searchDisc4,2020.2.10,Win32,60,,,,space,0.323,1,1,0.745,,0,391,391,67,1,1a,67,2,43,
,,,,,,,,,,,,,,,,,,,,,,,,,images/exp2b_trial_68_colour3_distractors1_l.png,l,1,017,001,2021-04-20_12h23.08.422,searchDisc4,2020.2.10,Win32,60,,,,space,0.367,1,1,0.896,,0,392,392,410,1,2b,68,3,1,
,,,,,,,,,,,,,,,,,,,,,,,,,images/exp2c_trial_22_colour1_distractors31_l.png,l,1,017,001,2021-04-20_12h23.08.422,searchDisc4,2020.2.10,Win32,60,,,,space,0.404,1,1,0.747,,0,393,393,478,1,2c,22,1,31,
,,,,,,,,,,,,,,,,,,,,,,,,,images/exp2c_trial_72_colour3_distractors31_l.png,l,1,017,001,2021-04-20_12h23.08.422,searchDisc4,2020.2.10,Win32,60,,,,space,0.358,1,1,0.779,,0,394,394,528,1,2c,72,3,31,
,,,,,,,,,,,,,,,,,,,,,,,,,images/exp2a_trial_0_colour1_distractors1_r.png,r,2,017,001,2021-04-20_12h23.08.422,searchDisc4,2020.2.10,Win32,60,,,,space,0.335,2,1,0.629,,0,395,395,228,1,2a,0,1,1,
,,,,,,,,,,,,,,,,,,,,,,,,,images/exp2a_trial_43_colour1_distractors43_r.png,r,2,017,001,2021-04-20_12h23.08.422,searchDisc4,2020.2.10,Win32,60,,,,space,0.308,2,1,1.002,,0,396,396,271,1,2a,43,1,43,
,,,,,,,,,,,,,,,,,,,,,,,,,images/exp2b_trial_85_colour2_distractors19_r.png,r,2,017,001,2021-04-20_12h23.08.422,searchDisc4,2020.2.10,Win32,60,,,,space,0.568,2,1,0.468,,0,397,397,427,1,2b,85,2,19,
,,,,,,,,,,,,,,,,,,,,,,,,,images/exp2a_trial_39_colour1_distractors4_r.png,r,2,017,001,2021-04-20_12h23.08.422,searchDisc4,2020.2.10,Win32,60,,,,space,0.267,2,1,0.871,,0,398,398,267,1,2a,39,1,4,
,,,,,,,,,,,,,,,,,,,,,,,,,images/exp1a_trial_100_colour2_distractors1_l.png,l,1,017,001,2021-04-20_12h23.08.422,searchDisc4,2020.2.10,Win32,60,,,,space,0.318,1,1,0.57,,0,399,399,100,1,1a,100,2,1,
,,,,,,,,,,,,,,,,,,,,,,,,,images/exp2a_trial_105_colour2_distractors43_l.png,l,1,017,001,2021-04-20_12h23.08.422,searchDisc4,2020.2.10,Win32,60,,,,space,0.324,1,1,0.614,,0,400,400,333,1,2a,105,2,43,
,,,,,,,,,,,,,,,,,,,,,,,,,images/exp2a_trial_111_colour3_distractors43_l.png,l,1,017,001,2021-04-20_12h23.08.422,searchDisc4,2020.2.10,Win32,60,,,,space,0.275,1,1,0.565,,0,401,401,339,1,2a,111,3,43,
,,,,,,,,,,,,,,,,,,,,,,,,,images/exp2a_trial_77_colour1_distractors4_r.png,r,2,017,001,2021-04-20_12h23.08.422,searchDisc4,2020.2.10,Win32,60,,,,space,0.3,2,1,0.687,,0,402,402,305,1,2a,77,1,4,
,,,,,,,,,,,,,,,,,,,,,,,,,images/exp1b_trial_66_colour2_distractors31_l.png,l,1,017,001,2021-04-20_12h23.08.422,searchDisc4,2020.2.10,Win32,60,,,,space,0.251,1,1,0.952,,0,403,403,180,1,1b,66,2,31,
,,,,,,,,,,,,,,,,,,,,,,,,,images/exp1a_trial_0_colour1_distractors1_r.png,r,2,017,001,2021-04-20_12h23.08.422,searchDisc4,2020.2.10,Win32,60,,,,space,0.269,2,1,0.763,,0,404,404,0,1,1a,0,1,1,
,,,,,,,,,,,,,,,,,,,,,,,,,images/exp2a_trial_4_colour1_distractors31_r.png,r,2,017,001,2021-04-20_12h23.08.422,searchDisc4,2020.2.10,Win32,60,,,,space,0.217,2,1,0.664,,0,405,405,232,1,2a,4,1,31,
,,,,,,,,,,,,,,,,,,,,,,,,,images/exp2a_trial_18_colour1_distractors1_l.png,l,1,017,001,2021-04-20_12h23.08.422,searchDisc4,2020.2.10,Win32,60,,,,space,0.217,1,1,0.531,,0,406,406,246,1,2a,18,1,1,
,,,,,,,,,,,,,,,,,,,,,,,,,images/exp1a_trial_15_colour3_distractors19_r.png,r,2,017,001,2021-04-20_12h23.08.422,searchDisc4,2020.2.10,Win32,60,,,,space,0.273,2,1,0.654,,0,407,407,15,1,1a,15,3,19,
,,,,,,,,,,,,,,,,,,,,,,,,,images/exp2b_trial_73_colour3_distractors43_l.png,l,1,017,001,2021-04-20_12h23.08.422,searchDisc4,2020.2.10,Win32,60,,,,space,0.251,1,1,0.88,,0,408,408,415,1,2b,73,3,43,
,,,,,,,,,,,,,,,,,,,,,,,,,images/exp1a_trial_1_colour1_distractors4_r.png,r,2,017,001,2021-04-20_12h23.08.422,searchDisc4,2020.2.10,Win32,60,,,,space,0.256,2,1,0.53,,0,409,409,1,1,1a,1,1,4,
,,,,,,,,,,,,,,,,,,,,,,,,,images/exp1a_trial_80_colour1_distractors31_r.png,r,2,017,001,2021-04-20_12h23.08.422,searchDisc4,2020.2.10,Win32,60,,,,space,0.218,2,1,0.65,,0,410,410,80,1,1a,80,1,31,
,,,,,,,,,,,,,,,,,,,,,,,,,images/exp2b_trial_51_colour3_distractors4_r.png,r,2,017,001,2021-04-20_12h23.08.422,searchDisc4,2020.2.10,Win32,60,,,,space,0.207,1,0,0.665,,0,411,411,393,1,2b,51,3,4,
,,,,,,,,,,,,,,,,,,,,,,,,,images/exp2c_trial_14_colour3_distractors9_r.png,r,2,017,001,2021-04-20_12h23.08.422,searchDisc4,2020.2.10,Win32,60,,,,space,0.601,2,1,0.721,,0,412,412,470,1,2c,14,3,9,
,,,,,,,,,,,,,,,,,,,,,,,,,images/exp2b_trial_64_colour2_distractors9_l.png,l,1,017,001,2021-04-20_12h23.08.422,searchDisc4,2020.2.10,Win32,60,,,,space,0.253,1,1,0.78,,0,413,413,406,1,2b,64,2,9,
,,,,,,,,,,,,,,,,,,,,,,,,,images/exp2c_trial_108_colour3_distractors9_l.png,l,1,017,001,2021-04-20_12h23.08.422,searchDisc4,2020.2.10,Win32,60,,,,space,0.236,1,1,0.684,,0,414,414,564,1,2c,108,3,9,
,,,,,,,,,,,,,,,,,,,,,,,,,images/exp2b_trial_70_colour3_distractors9_l.png,l,1,017,001,2021-04-20_12h23.08.422,searchDisc4,2020.2.10,Win32,60,,,,space,0.251,1,1,0.635,,0,415,415,412,1,2b,70,3,9,
,,,,,,,,,,,,,,,,,,,,,,,,,images/exp2b_trial_103_colour2_distractors19_l.png,l,1,017,001,2021-04-20_12h23.08.422,searchDisc4,2020.2.10,Win32,60,,,,space,0.266,1,1,0.58,,0,416,416,445,1,2b,103,2,19,
,,,,,,,,,,,,,,,,,,,,,,,,,images/exp2a_trial_52_colour3_distractors9_r.png,r,2,017,001,2021-04-20_12h23.08.422,searchDisc4,2020.2.10,Win32,60,,,,space,0.338,2,1,0.58,,0,417,417,280,1,2a,52,3,9,
,,,,,,,,,,,,,,,,,,,,,,,,,images/exp2a_trial_5_colour1_distractors43_r.png,r,2,017,001,2021-04-20_12h23.08.422,searchDisc4,2020.2.10,Win32,60,,,,space,0.285,2,1,0.87,,0,418,418,233,1,2a,5,1,43,
,,,,,,,,,,,,,,,,,,,,,,,,,images/exp2c_trial_48_colour2_distractors31_r.png,r,2,017,001,2021-04-20_12h23.08.422,searchDisc4,2020.2.10,Win32,60,,,,space,0.276,2,1,0.597,space,0,419,419,504,1,2c,48,2,31,0.24
,,,,,,,,,,,,,,,,,,,,,,,,,images/exp2a_trial_34_colour3_distractors31_l.png,l,1,017,001,2021-04-20_12h23.08.422,searchDisc4,2020.2.10,Win32,60,,,,space,2.002,1,1,0.744,,0,420,420,262,1,2a,34,3,31,
,,,,,,,,,,,,,,,,,,,,,,,,,images/exp2b_trial_107_colour3_distractors4_l.png,l,1,017,001,2021-04-20_12h23.08.422,searchDisc4,2020.2.10,Win32,60,,,,space,0.287,1,1,0.798,,0,421,421,449,1,2b,107,3,4,
,,,,,,,,,,,,,,,,,,,,,,,,,images/exp1b_trial_42_colour1_distractors31_r.png,r,2,017,001,2021-04-20_12h23.08.422,searchDisc4,2020.2.10,Win32,60,,,,space,0.234,2,1,0.73,,0,422,422,156,1,1b,42,1,31,
,,,,,,,,,,,,,,,,,,,,,,,,,images/exp1a_trial_57_colour1_distractors4_l.png,l,1,017,001,2021-04-20_12h23.08.422,searchDisc4,2020.2.10,Win32,60,,,,space,0.235,1,1,0.787,,0,423,423,57,1,1a,57,1,4,
,,,,,,,,,,,,,,,,,,,,,,,,,images/exp2b_trial_91_colour3_distractors19_r.png,r,2,017,001,2021-04-20_12h23.08.422,searchDisc4,2020.2.10,Win32,60,,,,space,0.218,2,1,0.55,,0,424,424,433,1,2b,91,3,19,
,,,,,,,,,,,,,,,,,,,,,,,,,images/exp2a_trial_38_colour1_distractors1_r.png,r,2,017,001,2021-04-20_12h23.08.422,searchDisc4,2020.2.10,Win32,60,,,,space,0.273,2,1,0.984,,0,425,425,266,1,2a,38,1,1,
,,,,,,,,,,,,,,,,,,,,,,,,,images/exp2b_trial_11_colour2_distractors43_r.png,r,2,017,001,2021-04-20_12h23.08.422,searchDisc4,2020.2.10,Win32,60,,,,space,0.4,2,1,0.966,,0,426,426,353,1,2b,11,2,43,
,,,,,,,,,,,,,,,,,,,,,,,,,images/exp2c_trial_1_colour1_distractors4_r.png,r,2,017,001,2021-04-20_12h23.08.422,searchDisc4,2020.2.10,Win32,60,,,,space,0.304,2,1,0.596,,0,427,427,457,1,2c,1,1,4,
,,,,,,,,,,,,,,,,,,,,,,,,,images/exp1b_trial_58_colour1_distractors9_l.png,l,1,017,001,2021-04-20_12h23.08.422,searchDisc4,2020.2.10,Win32,60,,,,space,0.223,1,1,0.851,,0,428,428,172,1,1b,58,1,9,
,,,,,,,,,,,,,,,,,,,,,,,,,images/exp2c_trial_81_colour1_distractors43_r.png,r,2,017,001,2021-04-20_12h23.08.422,searchDisc4,2020.2.10,Win32,60,,,,space,0.254,2,1,0.563,,0,429,429,537,1,2c,81,1,43,
,,,,,,,,,,,,,,,,,,,,,,,,,images/exp1a_trial_113_colour0_distractors0_l.png,l,1,017,001,2021-04-20_12h23.08.422,searchDisc4,2020.2.10,Win32,60,,,,space,0.368,1,1,0.747,,0,430,430,113,1,1a,113,0,0,
,,,,,,,,,,,,,,,,,,,,,,,,,images/exp2b_trial_77_colour1_distractors4_r.png,r,2,017,001,2021-04-20_12h23.08.422,searchDisc4,2020.2.10,Win32,60,,,,space,0.684,2,1,0.621,,0,431,431,419,1,2b,77,1,4,
,,,,,,,,,,,,,,,,,,,,,,,,,images/exp2c_trial_39_colour1_distractors4_r.png,r,2,017,001,2021-04-20_12h23.08.422,searchDisc4,2020.2.10,Win32,60,,,,space,0.518,2,1,0.598,,0,432,432,495,1,2c,39,1,4,
,,,,,,,,,,,,,,,,,,,,,,,,,images/exp1a_trial_8_colour2_distractors9_r.png,r,2,017,001,2021-04-20_12h23.08.422,searchDisc4,2020.2.10,Win32,60,,,,space,0.252,2,1,0.503,,0,433,433,8,1,1a,8,2,9,
,,,,,,,,,,,,,,,,,,,,,,,,,images/exp2a_trial_32_colour3_distractors9_l.png,l,1,017,001,2021-04-20_12h23.08.422,searchDisc4,2020.2.10,Win32,60,,,,space,0.305,1,1,0.961,,0,434,434,260,1,2a,32,3,9,
,,,,,,,,,,,,,,,,,,,,,,,,,images/exp2b_trial_106_colour3_distractors1_l.png,l,1,017,001,2021-04-20_12h23.08.422,searchDisc4,2020.2.10,Win32,60,,,,space,0.268,2,0,0.484,,0,435,435,448,1,2b,106,3,1,
,,,,,,,,,,,,,,,,,,,,,,,,,images/exp1b_trial_84_colour2_distractors9_r.png,r,2,017,001,2021-04-20_12h23.08.422,searchDisc4,2020.2.10,Win32,60,,,,space,0.456,2,1,0.963,,0,436,436,198,1,1b,84,2,9,
,,,,,,,,,,,,,,,,,,,,,,,,,images/exp1a_trial_10_colour2_distractors31_r.png,r,2,017,001,2021-04-20_12h23.08.422,searchDisc4,2020.2.10,Win32,60,,,,space,0.19,2,1,0.629,,0,437,437,10,1,1a,10,2,31,
,,,,,,,,,,,,,,,,,,,,,,,,,images/exp2a_trial_49_colour2_distractors43_r.png,r,2,017,001,2021-04-20_12h23.08.422,searchDisc4,2020.2.10,Win32,60,,,,space,0.235,2,1,0.595,,0,438,438,277,1,2a,49,2,43,
,,,,,,,,,,,,,,,,,,,,,,,,,images/exp2a_trial_54_colour3_distractors31_r.png,r,2,017,001,2021-04-20_12h23.08.422,searchDisc4,2020.2.10,Win32,60,,,,space,0.318,2,1,0.595,,0,439,439,282,1,2a,54,3,31,
,,,,,,,,,,,,,,,,,,,,,,,,,images/exp2b_trial_40_colour1_distractors9_r.png,r,2,017,001,2021-04-20_12h23.08.422,searchDisc4,2020.2.10,Win32,60,,,,space,0.184,2,1,0.564,,0,440,440,382,1,2b,40,1,9,
,,,,,,,,,,,,,,,,,,,,,,,,,images/exp1a_trial_23_colour1_distractors43_l.png,l,1,017,001,2021-04-20_12h23.08.422,searchDisc4,2020.2.10,Win32,60,,,,space,0.258,1,1,0.665,,0,441,441,23,1,1a,23,1,43,
,,,,,,,,,,,,,,,,,,,,,,,,,images/exp2a_trial_16_colour3_distractors31_r.png,r,2,017,001,2021-04-20_12h23.08.422,searchDisc4,2020.2.10,Win32,60,,,,space,0.252,2,1,0.911,,0,442,442,244,1,2a,16,3,31,
,,,,,,,,,,,,,,,,,,,,,,,,,images/exp1b_trial_94_colour1_distractors1_l.png,l,1,017,001,2021-04-20_12h23.08.422,searchDisc4,2020.2.10,Win32,60,,,,space,0.234,1,1,0.715,,0,443,443,208,1,1b,94,1,1,
,,,,,,,,,,,,,,,,,,,,,,,,,images/exp1b_trial_85_colour2_distractors19_r.png,r,2,017,001,2021-04-20_12h23.08.422,searchDisc4,2020.2.10,Win32,60,,,,space,0.239,2,1,1.063,,0,444,444,199,1,1b,85,2,19,
,,,,,,,,,,,,,,,,,,,,,,,,,images/exp2a_trial_37_colour0_distractors0_l.png,l,1,017,001,2021-04-20_12h23.08.422,searchDisc4,2020.2.10,Win32,60,,,,space,0.26,1,1,0.629,,0,445,445,265,1,2a,37,0,0,
,,,,,,,,,,,,,,,,,,,,,,,,,images/exp2a_trial_62_colour2_distractors1_l.png,l,1,017,001,2021-04-20_12h23.08.422,searchDisc4,2020.2.10,Win32,60,,,,space,0.233,1,1,0.571,,0,446,446,290,1,2a,62,2,1,
,,,,,,,,,,,,,,,,,,,,,,,,,images/exp2b_trial_23_colour1_distractors43_l.png,l,1,017,001,2021-04-20_12h23.08.422,searchDisc4,2020.2.10,Win32,60,,,,space,0.253,1,1,0.58,,0,447,447,365,1,2b,23,1,43,
,,,,,,,,,,,,,,,,,,,,,,,,,images/exp1b_trial_62_colour2_distractors1_l.png,l,1,017,001,2021-04-20_12h23.08.422,searchDisc4,2020.2.10,Win32,60,,,,space,0.271,1,1,2.065,,0,448,448,176,1,1b,62,2,1,
,,,,,,,,,,,,,,,,,,,,,,,,,images/exp1b_trial_49_colour2_distractors43_r.png,r,2,017,001,2021-04-20_12h23.08.422,searchDisc4,2020.2.10,Win32,60,,,,space,0.268,2,1,1.137,,0,449,449,163,1,1b,49,2,43,
,,,,,,,,,,,,,,,,,,,,,,,,,images/exp2c_trial_103_colour2_distractors19_l.png,l,1,017,001,2021-04-20_12h23.08.422,searchDisc4,2020.2.10,Win32,60,,,,space,0.27,1,1,0.68,,0,450,450,559,1,2c,103,2,19,
,,,,,,,,,,,,,,,,,,,,,,,,,images/exp2c_trial_99_colour1_distractors43_l.png,l,1,017,001,2021-04-20_12h23.08.422,searchDisc4,2020.2.10,Win32,60,,,,space,0.251,1,1,0.788,,0,451,451,555,1,2c,99,1,43,
,,,,,,,,,,,,,,,,,,,,,,,,,images/exp1b_trial_16_colour3_distractors31_r.png,r,2,017,001,2021-04-20_12h23.08.422,searchDisc4,2020.2.10,Win32,60,,,,space,0.236,2,1,1.781,,0,452,452,130,1,1b,16,3,31,
,,,,,,,,,,,,,,,,,,,,,,,,,images/exp2a_trial_65_colour2_distractors19_l.png,l,1,017,001,2021-04-20_12h23.08.422,searchDisc4,2020.2.10,Win32,60,,,,space,0.25,1,1,0.629,,0,453,453,293,1,2a,65,2,19,
,,,,,,,,,,,,,,,,,,,,,,,,,images/exp2b_trial_31_colour3_distractors4_l.png,l,1,017,001,2021-04-20_12h23.08.422,searchDisc4,2020.2.10,Win32,60,,,,space,0.284,1,1,0.687,,0,454,454,373,1,2b,31,3,4,
,,,,,,,,,,,,,,,,,,,,,,,,,images/exp2c_trial_53_colour3_distractors19_r.png,r,2,017,001,2021-04-20_12h23.08.422,searchDisc4,2020.2.10,Win32,60,,,,space,0.251,1,0,0.513,,0,455,455,509,1,2c,53,3,19,
,,,,,,,,,,,,,,,,,,,,,,,,,images/exp2b_trial_90_colour3_distractors9_r.png,r,2,017,001,2021-04-20_12h23.08.422,searchDisc4,2020.2.10,Win32,60,,,,space,0.701,1,0,0.596,,0,456,456,432,1,2b,90,3,9,
,,,,,,,,,,,,,,,,,,,,,,,,,images/exp1b_trial_74_colour0_distractors0_r.png,r,2,017,001,2021-04-20_12h23.08.422,searchDisc4,2020.2.10,Win32,60,,,,space,0.718,2,1,0.754,,0,457,457,188,1,1b,74,0,0,
,,,,,,,,,,,,,,,,,,,,,,,,,images/exp2c_trial_110_colour3_distractors31_l.png,l,1,017,001,2021-04-20_12h23.08.422,searchDisc4,2020.2.10,Win32,60,,,,space,0.185,1,1,0.713,,0,458,458,566,1,2c,110,3,31,
,,,,,,,,,,,,,,,,,,,,,,,,,images/exp2b_trial_27_colour2_distractors19_l.png,l,1,017,001,2021-04-20_12h23.08.422,searchDisc4,2020.2.10,Win32,60,,,,space,0.207,1,1,0.693,,0,459,459,369,1,2b,27,2,19,
,,,,,,,,,,,,,,,,,,,,,,,,,images/exp1b_trial_64_colour2_distractors9_l.png,l,1,017,001,2021-04-20_12h23.08.422,searchDisc4,2020.2.10,Win32,60,,,,space,0.204,1,1,1.321,,0,460,460,178,1,1b,64,2,9,
,,,,,,,,,,,,,,,,,,,,,,,,,images/exp2c_trial_58_colour1_distractors9_l.png,l,1,017,001,2021-04-20_12h23.08.422,searchDisc4,2020.2.10,Win32,60,,,,space,0.229,1,1,0.568,,0,461,461,514,1,2c,58,1,9,
,,,,,,,,,,,,,,,,,,,,,,,,,images/exp2a_trial_19_colour1_distractors4_l.png,l,1,017,001,2021-04-20_12h23.08.422,searchDisc4,2020.2.10,Win32,60,,,,space,0.222,1,1,0.573,,0,462,462,247,1,2a,19,1,4,
,,,,,,,,,,,,,,,,,,,,,,,,,images/exp1b_trial_54_colour3_distractors31_r.png,r,2,017,001,2021-04-20_12h23.08.422,searchDisc4,2020.2.10,Win32,60,,,,space,0.253,2,1,1.136,,0,463,463,168,1,1b,54,3,31,
,,,,,,,,,,,,,,,,,,,,,,,,,images/exp2c_trial_17_colour3_distractors43_r.png,r,2,017,001,2021-04-20_12h23.08.422,searchDisc4,2020.2.10,Win32,60,,,,space,0.195,2,1,0.978,,0,464,464,473,1,2c,17,3,43,
,,,,,,,,,,,,,,,,,,,,,,,,,images/exp1b_trial_111_colour3_distractors43_l.png,l,1,017,001,2021-04-20_12h23.08.422,searchDisc4,2020.2.10,Win32,60,,,,space,0.202,1,1,1.366,,0,465,465,225,1,1b,111,3,43,
,,,,,,,,,,,,,,,,,,,,,,,,,images/exp2a_trial_30_colour3_distractors1_l.png,l,1,017,001,2021-04-20_12h23.08.422,searchDisc4,2020.2.10,Win32,60,,,,space,0.196,1,1,1.339,,0,466,466,258,1,2a,30,3,1,
,,,,,,,,,,,,,,,,,,,,,,,,,images/exp2c_trial_35_colour3_distractors43_l.png,l,1,017,001,2021-04-20_12h23.08.422,searchDisc4,2020.2.10,Win32,60,,,,space,0.396,1,1,0.629,,0,467,467,491,1,2c,35,3,43,
,,,,,,,,,,,,,,,,,,,,,,,,,images/exp2b_trial_111_colour3_distractors43_l.png,l,1,017,001,2021-04-20_12h23.08.422,searchDisc4,2020.2.10,Win32,60,,,,space,0.251,1,1,0.913,,0,468,468,453,1,2b,111,3,43,
,,,,,,,,,,,,,,,,,,,,,,,,,images/exp2c_trial_8_colour2_distractors9_r.png,r,2,017,001,2021-04-20_12h23.08.422,searchDisc4,2020.2.10,Win32,60,,,,space,0.29,2,1,0.994,,0,469,469,464,1,2c,8,2,9,
,,,,,,,,,,,,,,,,,,,,,,,,,images/exp1b_trial_35_colour3_distractors43_l.png,l,1,017,001,2021-04-20_12h23.08.422,searchDisc4,2020.2.10,Win32,60,,,,space,0.217,1,1,4.813,,0,470,470,149,1,1b,35,3,43,
,,,,,,,,,,,,,,,,,,,,,,,,,images/exp2a_trial_92_colour3_distractors31_r.png,r,2,017,001,2021-04-20_12h23.08.422,searchDisc4,2020.2.10,Win32,60,,,,space,0.155,2,1,0.662,,0,471,471,320,1,2a,92,3,31,
,,,,,,,,,,,,,,,,,,,,,,,,,images/exp2a_trial_89_colour3_distractors4_r.png,r,2,017,001,2021-04-20_12h23.08.422,searchDisc4,2020.2.10,Win32,60,,,,space,0.21,2,1,0.604,,0,472,472,317,1,2a,89,3,4,
,,,,,,,,,,,,,,,,,,,,,,,,,images/exp1a_trial_99_colour1_distractors43_l.png,l,1,017,001,2021-04-20_12h23.08.422,searchDisc4,2020.2.10,Win32,60,,,,space,0.294,1,1,0.867,,0,473,473,99,1,1a,99,1,43,
,,,,,,,,,,,,,,,,,,,,,,,,,images/exp2c_trial_45_colour2_distractors4_r.png,r,2,017,001,2021-04-20_12h23.08.422,searchDisc4,2020.2.10,Win32,60,,,,space,0.839,2,1,0.937,,0,474,474,501,1,2c,45,2,4,
,,,,,,,,,,,,,,,,,,,,,,,,,images/exp2b_trial_33_colour3_distractors19_l.png,l,1,017,001,2021-04-20_12h23.08.422,searchDisc4,2020.2.10,Win32,60,,,,space,0.285,1,1,0.828,,0,475,475,375,1,2b,33,3,19,
,,,,,,,,,,,,,,,,,,,,,,,,,images/exp2a_trial_40_colour1_distractors9_r.png,r,2,017,001,2021-04-20_12h23.08.422,searchDisc4,2020.2.10,Win32,60,,,,space,0.242,2,1,0.727,,0,476,476,268,1,2a,40,1,9,
,,,,,,,,,,,,,,,,,,,,,,,,,images/exp2a_trial_80_colour1_distractors31_r.png,r,2,017,001,2021-04-20_12h23.08.422,searchDisc4,2020.2.10,Win32,60,,,,space,0.242,2,1,0.831,,0,477,477,308,1,2a,80,1,31,
,,,,,,,,,,,,,,,,,,,,,,,,,images/exp1b_trial_90_colour3_distractors9_r.png,r,2,017,001,2021-04-20_12h23.08.422,searchDisc4,2020.2.10,Win32,60,,,,space,0.354,2,1,0.666,,0,478,478,204,1,1b,90,3,9,
,,,,,,,,,,,,,,,,,,,,,,,,,images/exp2b_trial_98_colour1_distractors31_l.png,l,1,017,001,2021-04-20_12h23.08.422,searchDisc4,2020.2.10,Win32,60,,,,space,0.258,1,1,0.745,,0,479,479,440,1,2b,98,1,31,
,,,,,,,,,,,,,,,,,,,,,,,,,images/exp2b_trial_37_colour0_distractors0_l.png,l,1,017,001,2021-04-20_12h23.08.422,searchDisc4,2020.2.10,Win32,60,,,,space,0.27,1,1,0.628,,0,480,480,379,1,2b,37,0,0,
,,,,,,,,,,,,,,,,,,,,,,,,,images/exp2c_trial_2_colour1_distractors9_r.png,r,2,017,001,2021-04-20_12h23.08.422,searchDisc4,2020.2.10,Win32,60,,,,space,0.285,2,1,0.585,,0,481,481,458,1,2c,2,1,9,
,,,,,,,,,,,,,,,,,,,,,,,,,images/exp2b_trial_65_colour2_distractors19_l.png,l,1,017,001,2021-04-20_12h23.08.422,searchDisc4,2020.2.10,Win32,60,,,,space,0.268,1,1,0.631,,0,482,482,407,1,2b,65,2,19,
,,,,,,,,,,,,,,,,,,,,,,,,,images/exp1b_trial_102_colour2_distractors9_l.png,l,1,017,001,2021-04-20_12h23.08.422,searchDisc4,2020.2.10,Win32,60,,,,space,0.284,1,1,0.648,,0,483,483,216,1,1b,102,2,9,
,,,,,,,,,,,,,,,,,,,,,,,,,images/exp2b_trial_43_colour1_distractors43_r.png,r,2,017,001,2021-04-20_12h23.08.422,searchDisc4,2020.2.10,Win32,60,,,,space,0.335,2,1,0.746,,0,484,484,385,1,2b,43,1,43,
,,,,,,,,,,,,,,,,,,,,,,,,,images/exp1a_trial_76_colour1_distractors1_r.png,r,2,017,001,2021-04-20_12h23.08.422,searchDisc4,2020.2.10,Win32,60,,,,space,0.319,2,1,0.566,,0,485,485,76,1,1a,76,1,1,
,,,,,,,,,,,,,,,,,,,,,,,,,images/exp2b_trial_99_colour1_distractors43_l.png,l,1,017,001,2021-04-20_12h23.08.422,searchDisc4,2020.2.10,Win32,60,,,,space,0.301,1,1,0.731,,0,486,486,441,1,2b,99,1,43,
,,,,,,,,,,,,,,,,,,,,,,,,,images/exp2b_trial_58_colour1_distractors9_l.png,l,1,017,001,2021-04-20_12h23.08.422,searchDisc4,2020.2.10,Win32,60,,,,space,0.286,1,1,0.529,,0,487,487,400,1,2b,58,1,9,
,,,,,,,,,,,,,,,,,,,,,,,,,images/exp2c_trial_112_colour0_distractors0_r.png,r,2,017,001,2021-04-20_12h23.08.422,searchDisc4,2020.2.10,Win32,60,,,,space,0.255,2,1,0.831,,0,488,488,568,1,2c,112,0,0,
,,,,,,,,,,,,,,,,,,,,,,,,,images/exp2b_trial_95_colour1_distractors4_l.png,l,1,017,001,2021-04-20_12h23.08.422,searchDisc4,2020.2.10,Win32,60,,,,space,0.268,1,1,1,,0,489,489,437,1,2b,95,1,4,
