X Scale,Y Scale,key_resp_10.keys,key_resp_10.rt,key_resp_11.keys,key_resp_11.rt,key_resp_12.keys,key_resp_12.rt,key_resp_13.keys,key_resp_13.rt,key_resp_5.keys,key_resp_5.rt,key_resp_8.keys,key_resp_8.rt,key_resp_6.keys,key_resp_6.rt,key_resp_7.keys,key_resp_7.rt,key_resp_4.keys,key_resp_4.corr,key_resp_4.rt,trials_2.thisRepN,trials_2.thisTrialN,trials_2.thisN,trials_2.thisIndex,trials_2.ran,ImageFile,targ_side,correctAnswer,participant,session,date,expName,psychopyVersion,OS,frameRate,key_resp_3.keys,key_resp_3.rt,key_resp_9.keys,key_resp_9.rt,key_resp_2.keys,key_resp_2.corr,key_resp_2.rt,key_resp.keys,trials.thisRepN,trials.thisTrialN,trials.thisN,trials.thisIndex,trials.ran,exp,trial,colour,distNo,key_resp.rt
19.6,20.7,space,10.046665,space,43.64089,space,21.853595,space,10.78708,space,89.25737,space,16.91473,space,13.059215,space,12.70772,1,1,4.83206,0,0,0,15,1,Practice arrays/exp1a_trial_32_colour3_distractors9_l.png,l,1,018,001,2021-04-20_20h48.23.591,searchDisc4,2020.2.10,Win32,60,,,,,,,,,,,,,,,,,,
,,,,,,,,,,,,,,,,space,1.832605,2,1,0.99373,0,1,1,2,1,Practice arrays/exp1a_trial_5_colour1_distractors43_r.png,r,2,018,001,2021-04-20_20h48.23.591,searchDisc4,2020.2.10,Win32,60,,,,,,,,,,,,,,,,,,
,,,,,,,,,,,,,,,,space,1.00018,1,1,1.292405,0,2,2,17,1,Practice arrays/exp1a_trial_35_colour3_distractors43_l.png,l,1,018,001,2021-04-20_20h48.23.591,searchDisc4,2020.2.10,Win32,60,,,,,,,,,,,,,,,,,,
,,,,,,,,,,,,,,,,space,1.05508,2,1,1.07891,0,3,3,3,1,Practice arrays/exp1a_trial_7_colour2_distractors4_r.png,r,2,018,001,2021-04-20_20h48.23.591,searchDisc4,2020.2.10,Win32,60,,,,,,,,,,,,,,,,,,
,,,,,,,,,,,,,,,,space,1.005055,1,1,0.82054,0,4,4,10,1,Practice arrays/exp1a_trial_20_colour1_distractors9_l.png,l,1,018,001,2021-04-20_20h48.23.591,searchDisc4,2020.2.10,Win32,60,,,,,,,,,,,,,,,,,,
,,,,,,,,,,,,,,,,space,0.5821,2,1,0.712305,0,5,5,0,1,Practice arrays/exp1a_trial_0_colour1_distractors1_r.png,r,2,018,001,2021-04-20_20h48.23.591,searchDisc4,2020.2.10,Win32,60,,,,,,,,,,,,,,,,,,
,,,,,,,,,,,,,,,,space,0.96852,1,1,1.22472,0,6,6,19,1,Practice arrays/exp1a_trial_37_colour0_distractors0_l.png,l,1,018,001,2021-04-20_20h48.23.591,searchDisc4,2020.2.10,Win32,60,,,,,,,,,,,,,,,,,,
,,,,,,,,,,,,,,,,space,0.51879,2,1,0.533485,0,7,7,1,1,Practice arrays/exp1a_trial_3_colour1_distractors19_r.png,r,2,018,001,2021-04-20_20h48.23.591,searchDisc4,2020.2.10,Win32,60,,,,,,,,,,,,,,,,,,
,,,,,,,,,,,,,,,,space,0.582665,2,1,0.52749,0,8,8,6,1,Practice arrays/exp1a_trial_12_colour3_distractors1_r.png,r,2,018,001,2021-04-20_20h48.23.591,searchDisc4,2020.2.10,Win32,60,,,,,,,,,,,,,,,,,,
,,,,,,,,,,,,,,,,space,0.902025,2,1,0.67793,0,9,9,8,1,Practice arrays/exp1a_trial_16_colour3_distractors31_r.png,r,2,018,001,2021-04-20_20h48.23.591,searchDisc4,2020.2.10,Win32,60,,,,,,,,,,,,,,,,,,
,,,,,,,,,,,,,,,,space,0.518755,1,1,0.72633,0,10,10,16,1,Practice arrays/exp1a_trial_33_colour3_distractors19_l.png,l,1,018,001,2021-04-20_20h48.23.591,searchDisc4,2020.2.10,Win32,60,,,,,,,,,,,,,,,,,,
,,,,,,,,,,,,,,,,space,0.396685,1,1,1.039825,0,11,11,9,1,Practice arrays/exp1a_trial_19_colour1_distractors4_l.png,l,1,018,001,2021-04-20_20h48.23.591,searchDisc4,2020.2.10,Win32,60,,,,,,,,,,,,,,,,,,
,,,,,,,,,,,,,,,,space,0.515465,1,1,0.74635,0,12,12,13,1,Practice arrays/exp1a_trial_28_colour2_distractors31_l.png,l,1,018,001,2021-04-20_20h48.23.591,searchDisc4,2020.2.10,Win32,60,,,,,,,,,,,,,,,,,,
,,,,,,,,,,,,,,,,space,0.43798,2,1,0.83478,0,13,13,5,1,Practice arrays/exp1a_trial_10_colour2_distractors31_r.png,r,2,018,001,2021-04-20_20h48.23.591,searchDisc4,2020.2.10,Win32,60,,,,,,,,,,,,,,,,,,
,,,,,,,,,,,,,,,,space,0.336635,1,1,0.903955,0,14,14,12,1,Practice arrays/exp1a_trial_25_colour2_distractors4_l.png,l,1,018,001,2021-04-20_20h48.23.591,searchDisc4,2020.2.10,Win32,60,,,,,,,,,,,,,,,,,,
,,,,,,,,,,,,,,,,space,0.985685,2,1,0.53172,0,15,15,7,1,Practice arrays/exp1a_trial_13_colour3_distractors4_r.png,r,2,018,001,2021-04-20_20h48.23.591,searchDisc4,2020.2.10,Win32,60,,,,,,,,,,,,,,,,,,
,,,,,,,,,,,,,,,,space,0.360255,2,1,0.530095,0,16,16,18,1,Practice arrays/exp1a_trial_36_colour0_distractors0_r.png,r,2,018,001,2021-04-20_20h48.23.591,searchDisc4,2020.2.10,Win32,60,,,,,,,,,,,,,,,,,,
,,,,,,,,,,,,,,,,space,0.358495,1,1,1.045385,0,17,17,11,1,Practice arrays/exp1a_trial_21_colour1_distractors19_l.png,l,1,018,001,2021-04-20_20h48.23.591,searchDisc4,2020.2.10,Win32,60,,,,,,,,,,,,,,,,,,
,,,,,,,,,,,,,,,,space,0.31006,2,1,0.543305,0,18,18,4,1,Practice arrays/exp1a_trial_8_colour2_distractors9_r.png,r,2,018,001,2021-04-20_20h48.23.591,searchDisc4,2020.2.10,Win32,60,,,,,,,,,,,,,,,,,,
,,,,,,,,,,,,,,,,space,0.31703,1,1,0.749045,0,19,19,14,1,Practice arrays/exp1a_trial_29_colour2_distractors43_l.png,l,1,018,001,2021-04-20_20h48.23.591,searchDisc4,2020.2.10,Win32,60,,,,,,,,,,,,,,,,,,
,,,,,,,,,,,,,,,,,,,,,,,,,,images/exp1a_trial_108_colour3_distractors9_l.png,l,1,018,001,2021-04-20_20h48.23.591,searchDisc4,2020.2.10,Win32,60,space,10.46676,space,1.122215,1,1,0.69078,,0,0,0,108,1,1a,108,3,9,
,,,,,,,,,,,,,,,,,,,,,,,,,,images/exp1b_trial_68_colour3_distractors1_l.png,l,1,018,001,2021-04-20_20h48.23.591,searchDisc4,2020.2.10,Win32,60,,,space,2.840605,1,1,1.439445,,0,1,1,182,1,1b,68,3,1,
,,,,,,,,,,,,,,,,,,,,,,,,,,images/exp1b_trial_9_colour2_distractors19_r.png,r,2,018,001,2021-04-20_20h48.23.591,searchDisc4,2020.2.10,Win32,60,,,space,1.282775,2,1,1.07794,,0,2,2,123,1,1b,9,2,19,
,,,,,,,,,,,,,,,,,,,,,,,,,,images/exp2b_trial_2_colour1_distractors9_r.png,r,2,018,001,2021-04-20_20h48.23.591,searchDisc4,2020.2.10,Win32,60,,,space,1.017575,2,1,0.747675,,0,3,3,344,1,2b,2,1,9,
,,,,,,,,,,,,,,,,,,,,,,,,,,images/exp2c_trial_90_colour3_distractors9_r.png,r,2,018,001,2021-04-20_20h48.23.591,searchDisc4,2020.2.10,Win32,60,,,space,0.841005,2,1,0.714515,,0,4,4,546,1,2c,90,3,9,
,,,,,,,,,,,,,,,,,,,,,,,,,,images/exp2c_trial_105_colour2_distractors43_l.png,l,1,018,001,2021-04-20_20h48.23.591,searchDisc4,2020.2.10,Win32,60,,,space,0.635775,1,1,0.973395,,0,5,5,561,1,2c,105,2,43,
,,,,,,,,,,,,,,,,,,,,,,,,,,images/exp2c_trial_78_colour1_distractors9_r.png,r,2,018,001,2021-04-20_20h48.23.591,searchDisc4,2020.2.10,Win32,60,,,space,0.95272,2,1,0.63035,,0,6,6,534,1,2c,78,1,9,
,,,,,,,,,,,,,,,,,,,,,,,,,,images/exp1b_trial_23_colour1_distractors43_l.png,l,1,018,001,2021-04-20_20h48.23.591,searchDisc4,2020.2.10,Win32,60,,,space,0.471975,1,1,0.873055,,0,7,7,137,1,1b,23,1,43,
,,,,,,,,,,,,,,,,,,,,,,,,,,images/exp2b_trial_107_colour3_distractors4_l.png,l,1,018,001,2021-04-20_20h48.23.591,searchDisc4,2020.2.10,Win32,60,,,space,0.43593,1,1,1.22989,,0,8,8,449,1,2b,107,3,4,
,,,,,,,,,,,,,,,,,,,,,,,,,,images/exp2c_trial_38_colour1_distractors1_r.png,r,2,018,001,2021-04-20_20h48.23.591,searchDisc4,2020.2.10,Win32,60,,,space,0.45962,2,1,1.223915,,0,9,9,494,1,2c,38,1,1,
,,,,,,,,,,,,,,,,,,,,,,,,,,images/exp2a_trial_108_colour3_distractors9_l.png,l,1,018,001,2021-04-20_20h48.23.591,searchDisc4,2020.2.10,Win32,60,,,space,0.28513,1,1,0.674765,,0,10,10,336,1,2a,108,3,9,
,,,,,,,,,,,,,,,,,,,,,,,,,,images/exp2c_trial_107_colour3_distractors4_l.png,l,1,018,001,2021-04-20_20h48.23.591,searchDisc4,2020.2.10,Win32,60,,,space,0.24943,1,1,0.73247,,0,11,11,563,1,2c,107,3,4,
,,,,,,,,,,,,,,,,,,,,,,,,,,images/exp1b_trial_26_colour2_distractors9_l.png,l,1,018,001,2021-04-20_20h48.23.591,searchDisc4,2020.2.10,Win32,60,,,space,0.269425,1,1,0.889815,,0,12,12,140,1,1b,26,2,9,
,,,,,,,,,,,,,,,,,,,,,,,,,,images/exp2b_trial_111_colour3_distractors43_l.png,l,1,018,001,2021-04-20_20h48.23.591,searchDisc4,2020.2.10,Win32,60,,,space,0.22368,1,1,0.816605,,0,13,13,453,1,2b,111,3,43,
,,,,,,,,,,,,,,,,,,,,,,,,,,images/exp1b_trial_99_colour1_distractors43_l.png,l,1,018,001,2021-04-20_20h48.23.591,searchDisc4,2020.2.10,Win32,60,,,space,0.281075,1,1,1.896115,,0,14,14,213,1,1b,99,1,43,
,,,,,,,,,,,,,,,,,,,,,,,,,,images/exp2b_trial_100_colour2_distractors1_l.png,l,1,018,001,2021-04-20_20h48.23.591,searchDisc4,2020.2.10,Win32,60,,,space,0.234105,1,1,1.013685,,0,15,15,442,1,2b,100,2,1,
,,,,,,,,,,,,,,,,,,,,,,,,,,images/exp2c_trial_24_colour2_distractors1_l.png,l,1,018,001,2021-04-20_20h48.23.591,searchDisc4,2020.2.10,Win32,60,,,space,0.21581,1,1,0.85677,,0,16,16,480,1,2c,24,2,1,
,,,,,,,,,,,,,,,,,,,,,,,,,,images/exp2a_trial_76_colour1_distractors1_r.png,r,2,018,001,2021-04-20_20h48.23.591,searchDisc4,2020.2.10,Win32,60,,,space,0.203955,2,1,0.76621,,0,17,17,304,1,2a,76,1,1,
,,,,,,,,,,,,,,,,,,,,,,,,,,images/exp2b_trial_91_colour3_distractors19_r.png,r,2,018,001,2021-04-20_20h48.23.591,searchDisc4,2020.2.10,Win32,60,,,space,0.23571,2,1,1.09104,,0,18,18,433,1,2b,91,3,19,
,,,,,,,,,,,,,,,,,,,,,,,,,,images/exp2a_trial_70_colour3_distractors9_l.png,l,1,018,001,2021-04-20_20h48.23.591,searchDisc4,2020.2.10,Win32,60,,,space,0.244305,1,1,1.51334,,0,19,19,298,1,2a,70,3,9,
,,,,,,,,,,,,,,,,,,,,,,,,,,images/exp1b_trial_74_colour0_distractors0_r.png,r,2,018,001,2021-04-20_20h48.23.591,searchDisc4,2020.2.10,Win32,60,,,space,0.222145,2,1,0.60816,,0,20,20,188,1,1b,74,0,0,
,,,,,,,,,,,,,,,,,,,,,,,,,,images/exp1b_trial_75_colour0_distractors0_l.png,l,1,018,001,2021-04-20_20h48.23.591,searchDisc4,2020.2.10,Win32,60,,,space,0.208675,1,1,1.0779,,0,21,21,189,1,1b,75,0,0,
,,,,,,,,,,,,,,,,,,,,,,,,,,images/exp1a_trial_76_colour1_distractors1_r.png,r,2,018,001,2021-04-20_20h48.23.591,searchDisc4,2020.2.10,Win32,60,,,space,0.239775,2,1,0.86032,,0,22,22,76,1,1a,76,1,1,
,,,,,,,,,,,,,,,,,,,,,,,,,,images/exp1b_trial_96_colour1_distractors9_l.png,l,1,018,001,2021-04-20_20h48.23.591,searchDisc4,2020.2.10,Win32,60,,,space,0.186445,1,1,1.155765,,0,23,23,210,1,1b,96,1,9,
,,,,,,,,,,,,,,,,,,,,,,,,,,images/exp2b_trial_110_colour3_distractors31_l.png,l,1,018,001,2021-04-20_20h48.23.591,searchDisc4,2020.2.10,Win32,60,,,space,0.14198,1,1,1.037795,,0,24,24,452,1,2b,110,3,31,
,,,,,,,,,,,,,,,,,,,,,,,,,,images/exp2c_trial_113_colour0_distractors0_l.png,l,1,018,001,2021-04-20_20h48.23.591,searchDisc4,2020.2.10,Win32,60,,,space,0.158115,1,1,0.828215,,0,25,25,569,1,2c,113,0,0,
,,,,,,,,,,,,,,,,,,,,,,,,,,images/exp2b_trial_81_colour1_distractors43_r.png,r,2,018,001,2021-04-20_20h48.23.591,searchDisc4,2020.2.10,Win32,60,,,space,0.215105,2,1,0.91236,,0,26,26,423,1,2b,81,1,43,
,,,,,,,,,,,,,,,,,,,,,,,,,,images/exp1a_trial_103_colour2_distractors19_l.png,l,1,018,001,2021-04-20_20h48.23.591,searchDisc4,2020.2.10,Win32,60,,,space,0.18449,1,1,1.9706,,0,27,27,103,1,1a,103,2,19,
,,,,,,,,,,,,,,,,,,,,,,,,,,images/exp1a_trial_75_colour0_distractors0_l.png,l,1,018,001,2021-04-20_20h48.23.591,searchDisc4,2020.2.10,Win32,60,,,space,0.260075,1,1,1.003175,,0,28,28,75,1,1a,75,0,0,
,,,,,,,,,,,,,,,,,,,,,,,,,,images/exp1b_trial_52_colour3_distractors9_r.png,r,2,018,001,2021-04-20_20h48.23.591,searchDisc4,2020.2.10,Win32,60,,,space,2.08074,2,1,1.0274,,0,29,29,166,1,1b,52,3,9,
,,,,,,,,,,,,,,,,,,,,,,,,,,images/exp2c_trial_46_colour2_distractors9_r.png,r,2,018,001,2021-04-20_20h48.23.591,searchDisc4,2020.2.10,Win32,60,,,space,0.30654,2,1,0.93799,,0,30,30,502,1,2c,46,2,9,
,,,,,,,,,,,,,,,,,,,,,,,,,,images/exp1a_trial_105_colour2_distractors43_l.png,l,1,018,001,2021-04-20_20h48.23.591,searchDisc4,2020.2.10,Win32,60,,,space,1.411955,1,1,1.162655,,0,31,31,105,1,1a,105,2,43,
,,,,,,,,,,,,,,,,,,,,,,,,,,images/exp1b_trial_88_colour3_distractors1_r.png,r,2,018,001,2021-04-20_20h48.23.591,searchDisc4,2020.2.10,Win32,60,,,space,0.28272,2,1,0.9906,,0,32,32,202,1,1b,88,3,1,
,,,,,,,,,,,,,,,,,,,,,,,,,,images/exp1a_trial_64_colour2_distractors9_l.png,l,1,018,001,2021-04-20_20h48.23.591,searchDisc4,2020.2.10,Win32,60,,,space,0.239305,1,1,0.90521,,0,33,33,64,1,1a,64,2,9,
,,,,,,,,,,,,,,,,,,,,,,,,,,images/exp2b_trial_0_colour1_distractors1_r.png,r,2,018,001,2021-04-20_20h48.23.591,searchDisc4,2020.2.10,Win32,60,,,space,0.21957,2,1,0.98708,,0,34,34,342,1,2b,0,1,1,
,,,,,,,,,,,,,,,,,,,,,,,,,,images/exp1b_trial_4_colour1_distractors31_r.png,r,2,018,001,2021-04-20_20h48.23.591,searchDisc4,2020.2.10,Win32,60,,,space,0.224855,2,1,0.86961,,0,35,35,118,1,1b,4,1,31,
,,,,,,,,,,,,,,,,,,,,,,,,,,images/exp2a_trial_33_colour3_distractors19_l.png,l,1,018,001,2021-04-20_20h48.23.591,searchDisc4,2020.2.10,Win32,60,,,space,0.262465,1,1,0.90376,,0,36,36,261,1,2a,33,3,19,
,,,,,,,,,,,,,,,,,,,,,,,,,,images/exp2a_trial_3_colour1_distractors19_r.png,r,2,018,001,2021-04-20_20h48.23.591,searchDisc4,2020.2.10,Win32,60,,,space,0.17471,2,1,0.974915,,0,37,37,231,1,2a,3,1,19,
,,,,,,,,,,,,,,,,,,,,,,,,,,images/exp2c_trial_11_colour2_distractors43_r.png,r,2,018,001,2021-04-20_20h48.23.591,searchDisc4,2020.2.10,Win32,60,,,space,0.19477,2,1,1.1268,,0,38,38,467,1,2c,11,2,43,
,,,,,,,,,,,,,,,,,,,,,,,,,,images/exp2a_trial_6_colour2_distractors1_r.png,r,2,018,001,2021-04-20_20h48.23.591,searchDisc4,2020.2.10,Win32,60,,,space,0.401255,2,1,0.73093,,0,39,39,234,1,2a,6,2,1,
,,,,,,,,,,,,,,,,,,,,,,,,,,images/exp2b_trial_88_colour3_distractors1_r.png,r,2,018,001,2021-04-20_20h48.23.591,searchDisc4,2020.2.10,Win32,60,,,space,0.46479,2,1,0.885445,,0,40,40,430,1,2b,88,3,1,
,,,,,,,,,,,,,,,,,,,,,,,,,,images/exp2c_trial_40_colour1_distractors9_r.png,r,2,018,001,2021-04-20_20h48.23.591,searchDisc4,2020.2.10,Win32,60,,,space,0.250275,2,1,0.610315,,0,41,41,496,1,2c,40,1,9,
,,,,,,,,,,,,,,,,,,,,,,,,,,images/exp2c_trial_21_colour1_distractors19_l.png,l,1,018,001,2021-04-20_20h48.23.591,searchDisc4,2020.2.10,Win32,60,,,space,0.358355,1,1,0.782685,,0,42,42,477,1,2c,21,1,19,
,,,,,,,,,,,,,,,,,,,,,,,,,,images/exp2a_trial_80_colour1_distractors31_r.png,r,2,018,001,2021-04-20_20h48.23.591,searchDisc4,2020.2.10,Win32,60,,,space,0.27059,2,1,0.663985,,0,43,43,308,1,2a,80,1,31,
,,,,,,,,,,,,,,,,,,,,,,,,,,images/exp2c_trial_28_colour2_distractors31_l.png,l,1,018,001,2021-04-20_20h48.23.591,searchDisc4,2020.2.10,Win32,60,,,space,0.20579,1,1,0.85761,,0,44,44,484,1,2c,28,2,31,
,,,,,,,,,,,,,,,,,,,,,,,,,,images/exp1b_trial_62_colour2_distractors1_l.png,l,1,018,001,2021-04-20_20h48.23.591,searchDisc4,2020.2.10,Win32,60,,,space,0.22473,1,1,0.708325,,0,45,45,176,1,1b,62,2,1,
,,,,,,,,,,,,,,,,,,,,,,,,,,images/exp2a_trial_113_colour0_distractors0_l.png,l,1,018,001,2021-04-20_20h48.23.591,searchDisc4,2020.2.10,Win32,60,,,space,0.222345,1,1,1.40333,,0,46,46,341,1,2a,113,0,0,
,,,,,,,,,,,,,,,,,,,,,,,,,,images/exp1a_trial_7_colour2_distractors4_r.png,r,2,018,001,2021-04-20_20h48.23.591,searchDisc4,2020.2.10,Win32,60,,,space,0.25321,2,1,0.746335,,0,47,47,7,1,1a,7,2,4,
,,,,,,,,,,,,,,,,,,,,,,,,,,images/exp2b_trial_16_colour3_distractors31_r.png,r,2,018,001,2021-04-20_20h48.23.591,searchDisc4,2020.2.10,Win32,60,,,space,0.311865,2,1,1.96197,,0,48,48,358,1,2b,16,3,31,
,,,,,,,,,,,,,,,,,,,,,,,,,,images/exp1b_trial_108_colour3_distractors9_l.png,l,1,018,001,2021-04-20_20h48.23.591,searchDisc4,2020.2.10,Win32,60,,,space,0.15745,1,1,1.80208,,0,49,49,222,1,1b,108,3,9,
,,,,,,,,,,,,,,,,,,,,,,,,,,images/exp2c_trial_99_colour1_distractors43_l.png,l,1,018,001,2021-04-20_20h48.23.591,searchDisc4,2020.2.10,Win32,60,,,space,2.402205,1,1,0.75466,,0,50,50,555,1,2c,99,1,43,
,,,,,,,,,,,,,,,,,,,,,,,,,,images/exp2c_trial_56_colour1_distractors1_l.png,l,1,018,001,2021-04-20_20h48.23.591,searchDisc4,2020.2.10,Win32,60,,,space,0.23611,1,1,0.7807,,0,51,51,512,1,2c,56,1,1,
,,,,,,,,,,,,,,,,,,,,,,,,,,images/exp1a_trial_1_colour1_distractors4_r.png,r,2,018,001,2021-04-20_20h48.23.591,searchDisc4,2020.2.10,Win32,60,,,space,0.23627,2,1,0.935165,,0,52,52,1,1,1a,1,1,4,
,,,,,,,,,,,,,,,,,,,,,,,,,,images/exp2a_trial_86_colour2_distractors31_r.png,r,2,018,001,2021-04-20_20h48.23.591,searchDisc4,2020.2.10,Win32,60,,,space,0.22401,2,1,0.760635,,0,53,53,314,1,2a,86,2,31,
,,,,,,,,,,,,,,,,,,,,,,,,,,images/exp2b_trial_49_colour2_distractors43_r.png,r,2,018,001,2021-04-20_20h48.23.591,searchDisc4,2020.2.10,Win32,60,,,space,0.19775,2,1,0.81913,,0,54,54,391,1,2b,49,2,43,
,,,,,,,,,,,,,,,,,,,,,,,,,,images/exp1b_trial_8_colour2_distractors9_r.png,r,2,018,001,2021-04-20_20h48.23.591,searchDisc4,2020.2.10,Win32,60,,,space,0.22496,2,1,0.73015,,0,55,55,122,1,1b,8,2,9,
,,,,,,,,,,,,,,,,,,,,,,,,,,images/exp2c_trial_79_colour1_distractors19_r.png,r,2,018,001,2021-04-20_20h48.23.591,searchDisc4,2020.2.10,Win32,60,,,space,0.188405,2,1,0.606975,,0,56,56,535,1,2c,79,1,19,
,,,,,,,,,,,,,,,,,,,,,,,,,,images/exp1b_trial_44_colour2_distractors1_r.png,r,2,018,001,2021-04-20_20h48.23.591,searchDisc4,2020.2.10,Win32,60,,,space,0.24895,2,1,0.735235,,0,57,57,158,1,1b,44,2,1,
,,,,,,,,,,,,,,,,,,,,,,,,,,images/exp1b_trial_64_colour2_distractors9_l.png,l,1,018,001,2021-04-20_20h48.23.591,searchDisc4,2020.2.10,Win32,60,,,space,0.23421,1,1,1.091955,,0,58,58,178,1,1b,64,2,9,
,,,,,,,,,,,,,,,,,,,,,,,,,,images/exp1b_trial_70_colour3_distractors9_l.png,l,1,018,001,2021-04-20_20h48.23.591,searchDisc4,2020.2.10,Win32,60,,,space,0.2724,1,1,2.139895,space,0,59,59,184,1,1b,70,3,9,0.172105
,,,,,,,,,,,,,,,,,,,,,,,,,,images/exp2a_trial_46_colour2_distractors9_r.png,r,2,018,001,2021-04-20_20h48.23.591,searchDisc4,2020.2.10,Win32,60,,,space,2.734085,2,1,0.808475,,0,60,60,274,1,2a,46,2,9,
,,,,,,,,,,,,,,,,,,,,,,,,,,images/exp2c_trial_73_colour3_distractors43_l.png,l,1,018,001,2021-04-20_20h48.23.591,searchDisc4,2020.2.10,Win32,60,,,space,0.38864,1,1,0.81726,,0,61,61,529,1,2c,73,3,43,
,,,,,,,,,,,,,,,,,,,,,,,,,,images/exp2c_trial_77_colour1_distractors4_r.png,r,2,018,001,2021-04-20_20h48.23.591,searchDisc4,2020.2.10,Win32,60,,,space,0.306525,2,1,1.037645,,0,62,62,533,1,2c,77,1,4,
,,,,,,,,,,,,,,,,,,,,,,,,,,images/exp2c_trial_2_colour1_distractors9_r.png,r,2,018,001,2021-04-20_20h48.23.591,searchDisc4,2020.2.10,Win32,60,,,space,0.34489,2,1,0.97323,,0,63,63,458,1,2c,2,1,9,
,,,,,,,,,,,,,,,,,,,,,,,,,,images/exp2b_trial_29_colour2_distractors43_l.png,l,1,018,001,2021-04-20_20h48.23.591,searchDisc4,2020.2.10,Win32,60,,,space,0.325615,1,1,0.887475,,0,64,64,371,1,2b,29,2,43,
,,,,,,,,,,,,,,,,,,,,,,,,,,images/exp2b_trial_96_colour1_distractors9_l.png,l,1,018,001,2021-04-20_20h48.23.591,searchDisc4,2020.2.10,Win32,60,,,space,0.300605,1,1,0.95148,,0,65,65,438,1,2b,96,1,9,
,,,,,,,,,,,,,,,,,,,,,,,,,,images/exp1a_trial_39_colour1_distractors4_r.png,r,2,018,001,2021-04-20_20h48.23.591,searchDisc4,2020.2.10,Win32,60,,,space,0.31105,2,1,0.75307,,0,66,66,39,1,1a,39,1,4,
,,,,,,,,,,,,,,,,,,,,,,,,,,images/exp2b_trial_62_colour2_distractors1_l.png,l,1,018,001,2021-04-20_20h48.23.591,searchDisc4,2020.2.10,Win32,60,,,space,0.29406,1,1,0.7857,,0,67,67,404,1,2b,62,2,1,
,,,,,,,,,,,,,,,,,,,,,,,,,,images/exp1a_trial_96_colour1_distractors9_l.png,l,1,018,001,2021-04-20_20h48.23.591,searchDisc4,2020.2.10,Win32,60,,,space,0.35179,1,1,0.807425,,0,68,68,96,1,1a,96,1,9,
,,,,,,,,,,,,,,,,,,,,,,,,,,images/exp2a_trial_95_colour1_distractors4_l.png,l,1,018,001,2021-04-20_20h48.23.591,searchDisc4,2020.2.10,Win32,60,,,space,0.289975,1,1,0.6836,,0,69,69,323,1,2a,95,1,4,
,,,,,,,,,,,,,,,,,,,,,,,,,,images/exp2c_trial_54_colour3_distractors31_r.png,r,2,018,001,2021-04-20_20h48.23.591,searchDisc4,2020.2.10,Win32,60,,,space,0.249465,2,1,1.116265,,0,70,70,510,1,2c,54,3,31,
,,,,,,,,,,,,,,,,,,,,,,,,,,images/exp2a_trial_105_colour2_distractors43_l.png,l,1,018,001,2021-04-20_20h48.23.591,searchDisc4,2020.2.10,Win32,60,,,space,0.26882,1,1,0.679055,,0,71,71,333,1,2a,105,2,43,
,,,,,,,,,,,,,,,,,,,,,,,,,,images/exp1b_trial_51_colour3_distractors4_r.png,r,2,018,001,2021-04-20_20h48.23.591,searchDisc4,2020.2.10,Win32,60,,,space,0.230295,2,1,1.382435,,0,72,72,165,1,1b,51,3,4,
,,,,,,,,,,,,,,,,,,,,,,,,,,images/exp1b_trial_63_colour2_distractors4_l.png,l,1,018,001,2021-04-20_20h48.23.591,searchDisc4,2020.2.10,Win32,60,,,space,0.237545,1,1,1.02157,,0,73,73,177,1,1b,63,2,4,
,,,,,,,,,,,,,,,,,,,,,,,,,,images/exp1b_trial_91_colour3_distractors19_r.png,r,2,018,001,2021-04-20_20h48.23.591,searchDisc4,2020.2.10,Win32,60,,,space,0.223485,2,1,1.09855,,0,74,74,205,1,1b,91,3,19,
,,,,,,,,,,,,,,,,,,,,,,,,,,images/exp2a_trial_96_colour1_distractors9_l.png,l,1,018,001,2021-04-20_20h48.23.591,searchDisc4,2020.2.10,Win32,60,,,space,0.19218,1,1,0.71423,,0,75,75,324,1,2a,96,1,9,
,,,,,,,,,,,,,,,,,,,,,,,,,,images/exp2a_trial_20_colour1_distractors9_l.png,l,1,018,001,2021-04-20_20h48.23.591,searchDisc4,2020.2.10,Win32,60,,,space,0.303745,1,1,0.90643,,0,76,76,248,1,2a,20,1,9,
,,,,,,,,,,,,,,,,,,,,,,,,,,images/exp1b_trial_28_colour2_distractors31_l.png,l,1,018,001,2021-04-20_20h48.23.591,searchDisc4,2020.2.10,Win32,60,,,space,0.20609,1,1,0.9783,,0,77,77,142,1,1b,28,2,31,
,,,,,,,,,,,,,,,,,,,,,,,,,,images/exp1a_trial_95_colour1_distractors4_l.png,l,1,018,001,2021-04-20_20h48.23.591,searchDisc4,2020.2.10,Win32,60,,,space,0.22519,1,1,0.717,,0,78,78,95,1,1a,95,1,4,
,,,,,,,,,,,,,,,,,,,,,,,,,,images/exp2c_trial_68_colour3_distractors1_l.png,l,1,018,001,2021-04-20_20h48.23.591,searchDisc4,2020.2.10,Win32,60,,,space,0.20246,1,1,0.9804,,0,79,79,524,1,2c,68,3,1,
,,,,,,,,,,,,,,,,,,,,,,,,,,images/exp2c_trial_93_colour3_distractors43_r.png,r,2,018,001,2021-04-20_20h48.23.591,searchDisc4,2020.2.10,Win32,60,,,space,0.205305,2,1,1.212195,,0,80,80,549,1,2c,93,3,43,
,,,,,,,,,,,,,,,,,,,,,,,,,,images/exp2a_trial_92_colour3_distractors31_r.png,r,2,018,001,2021-04-20_20h48.23.591,searchDisc4,2020.2.10,Win32,60,,,space,0.224705,2,1,0.673155,,0,81,81,320,1,2a,92,3,31,
,,,,,,,,,,,,,,,,,,,,,,,,,,images/exp1a_trial_85_colour2_distractors19_r.png,r,2,018,001,2021-04-20_20h48.23.591,searchDisc4,2020.2.10,Win32,60,,,space,0.165215,2,1,0.75616,,0,82,82,85,1,1a,85,2,19,
,,,,,,,,,,,,,,,,,,,,,,,,,,images/exp2c_trial_51_colour3_distractors4_r.png,r,2,018,001,2021-04-20_20h48.23.591,searchDisc4,2020.2.10,Win32,60,,,space,0.16701,2,1,0.89619,,0,83,83,507,1,2c,51,3,4,
,,,,,,,,,,,,,,,,,,,,,,,,,,images/exp2c_trial_41_colour1_distractors19_r.png,r,2,018,001,2021-04-20_20h48.23.591,searchDisc4,2020.2.10,Win32,60,,,space,0.246165,2,1,0.788965,,0,84,84,497,1,2c,41,1,19,
,,,,,,,,,,,,,,,,,,,,,,,,,,images/exp2a_trial_26_colour2_distractors9_l.png,l,1,018,001,2021-04-20_20h48.23.591,searchDisc4,2020.2.10,Win32,60,,,space,0.18987,2,0,0.861425,,0,85,85,254,1,2a,26,2,9,
,,,,,,,,,,,,,,,,,,,,,,,,,,images/exp2b_trial_28_colour2_distractors31_l.png,l,1,018,001,2021-04-20_20h48.23.591,searchDisc4,2020.2.10,Win32,60,,,space,0.13857,1,1,1.258505,,0,86,86,370,1,2b,28,2,31,
,,,,,,,,,,,,,,,,,,,,,,,,,,images/exp2a_trial_19_colour1_distractors4_l.png,l,1,018,001,2021-04-20_20h48.23.591,searchDisc4,2020.2.10,Win32,60,,,space,0.190825,1,1,0.95207,,0,87,87,247,1,2a,19,1,4,
,,,,,,,,,,,,,,,,,,,,,,,,,,images/exp2b_trial_24_colour2_distractors1_l.png,l,1,018,001,2021-04-20_20h48.23.591,searchDisc4,2020.2.10,Win32,60,,,space,0.17332,1,1,0.964285,,0,88,88,366,1,2b,24,2,1,
,,,,,,,,,,,,,,,,,,,,,,,,,,images/exp1a_trial_31_colour3_distractors4_l.png,l,1,018,001,2021-04-20_20h48.23.591,searchDisc4,2020.2.10,Win32,60,,,space,0.370185,1,1,0.89799,,0,89,89,31,1,1a,31,3,4,
,,,,,,,,,,,,,,,,,,,,,,,,,,images/exp1b_trial_17_colour3_distractors43_r.png,r,2,018,001,2021-04-20_20h48.23.591,searchDisc4,2020.2.10,Win32,60,,,space,0.250205,2,1,1.74897,,0,90,90,131,1,1b,17,3,43,
,,,,,,,,,,,,,,,,,,,,,,,,,,images/exp2b_trial_9_colour2_distractors19_r.png,r,2,018,001,2021-04-20_20h48.23.591,searchDisc4,2020.2.10,Win32,60,,,space,0.33686,2,1,1.03603,,0,91,91,351,1,2b,9,2,19,
,,,,,,,,,,,,,,,,,,,,,,,,,,images/exp1a_trial_45_colour2_distractors4_r.png,r,2,018,001,2021-04-20_20h48.23.591,searchDisc4,2020.2.10,Win32,60,,,space,0.24107,2,1,0.967065,,0,92,92,45,1,1a,45,2,4,
,,,,,,,,,,,,,,,,,,,,,,,,,,images/exp2c_trial_16_colour3_distractors31_r.png,r,2,018,001,2021-04-20_20h48.23.591,searchDisc4,2020.2.10,Win32,60,,,space,0.203215,2,1,0.82056,,0,93,93,472,1,2c,16,3,31,
,,,,,,,,,,,,,,,,,,,,,,,,,,images/exp1b_trial_30_colour3_distractors1_l.png,l,1,018,001,2021-04-20_20h48.23.591,searchDisc4,2020.2.10,Win32,60,,,space,0.159015,1,1,1.09339,,0,94,94,144,1,1b,30,3,1,
,,,,,,,,,,,,,,,,,,,,,,,,,,images/exp1a_trial_54_colour3_distractors31_r.png,r,2,018,001,2021-04-20_20h48.23.591,searchDisc4,2020.2.10,Win32,60,,,space,0.129235,2,1,0.733255,,0,95,95,54,1,1a,54,3,31,
,,,,,,,,,,,,,,,,,,,,,,,,,,images/exp1b_trial_36_colour0_distractors0_r.png,r,2,018,001,2021-04-20_20h48.23.591,searchDisc4,2020.2.10,Win32,60,,,space,0.152495,2,1,0.748085,,0,96,96,150,1,1b,36,0,0,
,,,,,,,,,,,,,,,,,,,,,,,,,,images/exp1a_trial_66_colour2_distractors31_l.png,l,1,018,001,2021-04-20_20h48.23.591,searchDisc4,2020.2.10,Win32,60,,,space,0.135385,1,1,1.359155,,0,97,97,66,1,1a,66,2,31,
,,,,,,,,,,,,,,,,,,,,,,,,,,images/exp1b_trial_102_colour2_distractors9_l.png,l,1,018,001,2021-04-20_20h48.23.591,searchDisc4,2020.2.10,Win32,60,,,space,0.53806,1,1,1.432835,,0,98,98,216,1,1b,102,2,9,
,,,,,,,,,,,,,,,,,,,,,,,,,,images/exp2b_trial_64_colour2_distractors9_l.png,l,1,018,001,2021-04-20_20h48.23.591,searchDisc4,2020.2.10,Win32,60,,,space,4.762445,1,1,1.12409,,0,99,99,406,1,2b,64,2,9,
,,,,,,,,,,,,,,,,,,,,,,,,,,images/exp1a_trial_57_colour1_distractors4_l.png,l,1,018,001,2021-04-20_20h48.23.591,searchDisc4,2020.2.10,Win32,60,,,space,0.147785,1,1,1.208755,,0,100,100,57,1,1a,57,1,4,
,,,,,,,,,,,,,,,,,,,,,,,,,,images/exp2a_trial_75_colour0_distractors0_l.png,l,1,018,001,2021-04-20_20h48.23.591,searchDisc4,2020.2.10,Win32,60,,,space,0.146875,1,1,0.7202,,0,101,101,303,1,2a,75,0,0,
,,,,,,,,,,,,,,,,,,,,,,,,,,images/exp1a_trial_92_colour3_distractors31_r.png,r,2,018,001,2021-04-20_20h48.23.591,searchDisc4,2020.2.10,Win32,60,,,space,0.132455,2,1,1.080585,,0,102,102,92,1,1a,92,3,31,
,,,,,,,,,,,,,,,,,,,,,,,,,,images/exp1a_trial_56_colour1_distractors1_l.png,l,1,018,001,2021-04-20_20h48.23.591,searchDisc4,2020.2.10,Win32,60,,,space,0.16469,1,1,0.72961,,0,103,103,56,1,1a,56,1,1,
,,,,,,,,,,,,,,,,,,,,,,,,,,images/exp2b_trial_83_colour2_distractors4_r.png,r,2,018,001,2021-04-20_20h48.23.591,searchDisc4,2020.2.10,Win32,60,,,space,0.150885,2,1,0.934365,,0,104,104,425,1,2b,83,2,4,
,,,,,,,,,,,,,,,,,,,,,,,,,,images/exp1b_trial_59_colour1_distractors19_l.png,l,1,018,001,2021-04-20_20h48.23.591,searchDisc4,2020.2.10,Win32,60,,,space,0.13256,1,1,1.179725,,0,105,105,173,1,1b,59,1,19,
,,,,,,,,,,,,,,,,,,,,,,,,,,images/exp1a_trial_93_colour3_distractors43_r.png,r,2,018,001,2021-04-20_20h48.23.591,searchDisc4,2020.2.10,Win32,60,,,space,0.12001,2,1,0.968765,,0,106,106,93,1,1a,93,3,43,
,,,,,,,,,,,,,,,,,,,,,,,,,,images/exp2b_trial_67_colour2_distractors43_l.png,l,1,018,001,2021-04-20_20h48.23.591,searchDisc4,2020.2.10,Win32,60,,,space,0.150835,1,1,0.8641,,0,107,107,409,1,2b,67,2,43,
,,,,,,,,,,,,,,,,,,,,,,,,,,images/exp2b_trial_61_colour1_distractors43_l.png,l,1,018,001,2021-04-20_20h48.23.591,searchDisc4,2020.2.10,Win32,60,,,space,0.1431,1,1,0.8646,,0,108,108,403,1,2b,61,1,43,
,,,,,,,,,,,,,,,,,,,,,,,,,,images/exp1b_trial_20_colour1_distractors9_l.png,l,1,018,001,2021-04-20_20h48.23.591,searchDisc4,2020.2.10,Win32,60,,,space,0.14996,1,1,0.81934,,0,109,109,134,1,1b,20,1,9,
,,,,,,,,,,,,,,,,,,,,,,,,,,images/exp2b_trial_4_colour1_distractors31_r.png,r,2,018,001,2021-04-20_20h48.23.591,searchDisc4,2020.2.10,Win32,60,,,space,0.11654,2,1,0.81719,,0,110,110,346,1,2b,4,1,31,
,,,,,,,,,,,,,,,,,,,,,,,,,,images/exp1b_trial_35_colour3_distractors43_l.png,l,1,018,001,2021-04-20_20h48.23.591,searchDisc4,2020.2.10,Win32,60,,,space,0.131395,1,1,1.70086,,0,111,111,149,1,1b,35,3,43,
,,,,,,,,,,,,,,,,,,,,,,,,,,images/exp2b_trial_40_colour1_distractors9_r.png,r,2,018,001,2021-04-20_20h48.23.591,searchDisc4,2020.2.10,Win32,60,,,space,0.184115,2,1,0.862265,,0,112,112,382,1,2b,40,1,9,
,,,,,,,,,,,,,,,,,,,,,,,,,,images/exp1a_trial_99_colour1_distractors43_l.png,l,1,018,001,2021-04-20_20h48.23.591,searchDisc4,2020.2.10,Win32,60,,,space,0.130955,1,1,0.937665,,0,113,113,99,1,1a,99,1,43,
,,,,,,,,,,,,,,,,,,,,,,,,,,images/exp1a_trial_59_colour1_distractors19_l.png,l,1,018,001,2021-04-20_20h48.23.591,searchDisc4,2020.2.10,Win32,60,,,space,0.15885,1,1,0.821325,,0,114,114,59,1,1a,59,1,19,
,,,,,,,,,,,,,,,,,,,,,,,,,,images/exp2a_trial_13_colour3_distractors4_r.png,r,2,018,001,2021-04-20_20h48.23.591,searchDisc4,2020.2.10,Win32,60,,,space,0.116165,2,1,0.75419,,0,115,115,241,1,2a,13,3,4,
,,,,,,,,,,,,,,,,,,,,,,,,,,images/exp2c_trial_85_colour2_distractors19_r.png,r,2,018,001,2021-04-20_20h48.23.591,searchDisc4,2020.2.10,Win32,60,,,space,0.151955,2,1,1.380005,,0,116,116,541,1,2c,85,2,19,
,,,,,,,,,,,,,,,,,,,,,,,,,,images/exp2c_trial_9_colour2_distractors19_r.png,r,2,018,001,2021-04-20_20h48.23.591,searchDisc4,2020.2.10,Win32,60,,,space,0.0949,2,1,1.327495,,0,117,117,465,1,2c,9,2,19,
,,,,,,,,,,,,,,,,,,,,,,,,,,images/exp2b_trial_84_colour2_distractors9_r.png,r,2,018,001,2021-04-20_20h48.23.591,searchDisc4,2020.2.10,Win32,60,,,space,0.12052,2,1,1.419335,,0,118,118,426,1,2b,84,2,9,
,,,,,,,,,,,,,,,,,,,,,,,,,,images/exp2b_trial_108_colour3_distractors9_l.png,l,1,018,001,2021-04-20_20h48.23.591,searchDisc4,2020.2.10,Win32,60,,,space,0.950105,1,1,0.773845,space,0,119,119,450,1,2b,108,3,9,0.222605
,,,,,,,,,,,,,,,,,,,,,,,,,,images/exp2c_trial_7_colour2_distractors4_r.png,r,2,018,001,2021-04-20_20h48.23.591,searchDisc4,2020.2.10,Win32,60,,,space,5.12114,2,1,0.787615,,0,120,120,463,1,2c,7,2,4,
,,,,,,,,,,,,,,,,,,,,,,,,,,images/exp2c_trial_104_colour2_distractors31_l.png,l,1,018,001,2021-04-20_20h48.23.591,searchDisc4,2020.2.10,Win32,60,,,space,0.124705,1,1,0.836695,,0,121,121,560,1,2c,104,2,31,
,,,,,,,,,,,,,,,,,,,,,,,,,,images/exp1b_trial_95_colour1_distractors4_l.png,l,1,018,001,2021-04-20_20h48.23.591,searchDisc4,2020.2.10,Win32,60,,,space,0.148555,1,1,0.691425,,0,122,122,209,1,1b,95,1,4,
,,,,,,,,,,,,,,,,,,,,,,,,,,images/exp1b_trial_49_colour2_distractors43_r.png,r,2,018,001,2021-04-20_20h48.23.591,searchDisc4,2020.2.10,Win32,60,,,space,0.12556,2,1,1.025335,,0,123,123,163,1,1b,49,2,43,
,,,,,,,,,,,,,,,,,,,,,,,,,,images/exp2b_trial_93_colour3_distractors43_r.png,r,2,018,001,2021-04-20_20h48.23.591,searchDisc4,2020.2.10,Win32,60,,,space,0.1213,2,1,0.809915,,0,124,124,435,1,2b,93,3,43,
,,,,,,,,,,,,,,,,,,,,,,,,,,images/exp1a_trial_49_colour2_distractors43_r.png,r,2,018,001,2021-04-20_20h48.23.591,searchDisc4,2020.2.10,Win32,60,,,space,0.135485,2,1,0.78443,,0,125,125,49,1,1a,49,2,43,
,,,,,,,,,,,,,,,,,,,,,,,,,,images/exp1a_trial_83_colour2_distractors4_r.png,r,2,018,001,2021-04-20_20h48.23.591,searchDisc4,2020.2.10,Win32,60,,,space,0.14334,2,1,0.68256,,0,126,126,83,1,1a,83,2,4,
,,,,,,,,,,,,,,,,,,,,,,,,,,images/exp2a_trial_64_colour2_distractors9_l.png,l,1,018,001,2021-04-20_20h48.23.591,searchDisc4,2020.2.10,Win32,60,,,space,0.09386,1,1,1.0142,,0,127,127,292,1,2a,64,2,9,
,,,,,,,,,,,,,,,,,,,,,,,,,,images/exp2a_trial_47_colour2_distractors19_r.png,r,2,018,001,2021-04-20_20h48.23.591,searchDisc4,2020.2.10,Win32,60,,,space,0.08776,2,1,0.85221,,0,128,128,275,1,2a,47,2,19,
,,,,,,,,,,,,,,,,,,,,,,,,,,images/exp1b_trial_10_colour2_distractors31_r.png,r,2,018,001,2021-04-20_20h48.23.591,searchDisc4,2020.2.10,Win32,60,,,space,0.10527,2,1,1.101205,,0,129,129,124,1,1b,10,2,31,
,,,,,,,,,,,,,,,,,,,,,,,,,,images/exp1a_trial_52_colour3_distractors9_r.png,r,2,018,001,2021-04-20_20h48.23.591,searchDisc4,2020.2.10,Win32,60,,,space,0.098755,2,1,0.69032,,0,130,130,52,1,1a,52,3,9,
,,,,,,,,,,,,,,,,,,,,,,,,,,images/exp2a_trial_94_colour1_distractors1_l.png,l,1,018,001,2021-04-20_20h48.23.591,searchDisc4,2020.2.10,Win32,60,,,space,0.094845,1,1,0.86524,,0,131,131,322,1,2a,94,1,1,
,,,,,,,,,,,,,,,,,,,,,,,,,,images/exp2c_trial_49_colour2_distractors43_r.png,r,2,018,001,2021-04-20_20h48.23.591,searchDisc4,2020.2.10,Win32,60,,,space,0.088845,2,1,0.674265,,0,132,132,505,1,2c,49,2,43,
,,,,,,,,,,,,,,,,,,,,,,,,,,images/exp2c_trial_22_colour1_distractors31_l.png,l,1,018,001,2021-04-20_20h48.23.591,searchDisc4,2020.2.10,Win32,60,,,space,0.095465,1,1,0.88329,,0,133,133,478,1,2c,22,1,31,
,,,,,,,,,,,,,,,,,,,,,,,,,,images/exp1a_trial_22_colour1_distractors31_l.png,l,1,018,001,2021-04-20_20h48.23.591,searchDisc4,2020.2.10,Win32,60,,,space,0.826995,1,1,0.96387,,0,134,134,22,1,1a,22,1,31,
,,,,,,,,,,,,,,,,,,,,,,,,,,images/exp1b_trial_14_colour3_distractors9_r.png,r,2,018,001,2021-04-20_20h48.23.591,searchDisc4,2020.2.10,Win32,60,,,space,0.25683,2,1,1.121775,,0,135,135,128,1,1b,14,3,9,
,,,,,,,,,,,,,,,,,,,,,,,,,,images/exp1a_trial_110_colour3_distractors31_l.png,l,1,018,001,2021-04-20_20h48.23.591,searchDisc4,2020.2.10,Win32,60,,,space,0.119455,1,1,2.139145,,0,136,136,110,1,1a,110,3,31,
,,,,,,,,,,,,,,,,,,,,,,,,,,images/exp2b_trial_99_colour1_distractors43_l.png,l,1,018,001,2021-04-20_20h48.23.591,searchDisc4,2020.2.10,Win32,60,,,space,0.137285,1,1,1.199265,,0,137,137,441,1,2b,99,1,43,
,,,,,,,,,,,,,,,,,,,,,,,,,,images/exp2a_trial_15_colour3_distractors19_r.png,r,2,018,001,2021-04-20_20h48.23.591,searchDisc4,2020.2.10,Win32,60,,,space,2.776865,2,1,0.74323,,0,138,138,243,1,2a,15,3,19,
,,,,,,,,,,,,,,,,,,,,,,,,,,images/exp1b_trial_6_colour2_distractors1_r.png,r,2,018,001,2021-04-20_20h48.23.591,searchDisc4,2020.2.10,Win32,60,,,space,1.331405,2,1,0.72616,,0,139,139,120,1,1b,6,2,1,
,,,,,,,,,,,,,,,,,,,,,,,,,,images/exp1a_trial_98_colour1_distractors31_l.png,l,1,018,001,2021-04-20_20h48.23.591,searchDisc4,2020.2.10,Win32,60,,,space,3.85682,1,1,0.89133,,0,140,140,98,1,1a,98,1,31,
,,,,,,,,,,,,,,,,,,,,,,,,,,images/exp2c_trial_72_colour3_distractors31_l.png,l,1,018,001,2021-04-20_20h48.23.591,searchDisc4,2020.2.10,Win32,60,,,space,0.86981,1,1,0.736055,,0,141,141,528,1,2c,72,3,31,
,,,,,,,,,,,,,,,,,,,,,,,,,,images/exp1a_trial_67_colour2_distractors43_l.png,l,1,018,001,2021-04-20_20h48.23.591,searchDisc4,2020.2.10,Win32,60,,,space,0.38719,1,1,0.63824,,0,142,142,67,1,1a,67,2,43,
,,,,,,,,,,,,,,,,,,,,,,,,,,images/exp2c_trial_52_colour3_distractors9_r.png,r,2,018,001,2021-04-20_20h48.23.591,searchDisc4,2020.2.10,Win32,60,,,space,0.256315,2,1,0.653985,,0,143,143,508,1,2c,52,3,9,
,,,,,,,,,,,,,,,,,,,,,,,,,,images/exp2a_trial_36_colour0_distractors0_r.png,r,2,018,001,2021-04-20_20h48.23.591,searchDisc4,2020.2.10,Win32,60,,,space,0.32354,2,1,0.70106,,0,144,144,264,1,2a,36,0,0,
,,,,,,,,,,,,,,,,,,,,,,,,,,images/exp2b_trial_3_colour1_distractors19_r.png,r,2,018,001,2021-04-20_20h48.23.591,searchDisc4,2020.2.10,Win32,60,,,space,0.35463,2,1,0.776025,,0,145,145,345,1,2b,3,1,19,
,,,,,,,,,,,,,,,,,,,,,,,,,,images/exp2a_trial_73_colour3_distractors43_l.png,l,1,018,001,2021-04-20_20h48.23.591,searchDisc4,2020.2.10,Win32,60,,,space,0.43748,1,1,0.669765,,0,146,146,301,1,2a,73,3,43,
,,,,,,,,,,,,,,,,,,,,,,,,,,images/exp1b_trial_84_colour2_distractors9_r.png,r,2,018,001,2021-04-20_20h48.23.591,searchDisc4,2020.2.10,Win32,60,,,space,0.30742,2,1,0.942875,,0,147,147,198,1,1b,84,2,9,
,,,,,,,,,,,,,,,,,,,,,,,,,,images/exp2a_trial_89_colour3_distractors4_r.png,r,2,018,001,2021-04-20_20h48.23.591,searchDisc4,2020.2.10,Win32,60,,,space,0.28429,2,1,1.088715,,0,148,148,317,1,2a,89,3,4,
,,,,,,,,,,,,,,,,,,,,,,,,,,images/exp2b_trial_94_colour1_distractors1_l.png,l,1,018,001,2021-04-20_20h48.23.591,searchDisc4,2020.2.10,Win32,60,,,space,0.26736,1,1,0.74791,,0,149,149,436,1,2b,94,1,1,
,,,,,,,,,,,,,,,,,,,,,,,,,,images/exp1a_trial_109_colour3_distractors19_l.png,l,1,018,001,2021-04-20_20h48.23.591,searchDisc4,2020.2.10,Win32,60,,,space,0.300915,1,1,0.631795,,0,150,150,109,1,1a,109,3,19,
,,,,,,,,,,,,,,,,,,,,,,,,,,images/exp2c_trial_108_colour3_distractors9_l.png,l,1,018,001,2021-04-20_20h48.23.591,searchDisc4,2020.2.10,Win32,60,,,space,0.310665,1,1,1.041005,,0,151,151,564,1,2c,108,3,9,
,,,,,,,,,,,,,,,,,,,,,,,,,,images/exp2b_trial_102_colour2_distractors9_l.png,l,1,018,001,2021-04-20_20h48.23.591,searchDisc4,2020.2.10,Win32,60,,,space,0.26618,1,1,0.72138,,0,152,152,444,1,2b,102,2,9,
,,,,,,,,,,,,,,,,,,,,,,,,,,images/exp2b_trial_104_colour2_distractors31_l.png,l,1,018,001,2021-04-20_20h48.23.591,searchDisc4,2020.2.10,Win32,60,,,space,0.210935,1,1,0.784655,,0,153,153,446,1,2b,104,2,31,
,,,,,,,,,,,,,,,,,,,,,,,,,,images/exp1b_trial_46_colour2_distractors9_r.png,r,2,018,001,2021-04-20_20h48.23.591,searchDisc4,2020.2.10,Win32,60,,,space,0.29835,2,1,0.890995,,0,154,154,160,1,1b,46,2,9,
,,,,,,,,,,,,,,,,,,,,,,,,,,images/exp2b_trial_95_colour1_distractors4_l.png,l,1,018,001,2021-04-20_20h48.23.591,searchDisc4,2020.2.10,Win32,60,,,space,0.23694,1,1,0.75802,,0,155,155,437,1,2b,95,1,4,
,,,,,,,,,,,,,,,,,,,,,,,,,,images/exp2c_trial_34_colour3_distractors31_l.png,l,1,018,001,2021-04-20_20h48.23.591,searchDisc4,2020.2.10,Win32,60,,,space,0.23377,1,1,1.294465,,0,156,156,490,1,2c,34,3,31,
,,,,,,,,,,,,,,,,,,,,,,,,,,images/exp2b_trial_25_colour2_distractors4_l.png,l,1,018,001,2021-04-20_20h48.23.591,searchDisc4,2020.2.10,Win32,60,,,space,0.1859,1,1,0.55269,,0,157,157,367,1,2b,25,2,4,
,,,,,,,,,,,,,,,,,,,,,,,,,,images/exp2b_trial_106_colour3_distractors1_l.png,l,1,018,001,2021-04-20_20h48.23.591,searchDisc4,2020.2.10,Win32,60,,,space,0.15969,1,1,0.81529,,0,158,158,448,1,2b,106,3,1,
,,,,,,,,,,,,,,,,,,,,,,,,,,images/exp2c_trial_15_colour3_distractors19_r.png,r,2,018,001,2021-04-20_20h48.23.591,searchDisc4,2020.2.10,Win32,60,,,space,0.143055,2,1,1.15209,,0,159,159,471,1,2c,15,3,19,
,,,,,,,,,,,,,,,,,,,,,,,,,,images/exp2a_trial_14_colour3_distractors9_r.png,r,2,018,001,2021-04-20_20h48.23.591,searchDisc4,2020.2.10,Win32,60,,,space,0.796775,2,1,0.715725,,0,160,160,242,1,2a,14,3,9,
,,,,,,,,,,,,,,,,,,,,,,,,,,images/exp1b_trial_94_colour1_distractors1_l.png,l,1,018,001,2021-04-20_20h48.23.591,searchDisc4,2020.2.10,Win32,60,,,space,0.208795,1,1,1.25961,,0,161,161,208,1,1b,94,1,1,
,,,,,,,,,,,,,,,,,,,,,,,,,,images/exp1b_trial_40_colour1_distractors9_r.png,r,2,018,001,2021-04-20_20h48.23.591,searchDisc4,2020.2.10,Win32,60,,,space,0.29066,2,1,1.156385,,0,162,162,154,1,1b,40,1,9,
,,,,,,,,,,,,,,,,,,,,,,,,,,images/exp2a_trial_49_colour2_distractors43_r.png,r,2,018,001,2021-04-20_20h48.23.591,searchDisc4,2020.2.10,Win32,60,,,space,0.23531,2,1,0.722105,,0,163,163,277,1,2a,49,2,43,
,,,,,,,,,,,,,,,,,,,,,,,,,,images/exp1b_trial_12_colour3_distractors1_r.png,r,2,018,001,2021-04-20_20h48.23.591,searchDisc4,2020.2.10,Win32,60,,,space,0.166195,2,1,0.71409,,0,164,164,126,1,1b,12,3,1,
,,,,,,,,,,,,,,,,,,,,,,,,,,images/exp1b_trial_67_colour2_distractors43_l.png,l,1,018,001,2021-04-20_20h48.23.591,searchDisc4,2020.2.10,Win32,60,,,space,0.10072,1,1,1.446305,,0,165,165,181,1,1b,67,2,43,
,,,,,,,,,,,,,,,,,,,,,,,,,,images/exp2a_trial_7_colour2_distractors4_r.png,r,2,018,001,2021-04-20_20h48.23.591,searchDisc4,2020.2.10,Win32,60,,,space,0.16779,2,1,1.78814,,0,166,166,235,1,2a,7,2,4,
,,,,,,,,,,,,,,,,,,,,,,,,,,images/exp2c_trial_71_colour3_distractors19_l.png,l,1,018,001,2021-04-20_20h48.23.591,searchDisc4,2020.2.10,Win32,60,,,space,0.58681,1,1,0.855505,,0,167,167,527,1,2c,71,3,19,
,,,,,,,,,,,,,,,,,,,,,,,,,,images/exp1a_trial_13_colour3_distractors4_r.png,r,2,018,001,2021-04-20_20h48.23.591,searchDisc4,2020.2.10,Win32,60,,,space,0.1737,2,1,1.007355,,0,168,168,13,1,1a,13,3,4,
,,,,,,,,,,,,,,,,,,,,,,,,,,images/exp1a_trial_61_colour1_distractors43_l.png,l,1,018,001,2021-04-20_20h48.23.591,searchDisc4,2020.2.10,Win32,60,,,space,0.152965,1,1,0.812235,,0,169,169,61,1,1a,61,1,43,
,,,,,,,,,,,,,,,,,,,,,,,,,,images/exp1a_trial_81_colour1_distractors43_r.png,r,2,018,001,2021-04-20_20h48.23.591,searchDisc4,2020.2.10,Win32,60,,,space,0.26708,2,1,0.94796,,0,170,170,81,1,1a,81,1,43,
,,,,,,,,,,,,,,,,,,,,,,,,,,images/exp2b_trial_7_colour2_distractors4_r.png,r,2,018,001,2021-04-20_20h48.23.591,searchDisc4,2020.2.10,Win32,60,,,space,0.402355,2,1,0.986125,,0,171,171,349,1,2b,7,2,4,
,,,,,,,,,,,,,,,,,,,,,,,,,,images/exp1a_trial_69_colour3_distractors4_l.png,l,1,018,001,2021-04-20_20h48.23.591,searchDisc4,2020.2.10,Win32,60,,,space,0.21758,1,1,1.21658,,0,172,172,69,1,1a,69,3,4,
,,,,,,,,,,,,,,,,,,,,,,,,,,images/exp2b_trial_53_colour3_distractors19_r.png,r,2,018,001,2021-04-20_20h48.23.591,searchDisc4,2020.2.10,Win32,60,,,space,0.152905,2,1,0.6531,,0,173,173,395,1,2b,53,3,19,
,,,,,,,,,,,,,,,,,,,,,,,,,,images/exp1a_trial_50_colour3_distractors1_r.png,r,2,018,001,2021-04-20_20h48.23.591,searchDisc4,2020.2.10,Win32,60,,,space,0.18521,2,1,1.24664,,0,174,174,50,1,1a,50,3,1,
,,,,,,,,,,,,,,,,,,,,,,,,,,images/exp1b_trial_78_colour1_distractors9_r.png,r,2,018,001,2021-04-20_20h48.23.591,searchDisc4,2020.2.10,Win32,60,,,space,0.3966,2,1,0.89775,,0,175,175,192,1,1b,78,1,9,
,,,,,,,,,,,,,,,,,,,,,,,,,,images/exp2b_trial_6_colour2_distractors1_r.png,r,2,018,001,2021-04-20_20h48.23.591,searchDisc4,2020.2.10,Win32,60,,,space,0.372265,2,1,0.64828,,0,176,176,348,1,2b,6,2,1,
,,,,,,,,,,,,,,,,,,,,,,,,,,images/exp2b_trial_97_colour1_distractors19_l.png,l,1,018,001,2021-04-20_20h48.23.591,searchDisc4,2020.2.10,Win32,60,,,space,0.219195,1,1,1.13733,,0,177,177,439,1,2b,97,1,19,
,,,,,,,,,,,,,,,,,,,,,,,,,,images/exp2b_trial_43_colour1_distractors43_r.png,r,2,018,001,2021-04-20_20h48.23.591,searchDisc4,2020.2.10,Win32,60,,,space,0.289875,2,1,0.787945,,0,178,178,385,1,2b,43,1,43,
,,,,,,,,,,,,,,,,,,,,,,,,,,images/exp2c_trial_98_colour1_distractors31_l.png,l,1,018,001,2021-04-20_20h48.23.591,searchDisc4,2020.2.10,Win32,60,,,space,0.220905,1,1,0.94091,space,0,179,179,554,1,2c,98,1,31,0.14198
,,,,,,,,,,,,,,,,,,,,,,,,,,images/exp2b_trial_18_colour1_distractors1_l.png,l,1,018,001,2021-04-20_20h48.23.591,searchDisc4,2020.2.10,Win32,60,,,space,5.330195,1,1,0.9471,,0,180,180,360,1,2b,18,1,1,
,,,,,,,,,,,,,,,,,,,,,,,,,,images/exp1b_trial_107_colour3_distractors4_l.png,l,1,018,001,2021-04-20_20h48.23.591,searchDisc4,2020.2.10,Win32,60,,,space,0.39649,1,1,1.088965,,0,181,181,221,1,1b,107,3,4,
,,,,,,,,,,,,,,,,,,,,,,,,,,images/exp1a_trial_32_colour3_distractors9_l.png,l,1,018,001,2021-04-20_20h48.23.591,searchDisc4,2020.2.10,Win32,60,,,space,0.328425,1,1,0.93206,,0,182,182,32,1,1a,32,3,9,
,,,,,,,,,,,,,,,,,,,,,,,,,,images/exp2a_trial_2_colour1_distractors9_r.png,r,2,018,001,2021-04-20_20h48.23.591,searchDisc4,2020.2.10,Win32,60,,,space,0.33948,2,1,1.804225,,0,183,183,230,1,2a,2,1,9,
,,,,,,,,,,,,,,,,,,,,,,,,,,images/exp2c_trial_101_colour2_distractors4_l.png,l,1,018,001,2021-04-20_20h48.23.591,searchDisc4,2020.2.10,Win32,60,,,space,0.32843,1,1,0.94205,,0,184,184,557,1,2c,101,2,4,
,,,,,,,,,,,,,,,,,,,,,,,,,,images/exp1a_trial_62_colour2_distractors1_l.png,l,1,018,001,2021-04-20_20h48.23.591,searchDisc4,2020.2.10,Win32,60,,,space,0.15805,1,1,0.89187,,0,185,185,62,1,1a,62,2,1,
,,,,,,,,,,,,,,,,,,,,,,,,,,images/exp1a_trial_73_colour3_distractors43_l.png,l,1,018,001,2021-04-20_20h48.23.591,searchDisc4,2020.2.10,Win32,60,,,space,0.152255,1,1,0.69898,,0,186,186,73,1,1a,73,3,43,
,,,,,,,,,,,,,,,,,,,,,,,,,,images/exp1b_trial_13_colour3_distractors4_r.png,r,2,018,001,2021-04-20_20h48.23.591,searchDisc4,2020.2.10,Win32,60,,,space,0.09958,2,1,1.324795,,0,187,187,127,1,1b,13,3,4,
,,,,,,,,,,,,,,,,,,,,,,,,,,images/exp1b_trial_66_colour2_distractors31_l.png,l,1,018,001,2021-04-20_20h48.23.591,searchDisc4,2020.2.10,Win32,60,,,space,0.10621,1,1,1.11893,,0,188,188,180,1,1b,66,2,31,
,,,,,,,,,,,,,,,,,,,,,,,,,,images/exp2a_trial_42_colour1_distractors31_r.png,r,2,018,001,2021-04-20_20h48.23.591,searchDisc4,2020.2.10,Win32,60,,,space,0.09631,2,1,0.80433,,0,189,189,270,1,2a,42,1,31,
,,,,,,,,,,,,,,,,,,,,,,,,,,images/exp1a_trial_4_colour1_distractors31_r.png,r,2,018,001,2021-04-20_20h48.23.591,searchDisc4,2020.2.10,Win32,60,,,space,0.115445,2,1,0.96851,,0,190,190,4,1,1a,4,1,31,
,,,,,,,,,,,,,,,,,,,,,,,,,,images/exp2b_trial_27_colour2_distractors19_l.png,l,1,018,001,2021-04-20_20h48.23.591,searchDisc4,2020.2.10,Win32,60,,,space,0.085435,1,1,1.136615,,0,191,191,369,1,2b,27,2,19,
,,,,,,,,,,,,,,,,,,,,,,,,,,images/exp1b_trial_15_colour3_distractors19_r.png,r,2,018,001,2021-04-20_20h48.23.591,searchDisc4,2020.2.10,Win32,60,,,space,8.236445,2,1,2.56305,,0,192,192,129,1,1b,15,3,19,
,,,,,,,,,,,,,,,,,,,,,,,,,,images/exp2c_trial_8_colour2_distractors9_r.png,r,2,018,001,2021-04-20_20h48.23.591,searchDisc4,2020.2.10,Win32,60,,,space,1.01171,2,1,0.75888,,0,193,193,464,1,2c,8,2,9,
,,,,,,,,,,,,,,,,,,,,,,,,,,images/exp2a_trial_38_colour1_distractors1_r.png,r,2,018,001,2021-04-20_20h48.23.591,searchDisc4,2020.2.10,Win32,60,,,space,1.79361,2,1,0.563055,,0,194,194,266,1,2a,38,1,1,
,,,,,,,,,,,,,,,,,,,,,,,,,,images/exp1a_trial_24_colour2_distractors1_l.png,l,1,018,001,2021-04-20_20h48.23.591,searchDisc4,2020.2.10,Win32,60,,,space,0.466655,1,1,1.161355,,0,195,195,24,1,1a,24,2,1,
,,,,,,,,,,,,,,,,,,,,,,,,,,images/exp1b_trial_110_colour3_distractors31_l.png,l,1,018,001,2021-04-20_20h48.23.591,searchDisc4,2020.2.10,Win32,60,,,space,0.32549,,0,,,0,196,196,224,1,1b,110,3,31,
,,,,,,,,,,,,,,,,,,,,,,,,,,images/exp1a_trial_35_colour3_distractors43_l.png,l,1,018,001,2021-04-20_20h48.23.591,searchDisc4,2020.2.10,Win32,60,,,space,2.58303,1,1,0.868225,,0,197,197,35,1,1a,35,3,43,
,,,,,,,,,,,,,,,,,,,,,,,,,,images/exp2a_trial_55_colour3_distractors43_r.png,r,2,018,001,2021-04-20_20h48.23.591,searchDisc4,2020.2.10,Win32,60,,,space,0.566115,2,1,0.84895,,0,198,198,283,1,2a,55,3,43,
,,,,,,,,,,,,,,,,,,,,,,,,,,images/exp2b_trial_50_colour3_distractors1_r.png,r,2,018,001,2021-04-20_20h48.23.591,searchDisc4,2020.2.10,Win32,60,,,space,0.365225,2,1,0.81131,,0,199,199,392,1,2b,50,3,1,
,,,,,,,,,,,,,,,,,,,,,,,,,,images/exp2b_trial_8_colour2_distractors9_r.png,r,2,018,001,2021-04-20_20h48.23.591,searchDisc4,2020.2.10,Win32,60,,,space,0.294635,2,1,0.82895,,0,200,200,350,1,2b,8,2,9,
,,,,,,,,,,,,,,,,,,,,,,,,,,images/exp2a_trial_63_colour2_distractors4_l.png,l,1,018,001,2021-04-20_20h48.23.591,searchDisc4,2020.2.10,Win32,60,,,space,0.63842,1,1,1.182775,,0,201,201,291,1,2a,63,2,4,
,,,,,,,,,,,,,,,,,,,,,,,,,,images/exp2b_trial_41_colour1_distractors19_r.png,r,2,018,001,2021-04-20_20h48.23.591,searchDisc4,2020.2.10,Win32,60,,,space,0.29541,2,1,0.78175,,0,202,202,383,1,2b,41,1,19,
,,,,,,,,,,,,,,,,,,,,,,,,,,images/exp1a_trial_88_colour3_distractors1_r.png,r,2,018,001,2021-04-20_20h48.23.591,searchDisc4,2020.2.10,Win32,60,,,space,0.349775,2,1,0.67991,,0,203,203,88,1,1a,88,3,1,
,,,,,,,,,,,,,,,,,,,,,,,,,,images/exp2c_trial_30_colour3_distractors1_l.png,l,1,018,001,2021-04-20_20h48.23.591,searchDisc4,2020.2.10,Win32,60,,,space,0.27131,1,1,0.68831,,0,204,204,486,1,2c,30,3,1,
,,,,,,,,,,,,,,,,,,,,,,,,,,images/exp2a_trial_1_colour1_distractors4_r.png,r,2,018,001,2021-04-20_20h48.23.591,searchDisc4,2020.2.10,Win32,60,,,space,0.30336,2,1,0.683695,,0,205,205,229,1,2a,1,1,4,
,,,,,,,,,,,,,,,,,,,,,,,,,,images/exp2b_trial_22_colour1_distractors31_l.png,l,1,018,001,2021-04-20_20h48.23.591,searchDisc4,2020.2.10,Win32,60,,,space,0.28667,1,1,0.60528,,0,206,206,364,1,2b,22,1,31,
,,,,,,,,,,,,,,,,,,,,,,,,,,images/exp1a_trial_55_colour3_distractors43_r.png,r,2,018,001,2021-04-20_20h48.23.591,searchDisc4,2020.2.10,Win32,60,,,space,0.24109,2,1,0.75644,,0,207,207,55,1,1a,55,3,43,
,,,,,,,,,,,,,,,,,,,,,,,,,,images/exp2c_trial_61_colour1_distractors43_l.png,l,1,018,001,2021-04-20_20h48.23.591,searchDisc4,2020.2.10,Win32,60,,,space,0.362665,1,1,1.04567,,0,208,208,517,1,2c,61,1,43,
,,,,,,,,,,,,,,,,,,,,,,,,,,images/exp2b_trial_35_colour3_distractors43_l.png,l,1,018,001,2021-04-20_20h48.23.591,searchDisc4,2020.2.10,Win32,60,,,space,0.302805,1,1,0.79321,,0,209,209,377,1,2b,35,3,43,
,,,,,,,,,,,,,,,,,,,,,,,,,,images/exp2c_trial_95_colour1_distractors4_l.png,l,1,018,001,2021-04-20_20h48.23.591,searchDisc4,2020.2.10,Win32,60,,,space,0.253355,1,1,0.93421,,0,210,210,551,1,2c,95,1,4,
,,,,,,,,,,,,,,,,,,,,,,,,,,images/exp2b_trial_112_colour0_distractors0_r.png,r,2,018,001,2021-04-20_20h48.23.591,searchDisc4,2020.2.10,Win32,60,,,space,0.282705,2,1,0.873475,,0,211,211,454,1,2b,112,0,0,
,,,,,,,,,,,,,,,,,,,,,,,,,,images/exp1a_trial_107_colour3_distractors4_l.png,l,1,018,001,2021-04-20_20h48.23.591,searchDisc4,2020.2.10,Win32,60,,,space,0.333075,1,1,0.76378,,0,212,212,107,1,1a,107,3,4,
,,,,,,,,,,,,,,,,,,,,,,,,,,images/exp2b_trial_58_colour1_distractors9_l.png,l,1,018,001,2021-04-20_20h48.23.591,searchDisc4,2020.2.10,Win32,60,,,space,0.29909,1,1,0.564175,,0,213,213,400,1,2b,58,1,9,
,,,,,,,,,,,,,,,,,,,,,,,,,,images/exp2a_trial_23_colour1_distractors43_l.png,l,1,018,001,2021-04-20_20h48.23.591,searchDisc4,2020.2.10,Win32,60,,,space,0.301715,1,1,0.93591,,0,214,214,251,1,2a,23,1,43,
,,,,,,,,,,,,,,,,,,,,,,,,,,images/exp1b_trial_21_colour1_distractors19_l.png,l,1,018,001,2021-04-20_20h48.23.591,searchDisc4,2020.2.10,Win32,60,,,space,0.26872,1,1,1.18612,,0,215,215,135,1,1b,21,1,19,
,,,,,,,,,,,,,,,,,,,,,,,,,,images/exp2b_trial_5_colour1_distractors43_r.png,r,2,018,001,2021-04-20_20h48.23.591,searchDisc4,2020.2.10,Win32,60,,,space,0.310245,2,1,0.678095,,0,216,216,347,1,2b,5,1,43,
,,,,,,,,,,,,,,,,,,,,,,,,,,images/exp2b_trial_10_colour2_distractors31_r.png,r,2,018,001,2021-04-20_20h48.23.591,searchDisc4,2020.2.10,Win32,60,,,space,0.264155,2,1,0.65973,,0,217,217,352,1,2b,10,2,31,
,,,,,,,,,,,,,,,,,,,,,,,,,,images/exp1b_trial_1_colour1_distractors4_r.png,r,2,018,001,2021-04-20_20h48.23.591,searchDisc4,2020.2.10,Win32,60,,,space,0.25013,2,1,1.08484,,0,218,218,115,1,1b,1,1,4,
,,,,,,,,,,,,,,,,,,,,,,,,,,images/exp2b_trial_65_colour2_distractors19_l.png,l,1,018,001,2021-04-20_20h48.23.591,searchDisc4,2020.2.10,Win32,60,,,space,0.24581,1,1,0.83105,,0,219,219,407,1,2b,65,2,19,
,,,,,,,,,,,,,,,,,,,,,,,,,,images/exp1b_trial_106_colour3_distractors1_l.png,l,1,018,001,2021-04-20_20h48.23.591,searchDisc4,2020.2.10,Win32,60,,,space,0.401205,1,1,0.78186,,0,220,220,220,1,1b,106,3,1,
,,,,,,,,,,,,,,,,,,,,,,,,,,images/exp2c_trial_102_colour2_distractors9_l.png,l,1,018,001,2021-04-20_20h48.23.591,searchDisc4,2020.2.10,Win32,60,,,space,0.2713,1,1,0.764095,,0,221,221,558,1,2c,102,2,9,
,,,,,,,,,,,,,,,,,,,,,,,,,,images/exp2a_trial_43_colour1_distractors43_r.png,r,2,018,001,2021-04-20_20h48.23.591,searchDisc4,2020.2.10,Win32,60,,,space,0.822655,2,1,0.768625,,0,222,222,271,1,2a,43,1,43,
,,,,,,,,,,,,,,,,,,,,,,,,,,images/exp2a_trial_88_colour3_distractors1_r.png,r,2,018,001,2021-04-20_20h48.23.591,searchDisc4,2020.2.10,Win32,60,,,space,0.45301,2,1,0.65096,,0,223,223,316,1,2a,88,3,1,
,,,,,,,,,,,,,,,,,,,,,,,,,,images/exp1b_trial_85_colour2_distractors19_r.png,r,2,018,001,2021-04-20_20h48.23.591,searchDisc4,2020.2.10,Win32,60,,,space,0.401315,2,1,1.19506,,0,224,224,199,1,1b,85,2,19,
,,,,,,,,,,,,,,,,,,,,,,,,,,images/exp1b_trial_34_colour3_distractors31_l.png,l,1,018,001,2021-04-20_20h48.23.591,searchDisc4,2020.2.10,Win32,60,,,space,0.521455,1,1,1.133705,,0,225,225,148,1,1b,34,3,31,
,,,,,,,,,,,,,,,,,,,,,,,,,,images/exp2c_trial_103_colour2_distractors19_l.png,l,1,018,001,2021-04-20_20h48.23.591,searchDisc4,2020.2.10,Win32,60,,,space,0.28515,1,1,0.88678,,0,226,226,559,1,2c,103,2,19,
,,,,,,,,,,,,,,,,,,,,,,,,,,images/exp1b_trial_5_colour1_distractors43_r.png,r,2,018,001,2021-04-20_20h48.23.591,searchDisc4,2020.2.10,Win32,60,,,space,0.33351,2,1,0.849935,,0,227,227,119,1,1b,5,1,43,
,,,,,,,,,,,,,,,,,,,,,,,,,,images/exp2a_trial_24_colour2_distractors1_l.png,l,1,018,001,2021-04-20_20h48.23.591,searchDisc4,2020.2.10,Win32,60,,,space,0.323885,1,1,0.896,,0,228,228,252,1,2a,24,2,1,
,,,,,,,,,,,,,,,,,,,,,,,,,,images/exp2c_trial_6_colour2_distractors1_r.png,r,2,018,001,2021-04-20_20h48.23.591,searchDisc4,2020.2.10,Win32,60,,,space,0.350705,2,1,0.746705,,0,229,229,462,1,2c,6,2,1,
,,,,,,,,,,,,,,,,,,,,,,,,,,images/exp1b_trial_83_colour2_distractors4_r.png,r,2,018,001,2021-04-20_20h48.23.591,searchDisc4,2020.2.10,Win32,60,,,space,0.379825,2,1,0.819025,,0,230,230,197,1,1b,83,2,4,
,,,,,,,,,,,,,,,,,,,,,,,,,,images/exp2b_trial_11_colour2_distractors43_r.png,r,2,018,001,2021-04-20_20h48.23.591,searchDisc4,2020.2.10,Win32,60,,,space,0.3492,2,1,0.78049,,0,231,231,353,1,2b,11,2,43,
,,,,,,,,,,,,,,,,,,,,,,,,,,images/exp1b_trial_76_colour1_distractors1_r.png,r,2,018,001,2021-04-20_20h48.23.591,searchDisc4,2020.2.10,Win32,60,,,space,0.295335,2,1,0.780365,,0,232,232,190,1,1b,76,1,1,
,,,,,,,,,,,,,,,,,,,,,,,,,,images/exp1a_trial_72_colour3_distractors31_l.png,l,1,018,001,2021-04-20_20h48.23.591,searchDisc4,2020.2.10,Win32,60,,,space,0.22707,1,1,1.03739,,0,233,233,72,1,1a,72,3,31,
,,,,,,,,,,,,,,,,,,,,,,,,,,images/exp1a_trial_51_colour3_distractors4_r.png,r,2,018,001,2021-04-20_20h48.23.591,searchDisc4,2020.2.10,Win32,60,,,space,0.25026,2,1,0.806365,,0,234,234,51,1,1a,51,3,4,
,,,,,,,,,,,,,,,,,,,,,,,,,,images/exp1b_trial_22_colour1_distractors31_l.png,l,1,018,001,2021-04-20_20h48.23.591,searchDisc4,2020.2.10,Win32,60,,,space,0.31849,1,1,1.066295,,0,235,235,136,1,1b,22,1,31,
,,,,,,,,,,,,,,,,,,,,,,,,,,images/exp2b_trial_33_colour3_distractors19_l.png,l,1,018,001,2021-04-20_20h48.23.591,searchDisc4,2020.2.10,Win32,60,,,space,0.39536,1,1,0.92615,,0,236,236,375,1,2b,33,3,19,
,,,,,,,,,,,,,,,,,,,,,,,,,,images/exp1a_trial_71_colour3_distractors19_l.png,l,1,018,001,2021-04-20_20h48.23.591,searchDisc4,2020.2.10,Win32,60,,,space,0.29319,1,1,1.703415,,0,237,237,71,1,1a,71,3,19,
,,,,,,,,,,,,,,,,,,,,,,,,,,images/exp2b_trial_113_colour0_distractors0_l.png,l,1,018,001,2021-04-20_20h48.23.591,searchDisc4,2020.2.10,Win32,60,,,space,0.3017,1,1,0.7811,,0,238,238,455,1,2b,113,0,0,
,,,,,,,,,,,,,,,,,,,,,,,,,,images/exp2b_trial_85_colour2_distractors19_r.png,r,2,018,001,2021-04-20_20h48.23.591,searchDisc4,2020.2.10,Win32,60,,,space,0.29161,2,1,0.776085,space,0,239,239,427,1,2b,85,2,19,83.08001
,,,,,,,,,,,,,,,,,,,,,,,,,,images/exp2c_trial_86_colour2_distractors31_r.png,r,2,018,001,2021-04-20_20h48.23.591,searchDisc4,2020.2.10,Win32,60,,,space,10.932295,2,1,0.60886,,0,240,240,542,1,2c,86,2,31,
,,,,,,,,,,,,,,,,,,,,,,,,,,images/exp2c_trial_48_colour2_distractors31_r.png,r,2,018,001,2021-04-20_20h48.23.591,searchDisc4,2020.2.10,Win32,60,,,space,0.176995,2,1,0.8129,,0,241,241,504,1,2c,48,2,31,
,,,,,,,,,,,,,,,,,,,,,,,,,,images/exp1b_trial_71_colour3_distractors19_l.png,l,1,018,001,2021-04-20_20h48.23.591,searchDisc4,2020.2.10,Win32,60,,,space,0.11701,1,1,3.49246,,0,242,242,185,1,1b,71,3,19,
,,,,,,,,,,,,,,,,,,,,,,,,,,images/exp2c_trial_80_colour1_distractors31_r.png,r,2,018,001,2021-04-20_20h48.23.591,searchDisc4,2020.2.10,Win32,60,,,space,0.2812,2,1,0.710765,,0,243,243,536,1,2c,80,1,31,
,,,,,,,,,,,,,,,,,,,,,,,,,,images/exp1b_trial_42_colour1_distractors31_r.png,r,2,018,001,2021-04-20_20h48.23.591,searchDisc4,2020.2.10,Win32,60,,,space,0.108255,2,1,1.12946,,0,244,244,156,1,1b,42,1,31,
,,,,,,,,,,,,,,,,,,,,,,,,,,images/exp2b_trial_79_colour1_distractors19_r.png,r,2,018,001,2021-04-20_20h48.23.591,searchDisc4,2020.2.10,Win32,60,,,space,0.085395,2,1,0.63186,,0,245,245,421,1,2b,79,1,19,
,,,,,,,,,,,,,,,,,,,,,,,,,,images/exp2b_trial_55_colour3_distractors43_r.png,r,2,018,001,2021-04-20_20h48.23.591,searchDisc4,2020.2.10,Win32,60,,,space,0.064795,2,1,0.504615,,0,246,246,397,1,2b,55,3,43,
,,,,,,,,,,,,,,,,,,,,,,,,,,images/exp1b_trial_65_colour2_distractors19_l.png,l,1,018,001,2021-04-20_20h48.23.591,searchDisc4,2020.2.10,Win32,60,,,space,0.043475,1,1,1.01403,,0,247,247,179,1,1b,65,2,19,
,,,,,,,,,,,,,,,,,,,,,,,,,,images/exp1a_trial_12_colour3_distractors1_r.png,r,2,018,001,2021-04-20_20h48.23.591,searchDisc4,2020.2.10,Win32,60,,,space,0.101065,2,1,0.586745,,0,248,248,12,1,1a,12,3,1,
,,,,,,,,,,,,,,,,,,,,,,,,,,images/exp2c_trial_70_colour3_distractors9_l.png,l,1,018,001,2021-04-20_20h48.23.591,searchDisc4,2020.2.10,Win32,60,,,space,0.048505,1,1,1.182505,,0,249,249,526,1,2c,70,3,9,
,,,,,,,,,,,,,,,,,,,,,,,,,,images/exp2b_trial_75_colour0_distractors0_l.png,l,1,018,001,2021-04-20_20h48.23.591,searchDisc4,2020.2.10,Win32,60,,,space,0.065665,1,1,0.67919,,0,250,250,417,1,2b,75,0,0,
,,,,,,,,,,,,,,,,,,,,,,,,,,images/exp2b_trial_15_colour3_distractors19_r.png,r,2,018,001,2021-04-20_20h48.23.591,searchDisc4,2020.2.10,Win32,60,,,space,0.08487,2,1,0.76073,,0,251,251,357,1,2b,15,3,19,
,,,,,,,,,,,,,,,,,,,,,,,,,,images/exp1a_trial_43_colour1_distractors43_r.png,r,2,018,001,2021-04-20_20h48.23.591,searchDisc4,2020.2.10,Win32,60,,,space,0.0518,2,1,0.74128,,0,252,252,43,1,1a,43,1,43,
,,,,,,,,,,,,,,,,,,,,,,,,,,images/exp2a_trial_109_colour3_distractors19_l.png,l,1,018,001,2021-04-20_20h48.23.591,searchDisc4,2020.2.10,Win32,60,,,space,0.016915,1,1,0.72447,,0,253,253,337,1,2a,109,3,19,
,,,,,,,,,,,,,,,,,,,,,,,,,,images/exp2c_trial_65_colour2_distractors19_l.png,l,1,018,001,2021-04-20_20h48.23.591,searchDisc4,2020.2.10,Win32,60,,,space,0.09958,1,1,0.77611,,0,254,254,521,1,2c,65,2,19,
,,,,,,,,,,,,,,,,,,,,,,,,,,images/exp1a_trial_2_colour1_distractors9_r.png,r,2,018,001,2021-04-20_20h48.23.591,searchDisc4,2020.2.10,Win32,60,,,space,0.117095,2,1,1.04235,,0,255,255,2,1,1a,2,1,9,
,,,,,,,,,,,,,,,,,,,,,,,,,,images/exp1a_trial_6_colour2_distractors1_r.png,r,2,018,001,2021-04-20_20h48.23.591,searchDisc4,2020.2.10,Win32,60,,,space,77.06739,2,1,1.111445,,0,256,256,6,1,1a,6,2,1,
,,,,,,,,,,,,,,,,,,,,,,,,,,images/exp2a_trial_11_colour2_distractors43_r.png,r,2,018,001,2021-04-20_20h48.23.591,searchDisc4,2020.2.10,Win32,60,,,space,0.366065,2,1,0.594025,,0,257,257,239,1,2a,11,2,43,
,,,,,,,,,,,,,,,,,,,,,,,,,,images/exp2a_trial_72_colour3_distractors31_l.png,l,1,018,001,2021-04-20_20h48.23.591,searchDisc4,2020.2.10,Win32,60,,,space,0.097495,1,1,0.81106,,0,258,258,300,1,2a,72,3,31,
,,,,,,,,,,,,,,,,,,,,,,,,,,images/exp2a_trial_10_colour2_distractors31_r.png,r,2,018,001,2021-04-20_20h48.23.591,searchDisc4,2020.2.10,Win32,60,,,space,0.087825,2,1,0.55748,,0,259,259,238,1,2a,10,2,31,
,,,,,,,,,,,,,,,,,,,,,,,,,,images/exp1a_trial_36_colour0_distractors0_r.png,r,2,018,001,2021-04-20_20h48.23.591,searchDisc4,2020.2.10,Win32,60,,,space,0.098965,2,1,0.589485,,0,260,260,36,1,1a,36,0,0,
,,,,,,,,,,,,,,,,,,,,,,,,,,images/exp1a_trial_100_colour2_distractors1_l.png,l,1,018,001,2021-04-20_20h48.23.591,searchDisc4,2020.2.10,Win32,60,,,space,0.085185,1,1,0.694035,,0,261,261,100,1,1a,100,2,1,
,,,,,,,,,,,,,,,,,,,,,,,,,,images/exp2b_trial_77_colour1_distractors4_r.png,r,2,018,001,2021-04-20_20h48.23.591,searchDisc4,2020.2.10,Win32,60,,,space,0.116805,2,1,0.71253,,0,262,262,419,1,2b,77,1,4,
,,,,,,,,,,,,,,,,,,,,,,,,,,images/exp2c_trial_59_colour1_distractors19_l.png,l,1,018,001,2021-04-20_20h48.23.591,searchDisc4,2020.2.10,Win32,60,,,space,0.057875,1,1,0.82412,,0,263,263,515,1,2c,59,1,19,
,,,,,,,,,,,,,,,,,,,,,,,,,,images/exp2c_trial_63_colour2_distractors4_l.png,l,1,018,001,2021-04-20_20h48.23.591,searchDisc4,2020.2.10,Win32,60,,,space,0.10364,1,1,0.829545,,0,264,264,519,1,2c,63,2,4,
,,,,,,,,,,,,,,,,,,,,,,,,,,images/exp2b_trial_21_colour1_distractors19_l.png,l,1,018,001,2021-04-20_20h48.23.591,searchDisc4,2020.2.10,Win32,60,,,space,0.101135,1,1,0.811385,,0,265,265,363,1,2b,21,1,19,
,,,,,,,,,,,,,,,,,,,,,,,,,,images/exp1a_trial_106_colour3_distractors1_l.png,l,1,018,001,2021-04-20_20h48.23.591,searchDisc4,2020.2.10,Win32,60,,,space,0.100325,1,1,0.57691,,0,266,266,106,1,1a,106,3,1,
,,,,,,,,,,,,,,,,,,,,,,,,,,images/exp1a_trial_18_colour1_distractors1_l.png,l,1,018,001,2021-04-20_20h48.23.591,searchDisc4,2020.2.10,Win32,60,,,space,0.101365,1,1,0.87601,,0,267,267,18,1,1a,18,1,1,
,,,,,,,,,,,,,,,,,,,,,,,,,,images/exp1b_trial_73_colour3_distractors43_l.png,l,1,018,001,2021-04-20_20h48.23.591,searchDisc4,2020.2.10,Win32,60,,,space,0.08433,1,1,2.211025,,0,268,268,187,1,1b,73,3,43,
,,,,,,,,,,,,,,,,,,,,,,,,,,images/exp2b_trial_59_colour1_distractors19_l.png,l,1,018,001,2021-04-20_20h48.23.591,searchDisc4,2020.2.10,Win32,60,,,space,0.082135,1,1,0.746445,,0,269,269,401,1,2b,59,1,19,
,,,,,,,,,,,,,,,,,,,,,,,,,,images/exp2a_trial_54_colour3_distractors31_r.png,r,2,018,001,2021-04-20_20h48.23.591,searchDisc4,2020.2.10,Win32,60,,,space,0.11718,2,1,0.7917,,0,270,270,282,1,2a,54,3,31,
,,,,,,,,,,,,,,,,,,,,,,,,,,images/exp2c_trial_47_colour2_distractors19_r.png,r,2,018,001,2021-04-20_20h48.23.591,searchDisc4,2020.2.10,Win32,60,,,space,0.06843,2,1,0.778435,,0,271,271,503,1,2c,47,2,19,
,,,,,,,,,,,,,,,,,,,,,,,,,,images/exp1a_trial_87_colour2_distractors43_r.png,r,2,018,001,2021-04-20_20h48.23.591,searchDisc4,2020.2.10,Win32,60,,,space,0.066905,2,1,0.991475,,0,272,272,87,1,1a,87,2,43,
,,,,,,,,,,,,,,,,,,,,,,,,,,images/exp2b_trial_39_colour1_distractors4_r.png,r,2,018,001,2021-04-20_20h48.23.591,searchDisc4,2020.2.10,Win32,60,,,space,0.05039,2,1,0.64349,,0,273,273,381,1,2b,39,1,4,
,,,,,,,,,,,,,,,,,,,,,,,,,,images/exp1a_trial_112_colour0_distractors0_r.png,r,2,018,001,2021-04-20_20h48.23.591,searchDisc4,2020.2.10,Win32,60,,,space,0.050165,2,1,0.77758,,0,274,274,112,1,1a,112,0,0,
,,,,,,,,,,,,,,,,,,,,,,,,,,images/exp1a_trial_111_colour3_distractors43_l.png,l,1,018,001,2021-04-20_20h48.23.591,searchDisc4,2020.2.10,Win32,60,,,space,0.06437,1,1,0.67811,,0,275,275,111,1,1a,111,3,43,
,,,,,,,,,,,,,,,,,,,,,,,,,,images/exp2c_trial_66_colour2_distractors31_l.png,l,1,018,001,2021-04-20_20h48.23.591,searchDisc4,2020.2.10,Win32,60,,,space,0.083525,1,1,0.9279,,0,276,276,522,1,2c,66,2,31,
,,,,,,,,,,,,,,,,,,,,,,,,,,images/exp1a_trial_27_colour2_distractors19_l.png,l,1,018,001,2021-04-20_20h48.23.591,searchDisc4,2020.2.10,Win32,60,,,space,0.084245,1,1,0.707045,,0,277,277,27,1,1a,27,2,19,
,,,,,,,,,,,,,,,,,,,,,,,,,,images/exp2b_trial_44_colour2_distractors1_r.png,r,2,018,001,2021-04-20_20h48.23.591,searchDisc4,2020.2.10,Win32,60,,,space,0.082325,2,1,1.27957,,0,278,278,386,1,2b,44,2,1,
,,,,,,,,,,,,,,,,,,,,,,,,,,images/exp1a_trial_15_colour3_distractors19_r.png,r,2,018,001,2021-04-20_20h48.23.591,searchDisc4,2020.2.10,Win32,60,,,space,0.066775,2,1,0.61799,,0,279,279,15,1,1a,15,3,19,
,,,,,,,,,,,,,,,,,,,,,,,,,,images/exp2a_trial_67_colour2_distractors43_l.png,l,1,018,001,2021-04-20_20h48.23.591,searchDisc4,2020.2.10,Win32,60,,,space,0.03496,1,1,0.73935,,0,280,280,295,1,2a,67,2,43,
,,,,,,,,,,,,,,,,,,,,,,,,,,images/exp2b_trial_23_colour1_distractors43_l.png,l,1,018,001,2021-04-20_20h48.23.591,searchDisc4,2020.2.10,Win32,60,,,space,0.06666,1,1,0.675765,,0,281,281,365,1,2b,23,1,43,
,,,,,,,,,,,,,,,,,,,,,,,,,,images/exp1b_trial_80_colour1_distractors31_r.png,r,2,018,001,2021-04-20_20h48.23.591,searchDisc4,2020.2.10,Win32,60,,,space,0.11829,2,1,1.133175,,0,282,282,194,1,1b,80,1,31,
,,,,,,,,,,,,,,,,,,,,,,,,,,images/exp2a_trial_9_colour2_distractors19_r.png,r,2,018,001,2021-04-20_20h48.23.591,searchDisc4,2020.2.10,Win32,60,,,space,0.04943,2,1,0.67976,,0,283,283,237,1,2a,9,2,19,
,,,,,,,,,,,,,,,,,,,,,,,,,,images/exp2c_trial_64_colour2_distractors9_l.png,l,1,018,001,2021-04-20_20h48.23.591,searchDisc4,2020.2.10,Win32,60,,,space,0.084675,1,1,0.77013,,0,284,284,520,1,2c,64,2,9,
,,,,,,,,,,,,,,,,,,,,,,,,,,images/exp2c_trial_89_colour3_distractors4_r.png,r,2,018,001,2021-04-20_20h48.23.591,searchDisc4,2020.2.10,Win32,60,,,space,0.060205,2,1,0.795495,,0,285,285,545,1,2c,89,3,4,
,,,,,,,,,,,,,,,,,,,,,,,,,,images/exp2a_trial_52_colour3_distractors9_r.png,r,2,018,001,2021-04-20_20h48.23.591,searchDisc4,2020.2.10,Win32,60,,,space,0.05556,2,1,0.514635,,0,286,286,280,1,2a,52,3,9,
,,,,,,,,,,,,,,,,,,,,,,,,,,images/exp1b_trial_113_colour0_distractors0_l.png,l,1,018,001,2021-04-20_20h48.23.591,searchDisc4,2020.2.10,Win32,60,,,space,0.07123,1,1,0.680165,,0,287,287,227,1,1b,113,0,0,
,,,,,,,,,,,,,,,,,,,,,,,,,,images/exp1b_trial_39_colour1_distractors4_r.png,r,2,018,001,2021-04-20_20h48.23.591,searchDisc4,2020.2.10,Win32,60,,,space,0.133605,2,1,0.7288,,0,288,288,153,1,1b,39,1,4,
,,,,,,,,,,,,,,,,,,,,,,,,,,images/exp2c_trial_100_colour2_distractors1_l.png,l,1,018,001,2021-04-20_20h48.23.591,searchDisc4,2020.2.10,Win32,60,,,space,0.08311,1,1,0.674975,,0,289,289,556,1,2c,100,2,1,
,,,,,,,,,,,,,,,,,,,,,,,,,,images/exp1b_trial_25_colour2_distractors4_l.png,l,1,018,001,2021-04-20_20h48.23.591,searchDisc4,2020.2.10,Win32,60,,,space,0.098655,1,1,0.93837,,0,290,290,139,1,1b,25,2,4,
,,,,,,,,,,,,,,,,,,,,,,,,,,images/exp1a_trial_82_colour2_distractors1_r.png,r,2,018,001,2021-04-20_20h48.23.591,searchDisc4,2020.2.10,Win32,60,,,space,0.092545,2,1,0.56184,,0,291,291,82,1,1a,82,2,1,
,,,,,,,,,,,,,,,,,,,,,,,,,,images/exp2a_trial_98_colour1_distractors31_l.png,l,1,018,001,2021-04-20_20h48.23.591,searchDisc4,2020.2.10,Win32,60,,,space,0.082395,1,1,0.711615,,0,292,292,326,1,2a,98,1,31,
,,,,,,,,,,,,,,,,,,,,,,,,,,images/exp1b_trial_104_colour2_distractors31_l.png,l,1,018,001,2021-04-20_20h48.23.591,searchDisc4,2020.2.10,Win32,60,,,space,0.117045,1,1,1.295365,,0,293,293,218,1,1b,104,2,31,
,,,,,,,,,,,,,,,,,,,,,,,,,,images/exp1b_trial_79_colour1_distractors19_r.png,r,2,018,001,2021-04-20_20h48.23.591,searchDisc4,2020.2.10,Win32,60,,,space,0.082295,2,1,0.829965,,0,294,294,193,1,1b,79,1,19,
,,,,,,,,,,,,,,,,,,,,,,,,,,images/exp2a_trial_66_colour2_distractors31_l.png,l,1,018,001,2021-04-20_20h48.23.591,searchDisc4,2020.2.10,Win32,60,,,space,21.667615,1,1,0.673695,,0,295,295,294,1,2a,66,2,31,
,,,,,,,,,,,,,,,,,,,,,,,,,,images/exp1b_trial_112_colour0_distractors0_r.png,r,2,018,001,2021-04-20_20h48.23.591,searchDisc4,2020.2.10,Win32,60,,,space,0.116775,2,1,0.559045,,0,296,296,226,1,1b,112,0,0,
,,,,,,,,,,,,,,,,,,,,,,,,,,images/exp1a_trial_5_colour1_distractors43_r.png,r,2,018,001,2021-04-20_20h48.23.591,searchDisc4,2020.2.10,Win32,60,,,space,0.066515,2,1,0.656345,,0,297,297,5,1,1a,5,1,43,
,,,,,,,,,,,,,,,,,,,,,,,,,,images/exp2b_trial_34_colour3_distractors31_l.png,l,1,018,001,2021-04-20_20h48.23.591,searchDisc4,2020.2.10,Win32,60,,,space,0.067815,1,1,0.712395,,0,298,298,376,1,2b,34,3,31,
,,,,,,,,,,,,,,,,,,,,,,,,,,images/exp2b_trial_26_colour2_distractors9_l.png,l,1,018,001,2021-04-20_20h48.23.591,searchDisc4,2020.2.10,Win32,60,,,space,0.066855,1,1,0.795875,space,0,299,299,368,1,2b,26,2,9,0.08364
,,,,,,,,,,,,,,,,,,,,,,,,,,images/exp2c_trial_74_colour0_distractors0_r.png,r,2,018,001,2021-04-20_20h48.23.591,searchDisc4,2020.2.10,Win32,60,,,space,1.953555,2,1,0.42662,,0,300,300,530,1,2c,74,0,0,
,,,,,,,,,,,,,,,,,,,,,,,,,,images/exp1a_trial_23_colour1_distractors43_l.png,l,1,018,001,2021-04-20_20h48.23.591,searchDisc4,2020.2.10,Win32,60,,,space,0.0518,1,1,0.79212,,0,301,301,23,1,1a,23,1,43,
,,,,,,,,,,,,,,,,,,,,,,,,,,images/exp1b_trial_18_colour1_distractors1_l.png,l,1,018,001,2021-04-20_20h48.23.591,searchDisc4,2020.2.10,Win32,60,,,space,0.09393,1,1,1.04568,,0,302,302,132,1,1b,18,1,1,
,,,,,,,,,,,,,,,,,,,,,,,,,,images/exp2c_trial_81_colour1_distractors43_r.png,r,2,018,001,2021-04-20_20h48.23.591,searchDisc4,2020.2.10,Win32,60,,,space,0.08429,2,1,0.626435,,0,303,303,537,1,2c,81,1,43,
,,,,,,,,,,,,,,,,,,,,,,,,,,images/exp2c_trial_88_colour3_distractors1_r.png,r,2,018,001,2021-04-20_20h48.23.591,searchDisc4,2020.2.10,Win32,60,,,space,0.08544,2,1,0.762725,,0,304,304,544,1,2c,88,3,1,
,,,,,,,,,,,,,,,,,,,,,,,,,,images/exp1a_trial_91_colour3_distractors19_r.png,r,2,018,001,2021-04-20_20h48.23.591,searchDisc4,2020.2.10,Win32,60,,,space,0.06701,2,1,0.76041,,0,305,305,91,1,1a,91,3,19,
,,,,,,,,,,,,,,,,,,,,,,,,,,images/exp1b_trial_2_colour1_distractors9_r.png,r,2,018,001,2021-04-20_20h48.23.591,searchDisc4,2020.2.10,Win32,60,,,space,0.04562,2,1,0.76129,,0,306,306,116,1,1b,2,1,9,
,,,,,,,,,,,,,,,,,,,,,,,,,,images/exp2c_trial_67_colour2_distractors43_l.png,l,1,018,001,2021-04-20_20h48.23.591,searchDisc4,2020.2.10,Win32,60,,,space,0.05061,1,1,0.71102,,0,307,307,523,1,2c,67,2,43,
,,,,,,,,,,,,,,,,,,,,,,,,,,images/exp1a_trial_9_colour2_distractors19_r.png,r,2,018,001,2021-04-20_20h48.23.591,searchDisc4,2020.2.10,Win32,60,,,space,0.0707,2,1,0.880345,,0,308,308,9,1,1a,9,2,19,
,,,,,,,,,,,,,,,,,,,,,,,,,,images/exp1b_trial_31_colour3_distractors4_l.png,l,1,018,001,2021-04-20_20h48.23.591,searchDisc4,2020.2.10,Win32,60,,,space,0.05075,1,1,1.1771,,0,309,309,145,1,1b,31,3,4,
,,,,,,,,,,,,,,,,,,,,,,,,,,images/exp2c_trial_69_colour3_distractors4_l.png,l,1,018,001,2021-04-20_20h48.23.591,searchDisc4,2020.2.10,Win32,60,,,space,0.05588,1,1,0.762905,,0,310,310,525,1,2c,69,3,4,
,,,,,,,,,,,,,,,,,,,,,,,,,,images/exp2b_trial_66_colour2_distractors31_l.png,l,1,018,001,2021-04-20_20h48.23.591,searchDisc4,2020.2.10,Win32,60,,,space,0.04919,1,1,0.680005,,0,311,311,408,1,2b,66,2,31,
,,,,,,,,,,,,,,,,,,,,,,,,,,images/exp1a_trial_84_colour2_distractors9_r.png,r,2,018,001,2021-04-20_20h48.23.591,searchDisc4,2020.2.10,Win32,60,,,space,0.101135,2,1,0.89396,,0,312,312,84,1,1a,84,2,9,
,,,,,,,,,,,,,,,,,,,,,,,,,,images/exp2a_trial_27_colour2_distractors19_l.png,l,1,018,001,2021-04-20_20h48.23.591,searchDisc4,2020.2.10,Win32,60,,,space,0.086715,1,1,0.724485,,0,313,313,255,1,2a,27,2,19,
,,,,,,,,,,,,,,,,,,,,,,,,,,images/exp2b_trial_109_colour3_distractors19_l.png,l,1,018,001,2021-04-20_20h48.23.591,searchDisc4,2020.2.10,Win32,60,,,space,0.089385,1,1,0.664425,,0,314,314,451,1,2b,109,3,19,
,,,,,,,,,,,,,,,,,,,,,,,,,,images/exp2c_trial_26_colour2_distractors9_l.png,l,1,018,001,2021-04-20_20h48.23.591,searchDisc4,2020.2.10,Win32,60,,,space,0.115005,1,1,0.76788,,0,315,315,482,1,2c,26,2,9,
,,,,,,,,,,,,,,,,,,,,,,,,,,images/exp1a_trial_8_colour2_distractors9_r.png,r,2,018,001,2021-04-20_20h48.23.591,searchDisc4,2020.2.10,Win32,60,,,space,0.083165,2,1,0.77697,,0,316,316,8,1,1a,8,2,9,
,,,,,,,,,,,,,,,,,,,,,,,,,,images/exp2c_trial_13_colour3_distractors4_r.png,r,2,018,001,2021-04-20_20h48.23.591,searchDisc4,2020.2.10,Win32,60,,,space,0.05021,2,1,0.61139,,0,317,317,469,1,2c,13,3,4,
,,,,,,,,,,,,,,,,,,,,,,,,,,images/exp2a_trial_51_colour3_distractors4_r.png,r,2,018,001,2021-04-20_20h48.23.591,searchDisc4,2020.2.10,Win32,60,,,space,0.091585,2,1,0.76196,,0,318,318,279,1,2a,51,3,4,
,,,,,,,,,,,,,,,,,,,,,,,,,,images/exp2b_trial_86_colour2_distractors31_r.png,r,2,018,001,2021-04-20_20h48.23.591,searchDisc4,2020.2.10,Win32,60,,,space,0.04893,2,1,0.746065,,0,319,319,428,1,2b,86,2,31,
,,,,,,,,,,,,,,,,,,,,,,,,,,images/exp1b_trial_47_colour2_distractors19_r.png,r,2,018,001,2021-04-20_20h48.23.591,searchDisc4,2020.2.10,Win32,60,,,space,0.065135,2,1,1.33295,,0,320,320,161,1,1b,47,2,19,
,,,,,,,,,,,,,,,,,,,,,,,,,,images/exp2c_trial_31_colour3_distractors4_l.png,l,1,018,001,2021-04-20_20h48.23.591,searchDisc4,2020.2.10,Win32,60,,,space,5.017065,1,1,0.70924,,0,321,321,487,1,2c,31,3,4,
,,,,,,,,,,,,,,,,,,,,,,,,,,images/exp1a_trial_38_colour1_distractors1_r.png,r,2,018,001,2021-04-20_20h48.23.591,searchDisc4,2020.2.10,Win32,60,,,space,2.26847,2,1,0.69617,,0,322,322,38,1,1a,38,1,1,
,,,,,,,,,,,,,,,,,,,,,,,,,,images/exp2b_trial_1_colour1_distractors4_r.png,r,2,018,001,2021-04-20_20h48.23.591,searchDisc4,2020.2.10,Win32,60,,,space,0.06736,2,1,0.74689,,0,323,323,343,1,2b,1,1,4,
,,,,,,,,,,,,,,,,,,,,,,,,,,images/exp2c_trial_110_colour3_distractors31_l.png,l,1,018,001,2021-04-20_20h48.23.591,searchDisc4,2020.2.10,Win32,60,,,space,0.050025,1,1,1.2096,,0,324,324,566,1,2c,110,3,31,
,,,,,,,,,,,,,,,,,,,,,,,,,,images/exp2b_trial_92_colour3_distractors31_r.png,r,2,018,001,2021-04-20_20h48.23.591,searchDisc4,2020.2.10,Win32,60,,,space,0.084255,2,1,1.092925,,0,325,325,434,1,2b,92,3,31,
,,,,,,,,,,,,,,,,,,,,,,,,,,images/exp2c_trial_58_colour1_distractors9_l.png,l,1,018,001,2021-04-20_20h48.23.591,searchDisc4,2020.2.10,Win32,60,,,space,0.04484,1,1,0.696305,,0,326,326,514,1,2c,58,1,9,
,,,,,,,,,,,,,,,,,,,,,,,,,,images/exp2c_trial_10_colour2_distractors31_r.png,r,2,018,001,2021-04-20_20h48.23.591,searchDisc4,2020.2.10,Win32,60,,,space,0.069185,2,1,0.535,,0,327,327,466,1,2c,10,2,31,
,,,,,,,,,,,,,,,,,,,,,,,,,,images/exp2b_trial_71_colour3_distractors19_l.png,l,1,018,001,2021-04-20_20h48.23.591,searchDisc4,2020.2.10,Win32,60,,,space,0.032465,1,1,0.711505,,0,328,328,413,1,2b,71,3,19,
,,,,,,,,,,,,,,,,,,,,,,,,,,images/exp2b_trial_13_colour3_distractors4_r.png,r,2,018,001,2021-04-20_20h48.23.591,searchDisc4,2020.2.10,Win32,60,,,space,0.04857,2,1,0.529105,,0,329,329,355,1,2b,13,3,4,
,,,,,,,,,,,,,,,,,,,,,,,,,,images/exp2a_trial_35_colour3_distractors43_l.png,l,1,018,001,2021-04-20_20h48.23.591,searchDisc4,2020.2.10,Win32,60,,,space,0.01803,1,1,1.070575,,0,330,330,263,1,2a,35,3,43,
,,,,,,,,,,,,,,,,,,,,,,,,,,images/exp2a_trial_62_colour2_distractors1_l.png,l,1,018,001,2021-04-20_20h48.23.591,searchDisc4,2020.2.10,Win32,60,,,space,0.133325,1,1,0.71139,,0,331,331,290,1,2a,62,2,1,
,,,,,,,,,,,,,,,,,,,,,,,,,,images/exp1b_trial_41_colour1_distractors19_r.png,r,2,018,001,2021-04-20_20h48.23.591,searchDisc4,2020.2.10,Win32,60,,,space,0.079995,2,1,1.29533,,0,332,332,155,1,1b,41,1,19,
,,,,,,,,,,,,,,,,,,,,,,,,,,images/exp2c_trial_44_colour2_distractors1_r.png,r,2,018,001,2021-04-20_20h48.23.591,searchDisc4,2020.2.10,Win32,60,,,space,0.05289,2,1,0.61362,,0,333,333,500,1,2c,44,2,1,
,,,,,,,,,,,,,,,,,,,,,,,,,,images/exp2a_trial_103_colour2_distractors19_l.png,l,1,018,001,2021-04-20_20h48.23.591,searchDisc4,2020.2.10,Win32,60,,,space,0.031595,1,1,1.046285,,0,334,334,331,1,2a,103,2,19,
,,,,,,,,,,,,,,,,,,,,,,,,,,images/exp1b_trial_105_colour2_distractors43_l.png,l,1,018,001,2021-04-20_20h48.23.591,searchDisc4,2020.2.10,Win32,60,,,space,0.098215,1,1,1.14509,,0,335,335,219,1,1b,105,2,43,
,,,,,,,,,,,,,,,,,,,,,,,,,,images/exp2c_trial_84_colour2_distractors9_r.png,r,2,018,001,2021-04-20_20h48.23.591,searchDisc4,2020.2.10,Win32,60,,,space,6.183175,2,1,0.72204,,0,336,336,540,1,2c,84,2,9,
,,,,,,,,,,,,,,,,,,,,,,,,,,images/exp2b_trial_38_colour1_distractors1_r.png,r,2,018,001,2021-04-20_20h48.23.591,searchDisc4,2020.2.10,Win32,60,,,space,0.08218,2,1,0.5278,,0,337,337,380,1,2b,38,1,1,
,,,,,,,,,,,,,,,,,,,,,,,,,,images/exp2c_trial_5_colour1_distractors43_r.png,r,2,018,001,2021-04-20_20h48.23.591,searchDisc4,2020.2.10,Win32,60,,,space,0.06675,2,1,0.695785,,0,338,338,461,1,2c,5,1,43,
,,,,,,,,,,,,,,,,,,,,,,,,,,images/exp1b_trial_111_colour3_distractors43_l.png,l,1,018,001,2021-04-20_20h48.23.591,searchDisc4,2020.2.10,Win32,60,,,space,0.11575,1,1,2.508945,,0,339,339,225,1,1b,111,3,43,
,,,,,,,,,,,,,,,,,,,,,,,,,,images/exp2c_trial_60_colour1_distractors31_l.png,l,1,018,001,2021-04-20_20h48.23.591,searchDisc4,2020.2.10,Win32,60,,,space,0.08361,1,1,0.774605,,0,340,340,516,1,2c,60,1,31,
,,,,,,,,,,,,,,,,,,,,,,,,,,images/exp1a_trial_97_colour1_distractors19_l.png,l,1,018,001,2021-04-20_20h48.23.591,searchDisc4,2020.2.10,Win32,60,,,space,0.11715,1,1,0.80996,,0,341,341,97,1,1a,97,1,19,
,,,,,,,,,,,,,,,,,,,,,,,,,,images/exp1b_trial_100_colour2_distractors1_l.png,l,1,018,001,2021-04-20_20h48.23.591,searchDisc4,2020.2.10,Win32,60,,,space,0.10021,1,1,0.596205,,0,342,342,214,1,1b,100,2,1,
,,,,,,,,,,,,,,,,,,,,,,,,,,images/exp2c_trial_0_colour1_distractors1_r.png,r,2,018,001,2021-04-20_20h48.23.591,searchDisc4,2020.2.10,Win32,60,,,space,0.11807,2,1,0.60989,,0,343,343,456,1,2c,0,1,1,
,,,,,,,,,,,,,,,,,,,,,,,,,,images/exp2c_trial_42_colour1_distractors31_r.png,r,2,018,001,2021-04-20_20h48.23.591,searchDisc4,2020.2.10,Win32,60,,,space,0.08215,2,1,0.54519,,0,344,344,498,1,2c,42,1,31,
,,,,,,,,,,,,,,,,,,,,,,,,,,images/exp2c_trial_20_colour1_distractors9_l.png,l,1,018,001,2021-04-20_20h48.23.591,searchDisc4,2020.2.10,Win32,60,,,space,0.05189,1,1,0.64408,,0,345,345,476,1,2c,20,1,9,
,,,,,,,,,,,,,,,,,,,,,,,,,,images/exp2a_trial_69_colour3_distractors4_l.png,l,1,018,001,2021-04-20_20h48.23.591,searchDisc4,2020.2.10,Win32,60,,,space,0.10001,1,1,0.57617,,0,346,346,297,1,2a,69,3,4,
,,,,,,,,,,,,,,,,,,,,,,,,,,images/exp1b_trial_19_colour1_distractors4_l.png,l,1,018,001,2021-04-20_20h48.23.591,searchDisc4,2020.2.10,Win32,60,,,space,0.100015,1,1,0.775985,,0,347,347,133,1,1b,19,1,4,
,,,,,,,,,,,,,,,,,,,,,,,,,,images/exp1a_trial_113_colour0_distractors0_l.png,l,1,018,001,2021-04-20_20h48.23.591,searchDisc4,2020.2.10,Win32,60,,,space,0.03697,1,1,0.579105,,0,348,348,113,1,1a,113,0,0,
,,,,,,,,,,,,,,,,,,,,,,,,,,images/exp2b_trial_54_colour3_distractors31_r.png,r,2,018,001,2021-04-20_20h48.23.591,searchDisc4,2020.2.10,Win32,60,,,space,0.039665,2,1,1.112475,,0,349,349,396,1,2b,54,3,31,
,,,,,,,,,,,,,,,,,,,,,,,,,,images/exp1b_trial_43_colour1_distractors43_r.png,r,2,018,001,2021-04-20_20h48.23.591,searchDisc4,2020.2.10,Win32,60,,,space,0.02401,2,1,1.36187,,0,350,350,157,1,1b,43,1,43,
,,,,,,,,,,,,,,,,,,,,,,,,,,images/exp2c_trial_55_colour3_distractors43_r.png,r,2,018,001,2021-04-20_20h48.23.591,searchDisc4,2020.2.10,Win32,60,,,space,0.03498,2,1,0.59242,,0,351,351,511,1,2c,55,3,43,
,,,,,,,,,,,,,,,,,,,,,,,,,,images/exp1b_trial_56_colour1_distractors1_l.png,l,1,018,001,2021-04-20_20h48.23.591,searchDisc4,2020.2.10,Win32,60,,,space,0.033855,1,1,0.794555,,0,352,352,170,1,1b,56,1,1,
,,,,,,,,,,,,,,,,,,,,,,,,,,images/exp2c_trial_37_colour0_distractors0_l.png,l,1,018,001,2021-04-20_20h48.23.591,searchDisc4,2020.2.10,Win32,60,,,space,0.06681,1,1,0.612055,,0,353,353,493,1,2c,37,0,0,
,,,,,,,,,,,,,,,,,,,,,,,,,,images/exp2c_trial_109_colour3_distractors19_l.png,l,1,018,001,2021-04-20_20h48.23.591,searchDisc4,2020.2.10,Win32,60,,,space,0.051865,1,1,0.62774,,0,354,354,565,1,2c,109,3,19,
,,,,,,,,,,,,,,,,,,,,,,,,,,images/exp1b_trial_60_colour1_distractors31_l.png,l,1,018,001,2021-04-20_20h48.23.591,searchDisc4,2020.2.10,Win32,60,,,space,0.090455,1,1,1.0131,,0,355,355,174,1,1b,60,1,31,
,,,,,,,,,,,,,,,,,,,,,,,,,,images/exp2a_trial_82_colour2_distractors1_r.png,r,2,018,001,2021-04-20_20h48.23.591,searchDisc4,2020.2.10,Win32,60,,,space,0.049355,2,1,1.026355,,0,356,356,310,1,2a,82,2,1,
,,,,,,,,,,,,,,,,,,,,,,,,,,images/exp1b_trial_3_colour1_distractors19_r.png,r,2,018,001,2021-04-20_20h48.23.591,searchDisc4,2020.2.10,Win32,60,,,space,0.05021,2,1,0.726555,,0,357,357,117,1,1b,3,1,19,
,,,,,,,,,,,,,,,,,,,,,,,,,,images/exp1a_trial_104_colour2_distractors31_l.png,l,1,018,001,2021-04-20_20h48.23.591,searchDisc4,2020.2.10,Win32,60,,,space,0.06472,1,1,0.762025,,0,358,358,104,1,1a,104,2,31,
,,,,,,,,,,,,,,,,,,,,,,,,,,images/exp1a_trial_102_colour2_distractors9_l.png,l,1,018,001,2021-04-20_20h48.23.591,searchDisc4,2020.2.10,Win32,60,,,space,0.06536,1,1,0.846815,space,0,359,359,102,1,1a,102,2,9,0.09119
,,,,,,,,,,,,,,,,,,,,,,,,,,images/exp1a_trial_14_colour3_distractors9_r.png,r,2,018,001,2021-04-20_20h48.23.591,searchDisc4,2020.2.10,Win32,60,,,space,3.083595,2,1,0.72736,,0,360,360,14,1,1a,14,3,9,
,,,,,,,,,,,,,,,,,,,,,,,,,,images/exp1a_trial_21_colour1_distractors19_l.png,l,1,018,001,2021-04-20_20h48.23.591,searchDisc4,2020.2.10,Win32,60,,,space,0.08464,1,1,0.875195,,0,361,361,21,1,1a,21,1,19,
,,,,,,,,,,,,,,,,,,,,,,,,,,images/exp1a_trial_79_colour1_distractors19_r.png,r,2,018,001,2021-04-20_20h48.23.591,searchDisc4,2020.2.10,Win32,60,,,space,0.08207,2,1,0.594255,,0,362,362,79,1,1a,79,1,19,
,,,,,,,,,,,,,,,,,,,,,,,,,,images/exp1a_trial_77_colour1_distractors4_r.png,r,2,018,001,2021-04-20_20h48.23.591,searchDisc4,2020.2.10,Win32,60,,,space,0.03354,2,1,0.57483,,0,363,363,77,1,1a,77,1,4,
,,,,,,,,,,,,,,,,,,,,,,,,,,images/exp2c_trial_50_colour3_distractors1_r.png,r,2,018,001,2021-04-20_20h48.23.591,searchDisc4,2020.2.10,Win32,60,,,space,0.051275,2,1,0.512185,,0,364,364,506,1,2c,50,3,1,
,,,,,,,,,,,,,,,,,,,,,,,,,,images/exp1a_trial_46_colour2_distractors9_r.png,r,2,018,001,2021-04-20_20h48.23.591,searchDisc4,2020.2.10,Win32,60,,,space,0.04819,2,1,0.77758,,0,365,365,46,1,1a,46,2,9,
,,,,,,,,,,,,,,,,,,,,,,,,,,images/exp1a_trial_89_colour3_distractors4_r.png,r,2,018,001,2021-04-20_20h48.23.591,searchDisc4,2020.2.10,Win32,60,,,space,0.065645,2,1,0.777655,,0,366,366,89,1,1a,89,3,4,
,,,,,,,,,,,,,,,,,,,,,,,,,,images/exp1b_trial_29_colour2_distractors43_l.png,l,1,018,001,2021-04-20_20h48.23.591,searchDisc4,2020.2.10,Win32,60,,,space,0.05388,1,1,1.14597,,0,367,367,143,1,1b,29,2,43,
,,,,,,,,,,,,,,,,,,,,,,,,,,images/exp1a_trial_10_colour2_distractors31_r.png,r,2,018,001,2021-04-20_20h48.23.591,searchDisc4,2020.2.10,Win32,60,,,space,0.065085,2,1,0.64676,,0,368,368,10,1,1a,10,2,31,
,,,,,,,,,,,,,,,,,,,,,,,,,,images/exp1b_trial_55_colour3_distractors43_r.png,r,2,018,001,2021-04-20_20h48.23.591,searchDisc4,2020.2.10,Win32,60,,,space,0.048605,2,1,1.343925,,0,369,369,169,1,1b,55,3,43,
,,,,,,,,,,,,,,,,,,,,,,,,,,images/exp2a_trial_32_colour3_distractors9_l.png,l,1,018,001,2021-04-20_20h48.23.591,searchDisc4,2020.2.10,Win32,60,,,space,0.066845,1,1,1.161355,,0,370,370,260,1,2a,32,3,9,
,,,,,,,,,,,,,,,,,,,,,,,,,,images/exp1a_trial_41_colour1_distractors19_r.png,r,2,018,001,2021-04-20_20h48.23.591,searchDisc4,2020.2.10,Win32,60,,,space,0.084055,2,1,0.992245,,0,371,371,41,1,1a,41,1,19,
,,,,,,,,,,,,,,,,,,,,,,,,,,images/exp1b_trial_57_colour1_distractors4_l.png,l,1,018,001,2021-04-20_20h48.23.591,searchDisc4,2020.2.10,Win32,60,,,space,0.10031,1,1,0.84307,,0,372,372,171,1,1b,57,1,4,
,,,,,,,,,,,,,,,,,,,,,,,,,,images/exp2a_trial_28_colour2_distractors31_l.png,l,1,018,001,2021-04-20_20h48.23.591,searchDisc4,2020.2.10,Win32,60,,,space,0.06571,1,1,0.98962,,0,373,373,256,1,2a,28,2,31,
,,,,,,,,,,,,,,,,,,,,,,,,,,images/exp1a_trial_101_colour2_distractors4_l.png,l,1,018,001,2021-04-20_20h48.23.591,searchDisc4,2020.2.10,Win32,60,,,space,0.06829,1,1,0.810405,,0,374,374,101,1,1a,101,2,4,
,,,,,,,,,,,,,,,,,,,,,,,,,,images/exp1a_trial_86_colour2_distractors31_r.png,r,2,018,001,2021-04-20_20h48.23.591,searchDisc4,2020.2.10,Win32,60,,,space,0.06573,2,1,0.826745,,0,375,375,86,1,1a,86,2,31,
,,,,,,,,,,,,,,,,,,,,,,,,,,images/exp2b_trial_56_colour1_distractors1_l.png,l,1,018,001,2021-04-20_20h48.23.591,searchDisc4,2020.2.10,Win32,60,,,space,0.014925,1,1,0.676185,,0,376,376,398,1,2b,56,1,1,
,,,,,,,,,,,,,,,,,,,,,,,,,,images/exp1a_trial_34_colour3_distractors31_l.png,l,1,018,001,2021-04-20_20h48.23.591,searchDisc4,2020.2.10,Win32,60,,,space,0.045475,1,1,1.011605,,0,377,377,34,1,1a,34,3,31,
,,,,,,,,,,,,,,,,,,,,,,,,,,images/exp2a_trial_87_colour2_distractors43_r.png,r,2,018,001,2021-04-20_20h48.23.591,searchDisc4,2020.2.10,Win32,60,,,space,0.084565,2,1,0.67583,,0,378,378,315,1,2a,87,2,43,
,,,,,,,,,,,,,,,,,,,,,,,,,,images/exp1b_trial_93_colour3_distractors43_r.png,r,2,018,001,2021-04-20_20h48.23.591,searchDisc4,2020.2.10,Win32,60,,,space,0.03514,,0,,,0,379,379,207,1,1b,93,3,43,
,,,,,,,,,,,,,,,,,,,,,,,,,,images/exp2b_trial_63_colour2_distractors4_l.png,l,1,018,001,2021-04-20_20h48.23.591,searchDisc4,2020.2.10,Win32,60,,,space,16.21653,1,1,0.70984,,0,380,380,405,1,2b,63,2,4,
,,,,,,,,,,,,,,,,,,,,,,,,,,images/exp2b_trial_57_colour1_distractors4_l.png,l,1,018,001,2021-04-20_20h48.23.591,searchDisc4,2020.2.10,Win32,60,,,space,0.08359,1,1,0.595335,,0,381,381,399,1,2b,57,1,4,
,,,,,,,,,,,,,,,,,,,,,,,,,,images/exp2a_trial_45_colour2_distractors4_r.png,r,2,018,001,2021-04-20_20h48.23.591,searchDisc4,2020.2.10,Win32,60,,,space,0.033715,2,1,0.57504,,0,382,382,273,1,2a,45,2,4,
,,,,,,,,,,,,,,,,,,,,,,,,,,images/exp2a_trial_110_colour3_distractors31_l.png,l,1,018,001,2021-04-20_20h48.23.591,searchDisc4,2020.2.10,Win32,60,,,space,0.05273,1,1,0.773565,,0,383,383,338,1,2a,110,3,31,
,,,,,,,,,,,,,,,,,,,,,,,,,,images/exp1a_trial_65_colour2_distractors19_l.png,l,1,018,001,2021-04-20_20h48.23.591,searchDisc4,2020.2.10,Win32,60,,,space,0.04903,1,1,0.828985,,0,384,384,65,1,1a,65,2,19,
,,,,,,,,,,,,,,,,,,,,,,,,,,images/exp2c_trial_25_colour2_distractors4_l.png,l,1,018,001,2021-04-20_20h48.23.591,searchDisc4,2020.2.10,Win32,60,,,space,0.08228,1,1,0.694785,,0,385,385,481,1,2c,25,2,4,
,,,,,,,,,,,,,,,,,,,,,,,,,,images/exp2a_trial_48_colour2_distractors31_r.png,r,2,018,001,2021-04-20_20h48.23.591,searchDisc4,2020.2.10,Win32,60,,,space,0.049595,2,1,0.676745,,0,386,386,276,1,2a,48,2,31,
,,,,,,,,,,,,,,,,,,,,,,,,,,images/exp2b_trial_72_colour3_distractors31_l.png,l,1,018,001,2021-04-20_20h48.23.591,searchDisc4,2020.2.10,Win32,60,,,space,0.04906,1,1,0.69339,,0,387,387,414,1,2b,72,3,31,
,,,,,,,,,,,,,,,,,,,,,,,,,,images/exp1a_trial_26_colour2_distractors9_l.png,l,1,018,001,2021-04-20_20h48.23.591,searchDisc4,2020.2.10,Win32,60,,,space,0.10123,1,1,0.829425,,0,388,388,26,1,1a,26,2,9,
,,,,,,,,,,,,,,,,,,,,,,,,,,images/exp1a_trial_63_colour2_distractors4_l.png,l,1,018,001,2021-04-20_20h48.23.591,searchDisc4,2020.2.10,Win32,60,,,space,0.08335,1,1,0.75921,,0,389,389,63,1,1a,63,2,4,
,,,,,,,,,,,,,,,,,,,,,,,,,,images/exp2c_trial_94_colour1_distractors1_l.png,l,1,018,001,2021-04-20_20h48.23.591,searchDisc4,2020.2.10,Win32,60,,,space,0.100375,1,1,0.53012,,0,390,390,550,1,2c,94,1,1,
,,,,,,,,,,,,,,,,,,,,,,,,,,images/exp1a_trial_25_colour2_distractors4_l.png,l,1,018,001,2021-04-20_20h48.23.591,searchDisc4,2020.2.10,Win32,60,,,space,0.099075,1,1,0.61262,,0,391,391,25,1,1a,25,2,4,
,,,,,,,,,,,,,,,,,,,,,,,,,,images/exp2c_trial_19_colour1_distractors4_l.png,l,1,018,001,2021-04-20_20h48.23.591,searchDisc4,2020.2.10,Win32,60,,,space,0.066245,1,1,0.62632,,0,392,392,475,1,2c,19,1,4,
,,,,,,,,,,,,,,,,,,,,,,,,,,images/exp2a_trial_50_colour3_distractors1_r.png,r,2,018,001,2021-04-20_20h48.23.591,searchDisc4,2020.2.10,Win32,60,,,space,0.068195,2,1,0.65998,,0,393,393,278,1,2a,50,3,1,
,,,,,,,,,,,,,,,,,,,,,,,,,,images/exp2a_trial_17_colour3_distractors43_r.png,r,2,018,001,2021-04-20_20h48.23.591,searchDisc4,2020.2.10,Win32,60,,,space,0.0281,2,1,0.66061,,0,394,394,245,1,2a,17,3,43,
,,,,,,,,,,,,,,,,,,,,,,,,,,images/exp1b_trial_98_colour1_distractors31_l.png,l,1,018,001,2021-04-20_20h48.23.591,searchDisc4,2020.2.10,Win32,60,,,space,0.06611,1,1,1.026,,0,395,395,212,1,1b,98,1,31,
,,,,,,,,,,,,,,,,,,,,,,,,,,images/exp2a_trial_77_colour1_distractors4_r.png,r,2,018,001,2021-04-20_20h48.23.591,searchDisc4,2020.2.10,Win32,60,,,space,0.04998,2,1,0.94085,,0,396,396,305,1,2a,77,1,4,
,,,,,,,,,,,,,,,,,,,,,,,,,,images/exp1b_trial_82_colour2_distractors1_r.png,r,2,018,001,2021-04-20_20h48.23.591,searchDisc4,2020.2.10,Win32,60,,,space,0.03176,2,1,0.745755,,0,397,397,196,1,1b,82,2,1,
,,,,,,,,,,,,,,,,,,,,,,,,,,images/exp2c_trial_97_colour1_distractors19_l.png,l,1,018,001,2021-04-20_20h48.23.591,searchDisc4,2020.2.10,Win32,60,,,space,0.03355,1,1,0.69232,,0,398,398,553,1,2c,97,1,19,
,,,,,,,,,,,,,,,,,,,,,,,,,,images/exp2c_trial_87_colour2_distractors43_r.png,r,2,018,001,2021-04-20_20h48.23.591,searchDisc4,2020.2.10,Win32,60,,,space,0.081875,2,1,0.679275,,0,399,399,543,1,2c,87,2,43,
,,,,,,,,,,,,,,,,,,,,,,,,,,images/exp1a_trial_68_colour3_distractors1_l.png,l,1,018,001,2021-04-20_20h48.23.591,searchDisc4,2020.2.10,Win32,60,,,space,0.06746,1,1,2.06124,,0,400,400,68,1,1a,68,3,1,
,,,,,,,,,,,,,,,,,,,,,,,,,,images/exp2a_trial_74_colour0_distractors0_r.png,r,2,018,001,2021-04-20_20h48.23.591,searchDisc4,2020.2.10,Win32,60,,,space,0.06822,2,1,1.19284,,0,401,401,302,1,2a,74,0,0,
,,,,,,,,,,,,,,,,,,,,,,,,,,images/exp2c_trial_32_colour3_distractors9_l.png,l,1,018,001,2021-04-20_20h48.23.591,searchDisc4,2020.2.10,Win32,60,,,space,0.04858,1,1,0.94461,,0,402,402,488,1,2c,32,3,9,
,,,,,,,,,,,,,,,,,,,,,,,,,,images/exp1b_trial_53_colour3_distractors19_r.png,r,2,018,001,2021-04-20_20h48.23.591,searchDisc4,2020.2.10,Win32,60,,,space,0.050295,2,1,1.62977,,0,403,403,167,1,1b,53,3,19,
,,,,,,,,,,,,,,,,,,,,,,,,,,images/exp2c_trial_23_colour1_distractors43_l.png,l,1,018,001,2021-04-20_20h48.23.591,searchDisc4,2020.2.10,Win32,60,,,space,0.050425,1,1,0.72619,,0,404,404,479,1,2c,23,1,43,
,,,,,,,,,,,,,,,,,,,,,,,,,,images/exp2b_trial_78_colour1_distractors9_r.png,r,2,018,001,2021-04-20_20h48.23.591,searchDisc4,2020.2.10,Win32,60,,,space,0.060885,2,1,0.71536,,0,405,405,420,1,2b,78,1,9,
,,,,,,,,,,,,,,,,,,,,,,,,,,images/exp1a_trial_37_colour0_distractors0_l.png,l,1,018,001,2021-04-20_20h48.23.591,searchDisc4,2020.2.10,Win32,60,,,space,0.064775,1,1,0.792475,,0,406,406,37,1,1a,37,0,0,
,,,,,,,,,,,,,,,,,,,,,,,,,,images/exp2c_trial_91_colour3_distractors19_r.png,r,2,018,001,2021-04-20_20h48.23.591,searchDisc4,2020.2.10,Win32,60,,,space,0.10022,2,1,1.542455,,0,407,407,547,1,2c,91,3,19,
,,,,,,,,,,,,,,,,,,,,,,,,,,images/exp1a_trial_48_colour2_distractors31_r.png,r,2,018,001,2021-04-20_20h48.23.591,searchDisc4,2020.2.10,Win32,60,,,space,0.4991,2,1,0.660265,,0,408,408,48,1,1a,48,2,31,
,,,,,,,,,,,,,,,,,,,,,,,,,,images/exp1a_trial_58_colour1_distractors9_l.png,l,1,018,001,2021-04-20_20h48.23.591,searchDisc4,2020.2.10,Win32,60,,,space,0.309435,1,1,0.64548,,0,409,409,58,1,1a,58,1,9,
,,,,,,,,,,,,,,,,,,,,,,,,,,images/exp2a_trial_5_colour1_distractors43_r.png,r,2,018,001,2021-04-20_20h48.23.591,searchDisc4,2020.2.10,Win32,60,,,space,0.116905,2,1,1.110145,,0,410,410,233,1,2a,5,1,43,
,,,,,,,,,,,,,,,,,,,,,,,,,,images/exp2a_trial_104_colour2_distractors31_l.png,l,1,018,001,2021-04-20_20h48.23.591,searchDisc4,2020.2.10,Win32,60,,,space,0.032585,1,1,0.943775,,0,411,411,332,1,2a,104,2,31,
,,,,,,,,,,,,,,,,,,,,,,,,,,images/exp2b_trial_80_colour1_distractors31_r.png,r,2,018,001,2021-04-20_20h48.23.591,searchDisc4,2020.2.10,Win32,60,,,space,0.016005,2,1,0.941845,,0,412,412,422,1,2b,80,1,31,
,,,,,,,,,,,,,,,,,,,,,,,,,,images/exp2c_trial_92_colour3_distractors31_r.png,r,2,018,001,2021-04-20_20h48.23.591,searchDisc4,2020.2.10,Win32,60,,,space,0.018255,2,1,1.009875,,0,413,413,548,1,2c,92,3,31,
,,,,,,,,,,,,,,,,,,,,,,,,,,images/exp2b_trial_76_colour1_distractors1_r.png,r,2,018,001,2021-04-20_20h48.23.591,searchDisc4,2020.2.10,Win32,60,,,space,0.86812,2,1,0.71111,,0,414,414,418,1,2b,76,1,1,
,,,,,,,,,,,,,,,,,,,,,,,,,,images/exp2c_trial_83_colour2_distractors4_r.png,r,2,018,001,2021-04-20_20h48.23.591,searchDisc4,2020.2.10,Win32,60,,,space,0.04998,2,1,0.661005,,0,415,415,539,1,2c,83,2,4,
,,,,,,,,,,,,,,,,,,,,,,,,,,images/exp2a_trial_59_colour1_distractors19_l.png,l,1,018,001,2021-04-20_20h48.23.591,searchDisc4,2020.2.10,Win32,60,,,space,0.03489,1,1,0.675465,,0,416,416,287,1,2a,59,1,19,
,,,,,,,,,,,,,,,,,,,,,,,,,,images/exp1a_trial_30_colour3_distractors1_l.png,l,1,018,001,2021-04-20_20h48.23.591,searchDisc4,2020.2.10,Win32,60,,,space,0.01897,1,1,0.777835,,0,417,417,30,1,1a,30,3,1,
,,,,,,,,,,,,,,,,,,,,,,,,,,images/exp2c_trial_35_colour3_distractors43_l.png,l,1,018,001,2021-04-20_20h48.23.591,searchDisc4,2020.2.10,Win32,60,,,space,0.05214,1,1,0.744245,,0,418,418,491,1,2c,35,3,43,
,,,,,,,,,,,,,,,,,,,,,,,,,,images/exp2a_trial_16_colour3_distractors31_r.png,r,2,018,001,2021-04-20_20h48.23.591,searchDisc4,2020.2.10,Win32,60,,,space,0.081335,2,1,0.942245,space,0,419,419,244,1,2a,16,3,31,69.662455
,,,,,,,,,,,,,,,,,,,,,,,,,,images/exp1b_trial_45_colour2_distractors4_r.png,r,2,018,001,2021-04-20_20h48.23.591,searchDisc4,2020.2.10,Win32,60,,,space,0.96791,2,1,0.77741,,0,420,420,159,1,1b,45,2,4,
,,,,,,,,,,,,,,,,,,,,,,,,,,images/exp2c_trial_3_colour1_distractors19_r.png,r,2,018,001,2021-04-20_20h48.23.591,searchDisc4,2020.2.10,Win32,60,,,space,0.0507,2,1,0.544415,,0,421,421,459,1,2c,3,1,19,
,,,,,,,,,,,,,,,,,,,,,,,,,,images/exp2c_trial_29_colour2_distractors43_l.png,l,1,018,001,2021-04-20_20h48.23.591,searchDisc4,2020.2.10,Win32,60,,,space,0.051885,1,1,0.708665,,0,422,422,485,1,2c,29,2,43,
,,,,,,,,,,,,,,,,,,,,,,,,,,images/exp1a_trial_33_colour3_distractors19_l.png,l,1,018,001,2021-04-20_20h48.23.591,searchDisc4,2020.2.10,Win32,60,,,space,0.069895,1,1,0.707205,,0,423,423,33,1,1a,33,3,19,
,,,,,,,,,,,,,,,,,,,,,,,,,,images/exp2b_trial_69_colour3_distractors4_l.png,l,1,018,001,2021-04-20_20h48.23.591,searchDisc4,2020.2.10,Win32,60,,,space,0.084985,1,1,0.62665,,0,424,424,411,1,2b,69,3,4,
,,,,,,,,,,,,,,,,,,,,,,,,,,images/exp2a_trial_68_colour3_distractors1_l.png,l,1,018,001,2021-04-20_20h48.23.591,searchDisc4,2020.2.10,Win32,60,,,space,0.082815,1,1,0.528005,,0,425,425,296,1,2a,68,3,1,
,,,,,,,,,,,,,,,,,,,,,,,,,,images/exp2b_trial_46_colour2_distractors9_r.png,r,2,018,001,2021-04-20_20h48.23.591,searchDisc4,2020.2.10,Win32,60,,,space,0.051745,2,1,0.560775,,0,426,426,388,1,2b,46,2,9,
,,,,,,,,,,,,,,,,,,,,,,,,,,images/exp2b_trial_74_colour0_distractors0_r.png,r,2,018,001,2021-04-20_20h48.23.591,searchDisc4,2020.2.10,Win32,60,,,space,0.067,2,1,0.529125,,0,427,427,416,1,2b,74,0,0,
,,,,,,,,,,,,,,,,,,,,,,,,,,images/exp1b_trial_54_colour3_distractors31_r.png,r,2,018,001,2021-04-20_20h48.23.591,searchDisc4,2020.2.10,Win32,60,,,space,0.051425,2,1,2.22583,,0,428,428,168,1,1b,54,3,31,
,,,,,,,,,,,,,,,,,,,,,,,,,,images/exp2a_trial_30_colour3_distractors1_l.png,l,1,018,001,2021-04-20_20h48.23.591,searchDisc4,2020.2.10,Win32,60,,,space,0.053005,2,0,0.70957,,0,429,429,258,1,2a,30,3,1,
,,,,,,,,,,,,,,,,,,,,,,,,,,images/exp1b_trial_109_colour3_distractors19_l.png,l,1,018,001,2021-04-20_20h48.23.591,searchDisc4,2020.2.10,Win32,60,,,space,0.034975,1,1,3.793605,,0,430,430,223,1,1b,109,3,19,
,,,,,,,,,,,,,,,,,,,,,,,,,,images/exp2a_trial_81_colour1_distractors43_r.png,r,2,018,001,2021-04-20_20h48.23.591,searchDisc4,2020.2.10,Win32,60,,,space,0.03124,2,1,0.792955,,0,431,431,309,1,2a,81,1,43,
,,,,,,,,,,,,,,,,,,,,,,,,,,images/exp2a_trial_8_colour2_distractors9_r.png,r,2,018,001,2021-04-20_20h48.23.591,searchDisc4,2020.2.10,Win32,60,,,space,0.08181,2,1,0.56048,,0,432,432,236,1,2a,8,2,9,
,,,,,,,,,,,,,,,,,,,,,,,,,,images/exp2a_trial_31_colour3_distractors4_l.png,l,1,018,001,2021-04-20_20h48.23.591,searchDisc4,2020.2.10,Win32,60,,,space,0.050135,1,1,0.595565,,0,433,433,259,1,2a,31,3,4,
,,,,,,,,,,,,,,,,,,,,,,,,,,images/exp2a_trial_60_colour1_distractors31_l.png,l,1,018,001,2021-04-20_20h48.23.591,searchDisc4,2020.2.10,Win32,60,,,space,0.08463,1,1,0.82766,,0,434,434,288,1,2a,60,1,31,
,,,,,,,,,,,,,,,,,,,,,,,,,,images/exp1b_trial_81_colour1_distractors43_r.png,r,2,018,001,2021-04-20_20h48.23.591,searchDisc4,2020.2.10,Win32,60,,,space,0.082335,2,1,0.63028,,0,435,435,195,1,1b,81,1,43,
,,,,,,,,,,,,,,,,,,,,,,,,,,images/exp1b_trial_33_colour3_distractors19_l.png,l,1,018,001,2021-04-20_20h48.23.591,searchDisc4,2020.2.10,Win32,60,,,space,0.0324,1,1,1.21229,,0,436,436,147,1,1b,33,3,19,
,,,,,,,,,,,,,,,,,,,,,,,,,,images/exp2c_trial_14_colour3_distractors9_r.png,r,2,018,001,2021-04-20_20h48.23.591,searchDisc4,2020.2.10,Win32,60,,,space,0.050135,2,1,0.609995,,0,437,437,470,1,2c,14,3,9,
,,,,,,,,,,,,,,,,,,,,,,,,,,images/exp2c_trial_96_colour1_distractors9_l.png,l,1,018,001,2021-04-20_20h48.23.591,searchDisc4,2020.2.10,Win32,60,,,space,0.03307,1,1,0.74369,,0,438,438,552,1,2c,96,1,9,
,,,,,,,,,,,,,,,,,,,,,,,,,,images/exp2a_trial_99_colour1_distractors43_l.png,l,1,018,001,2021-04-20_20h48.23.591,searchDisc4,2020.2.10,Win32,60,,,space,0.10032,1,1,0.755915,,0,439,439,327,1,2a,99,1,43,
,,,,,,,,,,,,,,,,,,,,,,,,,,images/exp2c_trial_27_colour2_distractors19_l.png,l,1,018,001,2021-04-20_20h48.23.591,searchDisc4,2020.2.10,Win32,60,,,space,0.06879,1,1,0.64417,,0,440,440,483,1,2c,27,2,19,
,,,,,,,,,,,,,,,,,,,,,,,,,,images/exp1a_trial_40_colour1_distractors9_r.png,r,2,018,001,2021-04-20_20h48.23.591,searchDisc4,2020.2.10,Win32,60,,,space,0.05174,2,1,0.92581,,0,441,441,40,1,1a,40,1,9,
,,,,,,,,,,,,,,,,,,,,,,,,,,images/exp1a_trial_17_colour3_distractors43_r.png,r,2,018,001,2021-04-20_20h48.23.591,searchDisc4,2020.2.10,Win32,60,,,space,0.06447,2,1,0.75977,,0,442,442,17,1,1a,17,3,43,
,,,,,,,,,,,,,,,,,,,,,,,,,,images/exp1b_trial_16_colour3_distractors31_r.png,r,2,018,001,2021-04-20_20h48.23.591,searchDisc4,2020.2.10,Win32,60,,,space,0.000405,2,1,2.07681,,0,443,443,130,1,1b,16,3,31,
,,,,,,,,,,,,,,,,,,,,,,,,,,images/exp2b_trial_19_colour1_distractors4_l.png,l,1,018,001,2021-04-20_20h48.23.591,searchDisc4,2020.2.10,Win32,60,,,space,0.000435,1,1,0.676975,,0,444,444,361,1,2b,19,1,4,
,,,,,,,,,,,,,,,,,,,,,,,,,,images/exp2b_trial_98_colour1_distractors31_l.png,l,1,018,001,2021-04-20_20h48.23.591,searchDisc4,2020.2.10,Win32,60,,,space,0.083705,1,1,0.70954,,0,445,445,440,1,2b,98,1,31,
,,,,,,,,,,,,,,,,,,,,,,,,,,images/exp2c_trial_62_colour2_distractors1_l.png,l,1,018,001,2021-04-20_20h48.23.591,searchDisc4,2020.2.10,Win32,60,,,space,0.081455,1,1,0.795915,,0,446,446,518,1,2c,62,2,1,
,,,,,,,,,,,,,,,,,,,,,,,,,,images/exp2b_trial_14_colour3_distractors9_r.png,r,2,018,001,2021-04-20_20h48.23.591,searchDisc4,2020.2.10,Win32,60,,,space,0.049075,2,1,0.661545,,0,447,447,356,1,2b,14,3,9,
,,,,,,,,,,,,,,,,,,,,,,,,,,images/exp2a_trial_57_colour1_distractors4_l.png,l,1,018,001,2021-04-20_20h48.23.591,searchDisc4,2020.2.10,Win32,60,,,space,0.06671,1,1,0.632715,,0,448,448,285,1,2a,57,1,4,
,,,,,,,,,,,,,,,,,,,,,,,,,,images/exp2b_trial_45_colour2_distractors4_r.png,r,2,018,001,2021-04-20_20h48.23.591,searchDisc4,2020.2.10,Win32,60,,,space,0.08436,2,1,0.57603,,0,449,449,387,1,2b,45,2,4,
,,,,,,,,,,,,,,,,,,,,,,,,,,images/exp1a_trial_80_colour1_distractors31_r.png,r,2,018,001,2021-04-20_20h48.23.591,searchDisc4,2020.2.10,Win32,60,,,space,0.052705,2,1,0.62283,,0,450,450,80,1,1a,80,1,31,
,,,,,,,,,,,,,,,,,,,,,,,,,,images/exp1b_trial_58_colour1_distractors9_l.png,l,1,018,001,2021-04-20_20h48.23.591,searchDisc4,2020.2.10,Win32,60,,,space,0.03209,1,1,0.87696,,0,451,451,172,1,1b,58,1,9,
,,,,,,,,,,,,,,,,,,,,,,,,,,images/exp2a_trial_18_colour1_distractors1_l.png,l,1,018,001,2021-04-20_20h48.23.591,searchDisc4,2020.2.10,Win32,60,,,space,0.01586,1,1,0.7774,,0,452,452,246,1,2a,18,1,1,
,,,,,,,,,,,,,,,,,,,,,,,,,,images/exp2a_trial_91_colour3_distractors19_r.png,r,2,018,001,2021-04-20_20h48.23.591,searchDisc4,2020.2.10,Win32,60,,,space,0.084325,2,1,0.707535,,0,453,453,319,1,2a,91,3,19,
,,,,,,,,,,,,,,,,,,,,,,,,,,images/exp1b_trial_38_colour1_distractors1_r.png,r,2,018,001,2021-04-20_20h48.23.591,searchDisc4,2020.2.10,Win32,60,,,space,0.056205,2,1,0.816475,,0,454,454,152,1,1b,38,1,1,
,,,,,,,,,,,,,,,,,,,,,,,,,,images/exp2c_trial_53_colour3_distractors19_r.png,r,2,018,001,2021-04-20_20h48.23.591,searchDisc4,2020.2.10,Win32,60,,,space,0.04875,2,1,0.64513,,0,455,455,509,1,2c,53,3,19,
,,,,,,,,,,,,,,,,,,,,,,,,,,images/exp2a_trial_90_colour3_distractors9_r.png,r,2,018,001,2021-04-20_20h48.23.591,searchDisc4,2020.2.10,Win32,60,,,space,0.050185,2,1,0.707655,,0,456,456,318,1,2a,90,3,9,
,,,,,,,,,,,,,,,,,,,,,,,,,,images/exp2c_trial_43_colour1_distractors43_r.png,r,2,018,001,2021-04-20_20h48.23.591,searchDisc4,2020.2.10,Win32,60,,,space,0.019095,2,1,0.70823,,0,457,457,499,1,2c,43,1,43,
,,,,,,,,,,,,,,,,,,,,,,,,,,images/exp1b_trial_11_colour2_distractors43_r.png,r,2,018,001,2021-04-20_20h48.23.591,searchDisc4,2020.2.10,Win32,60,,,space,0.0151,2,1,0.861785,,0,458,458,125,1,1b,11,2,43,
,,,,,,,,,,,,,,,,,,,,,,,,,,images/exp1b_trial_7_colour2_distractors4_r.png,r,2,018,001,2021-04-20_20h48.23.591,searchDisc4,2020.2.10,Win32,60,,,space,0.033955,2,1,0.826515,,0,459,459,121,1,1b,7,2,4,
,,,,,,,,,,,,,,,,,,,,,,,,,,images/exp2c_trial_45_colour2_distractors4_r.png,r,2,018,001,2021-04-20_20h48.23.591,searchDisc4,2020.2.10,Win32,60,,,space,0.0482,2,1,0.763125,,0,460,460,501,1,2c,45,2,4,
,,,,,,,,,,,,,,,,,,,,,,,,,,images/exp1b_trial_48_colour2_distractors31_r.png,r,2,018,001,2021-04-20_20h48.23.591,searchDisc4,2020.2.10,Win32,60,,,space,0.05177,2,1,0.809045,,0,461,461,162,1,1b,48,2,31,
,,,,,,,,,,,,,,,,,,,,,,,,,,images/exp1b_trial_72_colour3_distractors31_l.png,l,1,018,001,2021-04-20_20h48.23.591,searchDisc4,2020.2.10,Win32,60,,,space,0.034715,1,1,3.82609,,0,462,462,186,1,1b,72,3,31,
,,,,,,,,,,,,,,,,,,,,,,,,,,images/exp1a_trial_0_colour1_distractors1_r.png,r,2,018,001,2021-04-20_20h48.23.591,searchDisc4,2020.2.10,Win32,60,,,space,0.0678,2,1,0.943155,,0,463,463,0,1,1a,0,1,1,
,,,,,,,,,,,,,,,,,,,,,,,,,,images/exp2b_trial_87_colour2_distractors43_r.png,r,2,018,001,2021-04-20_20h48.23.591,searchDisc4,2020.2.10,Win32,60,,,space,0.068065,2,1,0.60959,,0,464,464,429,1,2b,87,2,43,
,,,,,,,,,,,,,,,,,,,,,,,,,,images/exp2b_trial_17_colour3_distractors43_r.png,r,2,018,001,2021-04-20_20h48.23.591,searchDisc4,2020.2.10,Win32,60,,,space,0.048965,2,1,0.59529,,0,465,465,359,1,2b,17,3,43,
,,,,,,,,,,,,,,,,,,,,,,,,,,images/exp2b_trial_73_colour3_distractors43_l.png,l,1,018,001,2021-04-20_20h48.23.591,searchDisc4,2020.2.10,Win32,60,,,space,0.051165,1,1,0.727885,,0,466,466,415,1,2b,73,3,43,
,,,,,,,,,,,,,,,,,,,,,,,,,,images/exp1a_trial_20_colour1_distractors9_l.png,l,1,018,001,2021-04-20_20h48.23.591,searchDisc4,2020.2.10,Win32,60,,,space,0.08926,1,1,1.0461,,0,467,467,20,1,1a,20,1,9,
,,,,,,,,,,,,,,,,,,,,,,,,,,images/exp1b_trial_97_colour1_distractors19_l.png,l,1,018,001,2021-04-20_20h48.23.591,searchDisc4,2020.2.10,Win32,60,,,space,0.09843,1,1,0.713255,,0,468,468,211,1,1b,97,1,19,
,,,,,,,,,,,,,,,,,,,,,,,,,,images/exp1a_trial_78_colour1_distractors9_r.png,r,2,018,001,2021-04-20_20h48.23.591,searchDisc4,2020.2.10,Win32,60,,,space,0.03399,2,1,0.595015,,0,469,469,78,1,1a,78,1,9,
,,,,,,,,,,,,,,,,,,,,,,,,,,images/exp2b_trial_48_colour2_distractors31_r.png,r,2,018,001,2021-04-20_20h48.23.591,searchDisc4,2020.2.10,Win32,60,,,space,0.082165,2,1,0.460545,,0,470,470,390,1,2b,48,2,31,
,,,,,,,,,,,,,,,,,,,,,,,,,,images/exp2a_trial_25_colour2_distractors4_l.png,l,1,018,001,2021-04-20_20h48.23.591,searchDisc4,2020.2.10,Win32,60,,,space,0.082305,1,1,0.708135,,0,471,471,253,1,2a,25,2,4,
,,,,,,,,,,,,,,,,,,,,,,,,,,images/exp1b_trial_77_colour1_distractors4_r.png,r,2,018,001,2021-04-20_20h48.23.591,searchDisc4,2020.2.10,Win32,60,,,space,0.06799,2,1,0.69209,,0,472,472,191,1,1b,77,1,4,
,,,,,,,,,,,,,,,,,,,,,,,,,,images/exp2b_trial_82_colour2_distractors1_r.png,r,2,018,001,2021-04-20_20h48.23.591,searchDisc4,2020.2.10,Win32,60,,,space,0.033265,2,1,0.594705,,0,473,473,424,1,2b,82,2,1,
,,,,,,,,,,,,,,,,,,,,,,,,,,images/exp2a_trial_53_colour3_distractors19_r.png,r,2,018,001,2021-04-20_20h48.23.591,searchDisc4,2020.2.10,Win32,60,,,space,0.048605,2,1,0.54222,,0,474,474,281,1,2a,53,3,19,
,,,,,,,,,,,,,,,,,,,,,,,,,,images/exp2c_trial_112_colour0_distractors0_r.png,r,2,018,001,2021-04-20_20h48.23.591,searchDisc4,2020.2.10,Win32,60,,,space,0.066825,2,1,0.79243,,0,475,475,568,1,2c,112,0,0,
,,,,,,,,,,,,,,,,,,,,,,,,,,images/exp1b_trial_92_colour3_distractors31_r.png,r,2,018,001,2021-04-20_20h48.23.591,searchDisc4,2020.2.10,Win32,60,,,space,0.049395,2,1,0.97533,,0,476,476,206,1,1b,92,3,31,
