X Scale,Y Scale,key_resp_10.keys,key_resp_10.rt,key_resp_11.keys,key_resp_11.rt,key_resp_12.keys,key_resp_12.rt,key_resp_13.keys,key_resp_13.rt,key_resp_5.keys,key_resp_5.rt,key_resp_8.keys,key_resp_8.rt,key_resp_6.keys,key_resp_6.rt,key_resp_7.keys,key_resp_7.rt,key_resp_4.keys,key_resp_4.corr,key_resp_4.rt,trials_2.thisRepN,trials_2.thisTrialN,trials_2.thisN,trials_2.thisIndex,trials_2.ran,ImageFile,targ_side,correctAnswer,participant,session,date,expName,psychopyVersion,OS,frameRate,key_resp_3.keys,key_resp_3.rt,key_resp_9.keys,key_resp_9.rt,key_resp_2.keys,key_resp_2.corr,key_resp_2.rt,key_resp.keys,trials.thisRepN,trials.thisTrialN,trials.thisN,trials.thisIndex,trials.ran,exp,trial,colour,distNo,key_resp.rt
33.8,34.8,space,2.025,space,2.276,space,1.889,space,1.467,space,11.073,space,1.525,space,2.067,space,0.607,1,1,0.841,0,0,0,19,1,Practice arrays/exp1a_trial_37_colour0_distractors0_l.png,l,1,020,001,2021-04-22_12h46.22.795,searchDisc4,2020.2.10,MacIntel,60,,,,,,,,,,,,,,,,,,
,,,,,,,,,,,,,,,,space,0.4,1,1,0.547,0,1,1,9,1,Practice arrays/exp1a_trial_19_colour1_distractors4_l.png,l,1,020,001,2021-04-22_12h46.22.795,searchDisc4,2020.2.10,MacIntel,60,,,,,,,,,,,,,,,,,,
,,,,,,,,,,,,,,,,space,1.839,1,1,0.71,0,2,2,13,1,Practice arrays/exp1a_trial_28_colour2_distractors31_l.png,l,1,020,001,2021-04-22_12h46.22.795,searchDisc4,2020.2.10,MacIntel,60,,,,,,,,,,,,,,,,,,
,,,,,,,,,,,,,,,,space,2.003,1,1,0.58,0,3,3,11,1,Practice arrays/exp1a_trial_21_colour1_distractors19_l.png,l,1,020,001,2021-04-22_12h46.22.795,searchDisc4,2020.2.10,MacIntel,60,,,,,,,,,,,,,,,,,,
,,,,,,,,,,,,,,,,space,2.103,1,1,0.711,0,4,4,12,1,Practice arrays/exp1a_trial_25_colour2_distractors4_l.png,l,1,020,001,2021-04-22_12h46.22.795,searchDisc4,2020.2.10,MacIntel,60,,,,,,,,,,,,,,,,,,
,,,,,,,,,,,,,,,,space,0.639,2,1,0.514,0,5,5,0,1,Practice arrays/exp1a_trial_0_colour1_distractors1_r.png,r,2,020,001,2021-04-22_12h46.22.795,searchDisc4,2020.2.10,MacIntel,60,,,,,,,,,,,,,,,,,,
,,,,,,,,,,,,,,,,space,0.368,2,1,0.578,0,6,6,6,1,Practice arrays/exp1a_trial_12_colour3_distractors1_r.png,r,2,020,001,2021-04-22_12h46.22.795,searchDisc4,2020.2.10,MacIntel,60,,,,,,,,,,,,,,,,,,
,,,,,,,,,,,,,,,,space,0.268,2,1,0.644,0,7,7,5,1,Practice arrays/exp1a_trial_10_colour2_distractors31_r.png,r,2,020,001,2021-04-22_12h46.22.795,searchDisc4,2020.2.10,MacIntel,60,,,,,,,,,,,,,,,,,,
,,,,,,,,,,,,,,,,space,0.541,2,1,0.512,0,8,8,7,1,Practice arrays/exp1a_trial_13_colour3_distractors4_r.png,r,2,020,001,2021-04-22_12h46.22.795,searchDisc4,2020.2.10,MacIntel,60,,,,,,,,,,,,,,,,,,
,,,,,,,,,,,,,,,,space,0.268,2,1,0.548,0,9,9,3,1,Practice arrays/exp1a_trial_7_colour2_distractors4_r.png,r,2,020,001,2021-04-22_12h46.22.795,searchDisc4,2020.2.10,MacIntel,60,,,,,,,,,,,,,,,,,,
,,,,,,,,,,,,,,,,space,0.501,1,1,0.611,0,10,10,16,1,Practice arrays/exp1a_trial_33_colour3_distractors19_l.png,l,1,020,001,2021-04-22_12h46.22.795,searchDisc4,2020.2.10,MacIntel,60,,,,,,,,,,,,,,,,,,
,,,,,,,,,,,,,,,,space,0.101,2,1,0.58,0,11,11,18,1,Practice arrays/exp1a_trial_36_colour0_distractors0_r.png,r,2,020,001,2021-04-22_12h46.22.795,searchDisc4,2020.2.10,MacIntel,60,,,,,,,,,,,,,,,,,,
,,,,,,,,,,,,,,,,space,0.6,2,1,0.52,0,12,12,8,1,Practice arrays/exp1a_trial_16_colour3_distractors31_r.png,r,2,020,001,2021-04-22_12h46.22.795,searchDisc4,2020.2.10,MacIntel,60,,,,,,,,,,,,,,,,,,
,,,,,,,,,,,,,,,,space,0.434,1,1,0.512,0,13,13,14,1,Practice arrays/exp1a_trial_29_colour2_distractors43_l.png,l,1,020,001,2021-04-22_12h46.22.795,searchDisc4,2020.2.10,MacIntel,60,,,,,,,,,,,,,,,,,,
,,,,,,,,,,,,,,,,space,0.437,2,1,0.545,0,14,14,1,1,Practice arrays/exp1a_trial_3_colour1_distractors19_r.png,r,2,020,001,2021-04-22_12h46.22.795,searchDisc4,2020.2.10,MacIntel,60,,,,,,,,,,,,,,,,,,
,,,,,,,,,,,,,,,,space,0.268,2,1,0.844,0,15,15,2,1,Practice arrays/exp1a_trial_5_colour1_distractors43_r.png,r,2,020,001,2021-04-22_12h46.22.795,searchDisc4,2020.2.10,MacIntel,60,,,,,,,,,,,,,,,,,,
,,,,,,,,,,,,,,,,space,1.375,2,1,0.544,0,16,16,4,1,Practice arrays/exp1a_trial_8_colour2_distractors9_r.png,r,2,020,001,2021-04-22_12h46.22.795,searchDisc4,2020.2.10,MacIntel,60,,,,,,,,,,,,,,,,,,
,,,,,,,,,,,,,,,,space,2.401,1,1,0.615,0,17,17,15,1,Practice arrays/exp1a_trial_32_colour3_distractors9_l.png,l,1,020,001,2021-04-22_12h46.22.795,searchDisc4,2020.2.10,MacIntel,60,,,,,,,,,,,,,,,,,,
,,,,,,,,,,,,,,,,space,0.634,2,0,0.52,0,18,18,10,1,Practice arrays/exp1a_trial_20_colour1_distractors9_l.png,l,1,020,001,2021-04-22_12h46.22.795,searchDisc4,2020.2.10,MacIntel,60,,,,,,,,,,,,,,,,,,
,,,,,,,,,,,,,,,,space,0.41,1,1,0.581,0,19,19,17,1,Practice arrays/exp1a_trial_35_colour3_distractors43_l.png,l,1,020,001,2021-04-22_12h46.22.795,searchDisc4,2020.2.10,MacIntel,60,,,,,,,,,,,,,,,,,,
,,,,,,,,,,,,,,,,,,,,,,,,,,images/exp2b_trial_78_colour1_distractors9_r.png,r,2,020,001,2021-04-22_12h46.22.795,searchDisc4,2020.2.10,MacIntel,60,space,0.301,space,0.669,2,1,0.644,,0,0,0,420,1,2b,78,1,9,
,,,,,,,,,,,,,,,,,,,,,,,,,,images/exp2c_trial_82_colour2_distractors1_r.png,r,2,020,001,2021-04-22_12h46.22.795,searchDisc4,2020.2.10,MacIntel,60,,,space,0.734,2,1,0.587,,0,1,1,538,1,2c,82,2,1,
,,,,,,,,,,,,,,,,,,,,,,,,,,images/exp2a_trial_76_colour1_distractors1_r.png,r,2,020,001,2021-04-22_12h46.22.795,searchDisc4,2020.2.10,MacIntel,60,,,space,0.699,2,1,0.512,,0,2,2,304,1,2a,76,1,1,
,,,,,,,,,,,,,,,,,,,,,,,,,,images/exp2b_trial_113_colour0_distractors0_l.png,l,1,020,001,2021-04-22_12h46.22.795,searchDisc4,2020.2.10,MacIntel,60,,,space,0.469,1,1,0.451,,0,3,3,455,1,2b,113,0,0,
,,,,,,,,,,,,,,,,,,,,,,,,,,images/exp1a_trial_83_colour2_distractors4_r.png,r,2,020,001,2021-04-22_12h46.22.795,searchDisc4,2020.2.10,MacIntel,60,,,space,0.433,2,1,0.518,,0,4,4,83,1,1a,83,2,4,
,,,,,,,,,,,,,,,,,,,,,,,,,,images/exp2b_trial_4_colour1_distractors31_r.png,r,2,020,001,2021-04-22_12h46.22.795,searchDisc4,2020.2.10,MacIntel,60,,,space,0.471,2,1,0.648,,0,5,5,346,1,2b,4,1,31,
,,,,,,,,,,,,,,,,,,,,,,,,,,images/exp2b_trial_28_colour2_distractors31_l.png,l,1,020,001,2021-04-22_12h46.22.795,searchDisc4,2020.2.10,MacIntel,60,,,space,0.432,1,1,0.58,,0,6,6,370,1,2b,28,2,31,
,,,,,,,,,,,,,,,,,,,,,,,,,,images/exp2a_trial_57_colour1_distractors4_l.png,l,1,020,001,2021-04-22_12h46.22.795,searchDisc4,2020.2.10,MacIntel,60,,,space,0.499,1,1,0.612,,0,7,7,285,1,2a,57,1,4,
,,,,,,,,,,,,,,,,,,,,,,,,,,images/exp1a_trial_19_colour1_distractors4_l.png,l,1,020,001,2021-04-22_12h46.22.795,searchDisc4,2020.2.10,MacIntel,60,,,space,0.533,1,1,0.544,,0,8,8,19,1,1a,19,1,4,
,,,,,,,,,,,,,,,,,,,,,,,,,,images/exp2a_trial_71_colour3_distractors19_l.png,l,1,020,001,2021-04-22_12h46.22.795,searchDisc4,2020.2.10,MacIntel,60,,,space,0.502,1,1,0.583,,0,9,9,299,1,2a,71,3,19,
,,,,,,,,,,,,,,,,,,,,,,,,,,images/exp1a_trial_26_colour2_distractors9_l.png,l,1,020,001,2021-04-22_12h46.22.795,searchDisc4,2020.2.10,MacIntel,60,,,space,0.436,1,1,0.687,,0,10,10,26,1,1a,26,2,9,
,,,,,,,,,,,,,,,,,,,,,,,,,,images/exp1a_trial_107_colour3_distractors4_l.png,l,1,020,001,2021-04-22_12h46.22.795,searchDisc4,2020.2.10,MacIntel,60,,,space,0.538,1,1,0.582,,0,11,11,107,1,1a,107,3,4,
,,,,,,,,,,,,,,,,,,,,,,,,,,images/exp1a_trial_112_colour0_distractors0_r.png,r,2,020,001,2021-04-22_12h46.22.795,searchDisc4,2020.2.10,MacIntel,60,,,space,0.667,2,1,0.583,,0,12,12,112,1,1a,112,0,0,
,,,,,,,,,,,,,,,,,,,,,,,,,,images/exp1a_trial_40_colour1_distractors9_r.png,r,2,020,001,2021-04-22_12h46.22.795,searchDisc4,2020.2.10,MacIntel,60,,,space,0.4,2,1,0.511,,0,13,13,40,1,1a,40,1,9,
,,,,,,,,,,,,,,,,,,,,,,,,,,images/exp1a_trial_16_colour3_distractors31_r.png,r,2,020,001,2021-04-22_12h46.22.795,searchDisc4,2020.2.10,MacIntel,60,,,space,0.434,2,1,0.78,,0,14,14,16,1,1a,16,3,31,
,,,,,,,,,,,,,,,,,,,,,,,,,,images/exp1b_trial_74_colour0_distractors0_r.png,r,2,020,001,2021-04-22_12h46.22.795,searchDisc4,2020.2.10,MacIntel,60,,,space,0.401,2,1,0.482,,0,15,15,188,1,1b,74,0,0,
,,,,,,,,,,,,,,,,,,,,,,,,,,images/exp2a_trial_78_colour1_distractors9_r.png,r,2,020,001,2021-04-22_12h46.22.795,searchDisc4,2020.2.10,MacIntel,60,,,space,0.535,2,1,0.577,,0,16,16,306,1,2a,78,1,9,
,,,,,,,,,,,,,,,,,,,,,,,,,,images/exp1b_trial_106_colour3_distractors1_l.png,l,1,020,001,2021-04-22_12h46.22.795,searchDisc4,2020.2.10,MacIntel,60,,,space,0.405,1,1,0.578,,0,17,17,220,1,1b,106,3,1,
,,,,,,,,,,,,,,,,,,,,,,,,,,images/exp2c_trial_109_colour3_distractors19_l.png,l,1,020,001,2021-04-22_12h46.22.795,searchDisc4,2020.2.10,MacIntel,60,,,space,0.432,1,1,0.576,,0,18,18,565,1,2c,109,3,19,
,,,,,,,,,,,,,,,,,,,,,,,,,,images/exp2c_trial_40_colour1_distractors9_r.png,r,2,020,001,2021-04-22_12h46.22.795,searchDisc4,2020.2.10,MacIntel,60,,,space,0.401,2,1,0.52,,0,19,19,496,1,2c,40,1,9,
,,,,,,,,,,,,,,,,,,,,,,,,,,images/exp2c_trial_8_colour2_distractors9_r.png,r,2,020,001,2021-04-22_12h46.22.795,searchDisc4,2020.2.10,MacIntel,60,,,space,0.444,2,1,0.614,,0,20,20,464,1,2c,8,2,9,
,,,,,,,,,,,,,,,,,,,,,,,,,,images/exp2c_trial_83_colour2_distractors4_r.png,r,2,020,001,2021-04-22_12h46.22.795,searchDisc4,2020.2.10,MacIntel,60,,,space,0.401,2,1,0.518,,0,21,21,539,1,2c,83,2,4,
,,,,,,,,,,,,,,,,,,,,,,,,,,images/exp1b_trial_9_colour2_distractors19_r.png,r,2,020,001,2021-04-22_12h46.22.795,searchDisc4,2020.2.10,MacIntel,60,,,space,0.404,2,1,0.843,,0,22,22,123,1,1b,9,2,19,
,,,,,,,,,,,,,,,,,,,,,,,,,,images/exp2a_trial_80_colour1_distractors31_r.png,r,2,020,001,2021-04-22_12h46.22.795,searchDisc4,2020.2.10,MacIntel,60,,,space,0.4,2,1,0.545,,0,23,23,308,1,2a,80,1,31,
,,,,,,,,,,,,,,,,,,,,,,,,,,images/exp2b_trial_15_colour3_distractors19_r.png,r,2,020,001,2021-04-22_12h46.22.795,searchDisc4,2020.2.10,MacIntel,60,,,space,0.434,2,1,0.778,,0,24,24,357,1,2b,15,3,19,
,,,,,,,,,,,,,,,,,,,,,,,,,,images/exp1b_trial_25_colour2_distractors4_l.png,l,1,020,001,2021-04-22_12h46.22.795,searchDisc4,2020.2.10,MacIntel,60,,,space,0.37,1,1,0.716,,0,25,25,139,1,1b,25,2,4,
,,,,,,,,,,,,,,,,,,,,,,,,,,images/exp2a_trial_35_colour3_distractors43_l.png,l,1,020,001,2021-04-22_12h46.22.795,searchDisc4,2020.2.10,MacIntel,60,,,space,0.434,1,1,0.547,,0,26,26,263,1,2a,35,3,43,
,,,,,,,,,,,,,,,,,,,,,,,,,,images/exp2c_trial_6_colour2_distractors1_r.png,r,2,020,001,2021-04-22_12h46.22.795,searchDisc4,2020.2.10,MacIntel,60,,,space,0.409,1,0,0.61,,0,27,27,462,1,2c,6,2,1,
,,,,,,,,,,,,,,,,,,,,,,,,,,images/exp1b_trial_8_colour2_distractors9_r.png,r,2,020,001,2021-04-22_12h46.22.795,searchDisc4,2020.2.10,MacIntel,60,,,space,0.5,2,1,0.778,,0,28,28,122,1,1b,8,2,9,
,,,,,,,,,,,,,,,,,,,,,,,,,,images/exp1a_trial_105_colour2_distractors43_l.png,l,1,020,001,2021-04-22_12h46.22.795,searchDisc4,2020.2.10,MacIntel,60,,,space,0.4,1,1,0.611,,0,29,29,105,1,1a,105,2,43,
,,,,,,,,,,,,,,,,,,,,,,,,,,images/exp2a_trial_51_colour3_distractors4_r.png,r,2,020,001,2021-04-22_12h46.22.795,searchDisc4,2020.2.10,MacIntel,60,,,space,0.334,2,1,0.511,,0,30,30,279,1,2a,51,3,4,
,,,,,,,,,,,,,,,,,,,,,,,,,,images/exp1b_trial_66_colour2_distractors31_l.png,l,1,020,001,2021-04-22_12h46.22.795,searchDisc4,2020.2.10,MacIntel,60,,,space,0.401,1,1,0.645,,0,31,31,180,1,1b,66,2,31,
,,,,,,,,,,,,,,,,,,,,,,,,,,images/exp2a_trial_82_colour2_distractors1_r.png,r,2,020,001,2021-04-22_12h46.22.795,searchDisc4,2020.2.10,MacIntel,60,,,space,0.403,2,1,0.544,,0,32,32,310,1,2a,82,2,1,
,,,,,,,,,,,,,,,,,,,,,,,,,,images/exp1a_trial_94_colour1_distractors1_l.png,l,1,020,001,2021-04-22_12h46.22.795,searchDisc4,2020.2.10,MacIntel,60,,,space,0.367,1,1,0.648,,0,33,33,94,1,1a,94,1,1,
,,,,,,,,,,,,,,,,,,,,,,,,,,images/exp2c_trial_13_colour3_distractors4_r.png,r,2,020,001,2021-04-22_12h46.22.795,searchDisc4,2020.2.10,MacIntel,60,,,space,0.366,2,1,0.645,,0,34,34,469,1,2c,13,3,4,
,,,,,,,,,,,,,,,,,,,,,,,,,,images/exp1a_trial_61_colour1_distractors43_l.png,l,1,020,001,2021-04-22_12h46.22.795,searchDisc4,2020.2.10,MacIntel,60,,,space,0.405,1,1,0.744,,0,35,35,61,1,1a,61,1,43,
,,,,,,,,,,,,,,,,,,,,,,,,,,images/exp2c_trial_76_colour1_distractors1_r.png,r,2,020,001,2021-04-22_12h46.22.795,searchDisc4,2020.2.10,MacIntel,60,,,space,0.368,2,1,0.512,,0,36,36,532,1,2c,76,1,1,
,,,,,,,,,,,,,,,,,,,,,,,,,,images/exp2c_trial_18_colour1_distractors1_l.png,l,1,020,001,2021-04-22_12h46.22.795,searchDisc4,2020.2.10,MacIntel,60,,,space,0.304,1,1,0.511,,0,37,37,474,1,2c,18,1,1,
,,,,,,,,,,,,,,,,,,,,,,,,,,images/exp2b_trial_0_colour1_distractors1_r.png,r,2,020,001,2021-04-22_12h46.22.795,searchDisc4,2020.2.10,MacIntel,60,,,space,0.299,2,1,0.519,,0,38,38,342,1,2b,0,1,1,
,,,,,,,,,,,,,,,,,,,,,,,,,,images/exp2b_trial_13_colour3_distractors4_r.png,r,2,020,001,2021-04-22_12h46.22.795,searchDisc4,2020.2.10,MacIntel,60,,,space,0.336,2,1,0.646,,0,39,39,355,1,2b,13,3,4,
,,,,,,,,,,,,,,,,,,,,,,,,,,images/exp1b_trial_0_colour1_distractors1_r.png,r,2,020,001,2021-04-22_12h46.22.795,searchDisc4,2020.2.10,MacIntel,60,,,space,0.37,2,1,0.511,,0,40,40,114,1,1b,0,1,1,
,,,,,,,,,,,,,,,,,,,,,,,,,,images/exp2a_trial_103_colour2_distractors19_l.png,l,1,020,001,2021-04-22_12h46.22.795,searchDisc4,2020.2.10,MacIntel,60,,,space,0.301,1,1,0.577,,0,41,41,331,1,2a,103,2,19,
,,,,,,,,,,,,,,,,,,,,,,,,,,images/exp2c_trial_42_colour1_distractors31_r.png,r,2,020,001,2021-04-22_12h46.22.795,searchDisc4,2020.2.10,MacIntel,60,,,space,0.369,2,1,0.577,,0,42,42,498,1,2c,42,1,31,
,,,,,,,,,,,,,,,,,,,,,,,,,,images/exp2a_trial_95_colour1_distractors4_l.png,l,1,020,001,2021-04-22_12h46.22.795,searchDisc4,2020.2.10,MacIntel,60,,,space,0.264,1,1,0.577,,0,43,43,323,1,2a,95,1,4,
,,,,,,,,,,,,,,,,,,,,,,,,,,images/exp1a_trial_111_colour3_distractors43_l.png,l,1,020,001,2021-04-22_12h46.22.795,searchDisc4,2020.2.10,MacIntel,60,,,space,0.371,1,1,0.612,,0,44,44,111,1,1a,111,3,43,
,,,,,,,,,,,,,,,,,,,,,,,,,,images/exp1a_trial_70_colour3_distractors9_l.png,l,1,020,001,2021-04-22_12h46.22.795,searchDisc4,2020.2.10,MacIntel,60,,,space,0.401,1,1,0.511,,0,45,45,70,1,1a,70,3,9,
,,,,,,,,,,,,,,,,,,,,,,,,,,images/exp2b_trial_39_colour1_distractors4_r.png,r,2,020,001,2021-04-22_12h46.22.795,searchDisc4,2020.2.10,MacIntel,60,,,space,0.299,2,1,0.577,,0,46,46,381,1,2b,39,1,4,
,,,,,,,,,,,,,,,,,,,,,,,,,,images/exp2c_trial_67_colour2_distractors43_l.png,l,1,020,001,2021-04-22_12h46.22.795,searchDisc4,2020.2.10,MacIntel,60,,,space,0.367,1,1,0.579,,0,47,47,523,1,2c,67,2,43,
,,,,,,,,,,,,,,,,,,,,,,,,,,images/exp1a_trial_22_colour1_distractors31_l.png,l,1,020,001,2021-04-22_12h46.22.795,searchDisc4,2020.2.10,MacIntel,60,,,space,0.366,1,1,0.545,,0,48,48,22,1,1a,22,1,31,
,,,,,,,,,,,,,,,,,,,,,,,,,,images/exp2a_trial_40_colour1_distractors9_r.png,r,2,020,001,2021-04-22_12h46.22.795,searchDisc4,2020.2.10,MacIntel,60,,,space,0.333,2,1,0.511,,0,49,49,268,1,2a,40,1,9,
,,,,,,,,,,,,,,,,,,,,,,,,,,images/exp1a_trial_57_colour1_distractors4_l.png,l,1,020,001,2021-04-22_12h46.22.795,searchDisc4,2020.2.10,MacIntel,60,,,space,0.3,1,1,0.512,,0,50,50,57,1,1a,57,1,4,
,,,,,,,,,,,,,,,,,,,,,,,,,,images/exp2a_trial_7_colour2_distractors4_r.png,r,2,020,001,2021-04-22_12h46.22.795,searchDisc4,2020.2.10,MacIntel,60,,,space,0.368,2,1,0.511,,0,51,51,235,1,2a,7,2,4,
,,,,,,,,,,,,,,,,,,,,,,,,,,images/exp2b_trial_66_colour2_distractors31_l.png,l,1,020,001,2021-04-22_12h46.22.795,searchDisc4,2020.2.10,MacIntel,60,,,space,0.265,1,1,0.511,,0,52,52,408,1,2b,66,2,31,
,,,,,,,,,,,,,,,,,,,,,,,,,,images/exp2b_trial_1_colour1_distractors4_r.png,r,2,020,001,2021-04-22_12h46.22.795,searchDisc4,2020.2.10,MacIntel,60,,,space,0.332,2,1,0.545,,0,53,53,343,1,2b,1,1,4,
,,,,,,,,,,,,,,,,,,,,,,,,,,images/exp1a_trial_45_colour2_distractors4_r.png,r,2,020,001,2021-04-22_12h46.22.795,searchDisc4,2020.2.10,MacIntel,60,,,space,0.3,2,1,0.511,,0,54,54,45,1,1a,45,2,4,
,,,,,,,,,,,,,,,,,,,,,,,,,,images/exp2a_trial_33_colour3_distractors19_l.png,l,1,020,001,2021-04-22_12h46.22.795,searchDisc4,2020.2.10,MacIntel,60,,,space,0.304,1,1,0.575,,0,55,55,261,1,2a,33,3,19,
,,,,,,,,,,,,,,,,,,,,,,,,,,images/exp2b_trial_112_colour0_distractors0_r.png,r,2,020,001,2021-04-22_12h46.22.795,searchDisc4,2020.2.10,MacIntel,60,,,space,0.332,2,1,0.579,,0,56,56,454,1,2b,112,0,0,
,,,,,,,,,,,,,,,,,,,,,,,,,,images/exp2b_trial_38_colour1_distractors1_r.png,r,2,020,001,2021-04-22_12h46.22.795,searchDisc4,2020.2.10,MacIntel,60,,,space,0.337,2,1,0.511,,0,57,57,380,1,2b,38,1,1,
,,,,,,,,,,,,,,,,,,,,,,,,,,images/exp2a_trial_26_colour2_distractors9_l.png,l,1,020,001,2021-04-22_12h46.22.795,searchDisc4,2020.2.10,MacIntel,60,,,space,0.278,1,1,0.512,,0,58,58,254,1,2a,26,2,9,
,,,,,,,,,,,,,,,,,,,,,,,,,,images/exp1b_trial_41_colour1_distractors19_r.png,r,2,020,001,2021-04-22_12h46.22.795,searchDisc4,2020.2.10,MacIntel,60,,,space,0.299,2,1,0.744,space,0,59,59,155,1,1b,41,1,19,0.255
,,,,,,,,,,,,,,,,,,,,,,,,,,images/exp2c_trial_87_colour2_distractors43_r.png,r,2,020,001,2021-04-22_12h46.22.795,searchDisc4,2020.2.10,MacIntel,60,,,space,0.77,2,1,0.618,,0,60,60,543,1,2c,87,2,43,
,,,,,,,,,,,,,,,,,,,,,,,,,,images/exp1a_trial_104_colour2_distractors31_l.png,l,1,020,001,2021-04-22_12h46.22.795,searchDisc4,2020.2.10,MacIntel,60,,,space,0.333,1,1,0.578,,0,61,61,104,1,1a,104,2,31,
,,,,,,,,,,,,,,,,,,,,,,,,,,images/exp2c_trial_49_colour2_distractors43_r.png,r,2,020,001,2021-04-22_12h46.22.795,searchDisc4,2020.2.10,MacIntel,60,,,space,0.304,2,1,0.545,,0,62,62,505,1,2c,49,2,43,
,,,,,,,,,,,,,,,,,,,,,,,,,,images/exp2a_trial_69_colour3_distractors4_l.png,l,1,020,001,2021-04-22_12h46.22.795,searchDisc4,2020.2.10,MacIntel,60,,,space,0.368,1,1,0.515,,0,63,63,297,1,2a,69,3,4,
,,,,,,,,,,,,,,,,,,,,,,,,,,images/exp2b_trial_69_colour3_distractors4_l.png,l,1,020,001,2021-04-22_12h46.22.795,searchDisc4,2020.2.10,MacIntel,60,,,space,0.433,1,1,0.614,,0,64,64,411,1,2b,69,3,4,
,,,,,,,,,,,,,,,,,,,,,,,,,,images/exp1b_trial_44_colour2_distractors1_r.png,r,2,020,001,2021-04-22_12h46.22.795,searchDisc4,2020.2.10,MacIntel,60,,,space,0.333,2,1,0.678,,0,65,65,158,1,1b,44,2,1,
,,,,,,,,,,,,,,,,,,,,,,,,,,images/exp2a_trial_59_colour1_distractors19_l.png,l,1,020,001,2021-04-22_12h46.22.795,searchDisc4,2020.2.10,MacIntel,60,,,space,0.272,1,1,0.514,,0,66,66,287,1,2a,59,1,19,
,,,,,,,,,,,,,,,,,,,,,,,,,,images/exp1a_trial_63_colour2_distractors4_l.png,l,1,020,001,2021-04-22_12h46.22.795,searchDisc4,2020.2.10,MacIntel,60,,,space,0.339,2,0,0.547,,0,67,67,63,1,1a,63,2,4,
,,,,,,,,,,,,,,,,,,,,,,,,,,images/exp2a_trial_46_colour2_distractors9_r.png,r,2,020,001,2021-04-22_12h46.22.795,searchDisc4,2020.2.10,MacIntel,60,,,space,0.433,2,1,0.547,,0,68,68,274,1,2a,46,2,9,
,,,,,,,,,,,,,,,,,,,,,,,,,,images/exp1b_trial_71_colour3_distractors19_l.png,l,1,020,001,2021-04-22_12h46.22.795,searchDisc4,2020.2.10,MacIntel,60,,,space,0.303,1,1,1.051,,0,69,69,185,1,1b,71,3,19,
,,,,,,,,,,,,,,,,,,,,,,,,,,images/exp1a_trial_39_colour1_distractors4_r.png,r,2,020,001,2021-04-22_12h46.22.795,searchDisc4,2020.2.10,MacIntel,60,,,space,0.299,2,1,0.743,,0,70,70,39,1,1a,39,1,4,
,,,,,,,,,,,,,,,,,,,,,,,,,,images/exp1b_trial_105_colour2_distractors43_l.png,l,1,020,001,2021-04-22_12h46.22.795,searchDisc4,2020.2.10,MacIntel,60,,,space,0.24,1,1,0.944,,0,71,71,219,1,1b,105,2,43,
,,,,,,,,,,,,,,,,,,,,,,,,,,images/exp2c_trial_0_colour1_distractors1_r.png,r,2,020,001,2021-04-22_12h46.22.795,searchDisc4,2020.2.10,MacIntel,60,,,space,0.402,2,1,0.515,,0,72,72,456,1,2c,0,1,1,
,,,,,,,,,,,,,,,,,,,,,,,,,,images/exp2c_trial_55_colour3_distractors43_r.png,r,2,020,001,2021-04-22_12h46.22.795,searchDisc4,2020.2.10,MacIntel,60,,,space,0.302,2,1,0.579,,0,73,73,511,1,2c,55,3,43,
,,,,,,,,,,,,,,,,,,,,,,,,,,images/exp1a_trial_74_colour0_distractors0_r.png,r,2,020,001,2021-04-22_12h46.22.795,searchDisc4,2020.2.10,MacIntel,60,,,space,0.332,2,1,0.514,,0,74,74,74,1,1a,74,0,0,
,,,,,,,,,,,,,,,,,,,,,,,,,,images/exp1a_trial_64_colour2_distractors9_l.png,l,1,020,001,2021-04-22_12h46.22.795,searchDisc4,2020.2.10,MacIntel,60,,,space,0.338,1,1,0.615,,0,75,75,64,1,1a,64,2,9,
,,,,,,,,,,,,,,,,,,,,,,,,,,images/exp2b_trial_21_colour1_distractors19_l.png,l,1,020,001,2021-04-22_12h46.22.795,searchDisc4,2020.2.10,MacIntel,60,,,space,0.369,1,1,0.644,,0,76,76,363,1,2b,21,1,19,
,,,,,,,,,,,,,,,,,,,,,,,,,,images/exp2a_trial_2_colour1_distractors9_r.png,r,2,020,001,2021-04-22_12h46.22.795,searchDisc4,2020.2.10,MacIntel,60,,,space,0.334,2,1,0.581,,0,77,77,230,1,2a,2,1,9,
,,,,,,,,,,,,,,,,,,,,,,,,,,images/exp1b_trial_50_colour3_distractors1_r.png,r,2,020,001,2021-04-22_12h46.22.795,searchDisc4,2020.2.10,MacIntel,60,,,space,0.333,2,1,0.716,,0,78,78,164,1,1b,50,3,1,
,,,,,,,,,,,,,,,,,,,,,,,,,,images/exp2c_trial_14_colour3_distractors9_r.png,r,2,020,001,2021-04-22_12h46.22.795,searchDisc4,2020.2.10,MacIntel,60,,,space,0.335,2,1,0.644,,0,79,79,470,1,2c,14,3,9,
,,,,,,,,,,,,,,,,,,,,,,,,,,images/exp2b_trial_79_colour1_distractors19_r.png,r,2,020,001,2021-04-22_12h46.22.795,searchDisc4,2020.2.10,MacIntel,60,,,space,0.332,2,1,0.616,,0,80,80,421,1,2b,79,1,19,
,,,,,,,,,,,,,,,,,,,,,,,,,,images/exp2c_trial_63_colour2_distractors4_l.png,l,1,020,001,2021-04-22_12h46.22.795,searchDisc4,2020.2.10,MacIntel,60,,,space,0.338,1,1,0.548,,0,81,81,519,1,2c,63,2,4,
,,,,,,,,,,,,,,,,,,,,,,,,,,images/exp2a_trial_27_colour2_distractors19_l.png,l,1,020,001,2021-04-22_12h46.22.795,searchDisc4,2020.2.10,MacIntel,60,,,space,0.308,1,1,0.553,,0,82,82,255,1,2a,27,2,19,
,,,,,,,,,,,,,,,,,,,,,,,,,,images/exp2b_trial_104_colour2_distractors31_l.png,l,1,020,001,2021-04-22_12h46.22.795,searchDisc4,2020.2.10,MacIntel,60,,,space,0.333,1,1,0.578,,0,83,83,446,1,2b,104,2,31,
,,,,,,,,,,,,,,,,,,,,,,,,,,images/exp1a_trial_21_colour1_distractors19_l.png,l,1,020,001,2021-04-22_12h46.22.795,searchDisc4,2020.2.10,MacIntel,60,,,space,0.333,1,1,0.712,,0,84,84,21,1,1a,21,1,19,
,,,,,,,,,,,,,,,,,,,,,,,,,,images/exp2b_trial_58_colour1_distractors9_l.png,l,1,020,001,2021-04-22_12h46.22.795,searchDisc4,2020.2.10,MacIntel,60,,,space,0.333,1,1,0.545,,0,85,85,400,1,2b,58,1,9,
,,,,,,,,,,,,,,,,,,,,,,,,,,images/exp2b_trial_94_colour1_distractors1_l.png,l,1,020,001,2021-04-22_12h46.22.795,searchDisc4,2020.2.10,MacIntel,60,,,space,0.333,1,1,0.581,,0,86,86,436,1,2b,94,1,1,
,,,,,,,,,,,,,,,,,,,,,,,,,,images/exp2b_trial_30_colour3_distractors1_l.png,l,1,020,001,2021-04-22_12h46.22.795,searchDisc4,2020.2.10,MacIntel,60,,,space,0.307,1,1,0.678,,0,87,87,372,1,2b,30,3,1,
,,,,,,,,,,,,,,,,,,,,,,,,,,images/exp2a_trial_67_colour2_distractors43_l.png,l,1,020,001,2021-04-22_12h46.22.795,searchDisc4,2020.2.10,MacIntel,60,,,space,0.302,1,1,0.676,,0,88,88,295,1,2a,67,2,43,
,,,,,,,,,,,,,,,,,,,,,,,,,,images/exp1a_trial_97_colour1_distractors19_l.png,l,1,020,001,2021-04-22_12h46.22.795,searchDisc4,2020.2.10,MacIntel,60,,,space,0.341,1,1,0.718,,0,89,89,97,1,1a,97,1,19,
,,,,,,,,,,,,,,,,,,,,,,,,,,images/exp2a_trial_64_colour2_distractors9_l.png,l,1,020,001,2021-04-22_12h46.22.795,searchDisc4,2020.2.10,MacIntel,60,,,space,0.37,1,1,0.548,,0,90,90,292,1,2a,64,2,9,
,,,,,,,,,,,,,,,,,,,,,,,,,,images/exp2a_trial_100_colour2_distractors1_l.png,l,1,020,001,2021-04-22_12h46.22.795,searchDisc4,2020.2.10,MacIntel,60,,,space,0.271,1,1,0.511,,0,91,91,328,1,2a,100,2,1,
,,,,,,,,,,,,,,,,,,,,,,,,,,images/exp2c_trial_15_colour3_distractors19_r.png,r,2,020,001,2021-04-22_12h46.22.795,searchDisc4,2020.2.10,MacIntel,60,,,space,0.336,1,0,0.577,,0,92,92,471,1,2c,15,3,19,
,,,,,,,,,,,,,,,,,,,,,,,,,,images/exp1b_trial_53_colour3_distractors19_r.png,r,2,020,001,2021-04-22_12h46.22.795,searchDisc4,2020.2.10,MacIntel,60,,,space,0.409,2,1,0.745,,0,93,93,167,1,1b,53,3,19,
,,,,,,,,,,,,,,,,,,,,,,,,,,images/exp1a_trial_10_colour2_distractors31_r.png,r,2,020,001,2021-04-22_12h46.22.795,searchDisc4,2020.2.10,MacIntel,60,,,space,0.238,2,1,0.578,,0,94,94,10,1,1a,10,2,31,
,,,,,,,,,,,,,,,,,,,,,,,,,,images/exp2a_trial_17_colour3_distractors43_r.png,r,2,020,001,2021-04-22_12h46.22.795,searchDisc4,2020.2.10,MacIntel,60,,,space,0.301,2,1,0.943,,0,95,95,245,1,2a,17,3,43,
,,,,,,,,,,,,,,,,,,,,,,,,,,images/exp1a_trial_44_colour2_distractors1_r.png,r,2,020,001,2021-04-22_12h46.22.795,searchDisc4,2020.2.10,MacIntel,60,,,space,0.267,2,1,0.544,,0,96,96,44,1,1a,44,2,1,
,,,,,,,,,,,,,,,,,,,,,,,,,,images/exp1b_trial_34_colour3_distractors31_l.png,l,1,020,001,2021-04-22_12h46.22.795,searchDisc4,2020.2.10,MacIntel,60,,,space,0.302,1,1,0.678,,0,97,97,148,1,1b,34,3,31,
,,,,,,,,,,,,,,,,,,,,,,,,,,images/exp1a_trial_51_colour3_distractors4_r.png,r,2,020,001,2021-04-22_12h46.22.795,searchDisc4,2020.2.10,MacIntel,60,,,space,0.24,2,1,0.585,,0,98,98,51,1,1a,51,3,4,
,,,,,,,,,,,,,,,,,,,,,,,,,,images/exp1a_trial_7_colour2_distractors4_r.png,r,2,020,001,2021-04-22_12h46.22.795,searchDisc4,2020.2.10,MacIntel,60,,,space,0.332,2,1,0.578,,0,99,99,7,1,1a,7,2,4,
,,,,,,,,,,,,,,,,,,,,,,,,,,images/exp1b_trial_1_colour1_distractors4_r.png,r,2,020,001,2021-04-22_12h46.22.795,searchDisc4,2020.2.10,MacIntel,60,,,space,0.302,2,1,0.58,,0,100,100,115,1,1b,1,1,4,
,,,,,,,,,,,,,,,,,,,,,,,,,,images/exp1a_trial_29_colour2_distractors43_l.png,l,1,020,001,2021-04-22_12h46.22.795,searchDisc4,2020.2.10,MacIntel,60,,,space,0.267,1,1,0.615,,0,101,101,29,1,1a,29,2,43,
,,,,,,,,,,,,,,,,,,,,,,,,,,images/exp1b_trial_37_colour0_distractors0_l.png,l,1,020,001,2021-04-22_12h46.22.795,searchDisc4,2020.2.10,MacIntel,60,,,space,0.301,1,1,0.509,,0,102,102,151,1,1b,37,0,0,
,,,,,,,,,,,,,,,,,,,,,,,,,,images/exp2c_trial_12_colour3_distractors1_r.png,r,2,020,001,2021-04-22_12h46.22.795,searchDisc4,2020.2.10,MacIntel,60,,,space,0.271,2,1,0.548,,0,103,103,468,1,2c,12,3,1,
,,,,,,,,,,,,,,,,,,,,,,,,,,images/exp2c_trial_25_colour2_distractors4_l.png,l,1,020,001,2021-04-22_12h46.22.795,searchDisc4,2020.2.10,MacIntel,60,,,space,0.367,1,1,0.547,,0,104,104,481,1,2c,25,2,4,
,,,,,,,,,,,,,,,,,,,,,,,,,,images/exp1b_trial_67_colour2_distractors43_l.png,l,1,020,001,2021-04-22_12h46.22.795,searchDisc4,2020.2.10,MacIntel,60,,,space,0.303,1,1,0.91,,0,105,105,181,1,1b,67,2,43,
,,,,,,,,,,,,,,,,,,,,,,,,,,images/exp2a_trial_105_colour2_distractors43_l.png,l,1,020,001,2021-04-22_12h46.22.795,searchDisc4,2020.2.10,MacIntel,60,,,space,0.434,1,1,0.577,,0,106,106,333,1,2a,105,2,43,
,,,,,,,,,,,,,,,,,,,,,,,,,,images/exp1b_trial_110_colour3_distractors31_l.png,l,1,020,001,2021-04-22_12h46.22.795,searchDisc4,2020.2.10,MacIntel,60,,,space,0.303,1,1,1.081,,0,107,107,224,1,1b,110,3,31,
,,,,,,,,,,,,,,,,,,,,,,,,,,images/exp1b_trial_2_colour1_distractors9_r.png,r,2,020,001,2021-04-22_12h46.22.795,searchDisc4,2020.2.10,MacIntel,60,,,space,0.4,2,1,0.543,,0,108,108,116,1,1b,2,1,9,
,,,,,,,,,,,,,,,,,,,,,,,,,,images/exp1b_trial_18_colour1_distractors1_l.png,l,1,020,001,2021-04-22_12h46.22.795,searchDisc4,2020.2.10,MacIntel,60,,,space,1.933,1,1,0.678,,0,109,109,132,1,1b,18,1,1,
,,,,,,,,,,,,,,,,,,,,,,,,,,images/exp2b_trial_97_colour1_distractors19_l.png,l,1,020,001,2021-04-22_12h46.22.795,searchDisc4,2020.2.10,MacIntel,60,,,space,0.4,1,1,0.478,,0,110,110,439,1,2b,97,1,19,
,,,,,,,,,,,,,,,,,,,,,,,,,,images/exp1a_trial_99_colour1_distractors43_l.png,l,1,020,001,2021-04-22_12h46.22.795,searchDisc4,2020.2.10,MacIntel,60,,,space,0.366,1,1,0.61,,0,111,111,99,1,1a,99,1,43,
,,,,,,,,,,,,,,,,,,,,,,,,,,images/exp1a_trial_72_colour3_distractors31_l.png,l,1,020,001,2021-04-22_12h46.22.795,searchDisc4,2020.2.10,MacIntel,60,,,space,0.306,1,1,0.576,,0,112,112,72,1,1a,72,3,31,
,,,,,,,,,,,,,,,,,,,,,,,,,,images/exp1a_trial_31_colour3_distractors4_l.png,l,1,020,001,2021-04-22_12h46.22.795,searchDisc4,2020.2.10,MacIntel,60,,,space,0.334,1,1,0.51,,0,113,113,31,1,1a,31,3,4,
,,,,,,,,,,,,,,,,,,,,,,,,,,images/exp2c_trial_96_colour1_distractors9_l.png,l,1,020,001,2021-04-22_12h46.22.795,searchDisc4,2020.2.10,MacIntel,60,,,space,0.303,1,1,0.485,,0,114,114,552,1,2c,96,1,9,
,,,,,,,,,,,,,,,,,,,,,,,,,,images/exp1a_trial_37_colour0_distractors0_l.png,l,1,020,001,2021-04-22_12h46.22.795,searchDisc4,2020.2.10,MacIntel,60,,,space,0.302,1,1,0.511,,0,115,115,37,1,1a,37,0,0,
,,,,,,,,,,,,,,,,,,,,,,,,,,images/exp1b_trial_29_colour2_distractors43_l.png,l,1,020,001,2021-04-22_12h46.22.795,searchDisc4,2020.2.10,MacIntel,60,,,space,0.301,1,1,0.784,,0,116,116,143,1,1b,29,2,43,
,,,,,,,,,,,,,,,,,,,,,,,,,,images/exp2a_trial_8_colour2_distractors9_r.png,r,2,020,001,2021-04-22_12h46.22.795,searchDisc4,2020.2.10,MacIntel,60,,,space,0.399,2,1,0.614,,0,117,117,236,1,2a,8,2,9,
,,,,,,,,,,,,,,,,,,,,,,,,,,images/exp1a_trial_59_colour1_distractors19_l.png,l,1,020,001,2021-04-22_12h46.22.795,searchDisc4,2020.2.10,MacIntel,60,,,space,0.37,1,1,0.547,,0,118,118,59,1,1a,59,1,19,
,,,,,,,,,,,,,,,,,,,,,,,,,,images/exp1b_trial_77_colour1_distractors4_r.png,r,2,020,001,2021-04-22_12h46.22.795,searchDisc4,2020.2.10,MacIntel,60,,,space,0.334,2,1,0.545,space,0,119,119,191,1,1b,77,1,4,0.318
,,,,,,,,,,,,,,,,,,,,,,,,,,images/exp1a_trial_46_colour2_distractors9_r.png,r,2,020,001,2021-04-22_12h46.22.795,searchDisc4,2020.2.10,MacIntel,60,,,space,1.101,2,1,0.648,,0,120,120,46,1,1a,46,2,9,
,,,,,,,,,,,,,,,,,,,,,,,,,,images/exp2c_trial_32_colour3_distractors9_l.png,l,1,020,001,2021-04-22_12h46.22.795,searchDisc4,2020.2.10,MacIntel,60,,,space,0.3,1,1,0.578,,0,121,121,488,1,2c,32,3,9,
,,,,,,,,,,,,,,,,,,,,,,,,,,images/exp1b_trial_69_colour3_distractors4_l.png,l,1,020,001,2021-04-22_12h46.22.795,searchDisc4,2020.2.10,MacIntel,60,,,space,0.303,1,1,0.576,,0,122,122,183,1,1b,69,3,4,
,,,,,,,,,,,,,,,,,,,,,,,,,,images/exp2c_trial_94_colour1_distractors1_l.png,l,1,020,001,2021-04-22_12h46.22.795,searchDisc4,2020.2.10,MacIntel,60,,,space,0.267,1,1,0.511,,0,123,123,550,1,2c,94,1,1,
,,,,,,,,,,,,,,,,,,,,,,,,,,images/exp1a_trial_6_colour2_distractors1_r.png,r,2,020,001,2021-04-22_12h46.22.795,searchDisc4,2020.2.10,MacIntel,60,,,space,0.337,1,0,0.543,,0,124,124,6,1,1a,6,2,1,
,,,,,,,,,,,,,,,,,,,,,,,,,,images/exp2a_trial_6_colour2_distractors1_r.png,r,2,020,001,2021-04-22_12h46.22.795,searchDisc4,2020.2.10,MacIntel,60,,,space,0.404,2,1,0.447,,0,125,125,234,1,2a,6,2,1,
,,,,,,,,,,,,,,,,,,,,,,,,,,images/exp2c_trial_26_colour2_distractors9_l.png,l,1,020,001,2021-04-22_12h46.22.795,searchDisc4,2020.2.10,MacIntel,60,,,space,0.3,1,1,0.582,,0,126,126,482,1,2c,26,2,9,
,,,,,,,,,,,,,,,,,,,,,,,,,,images/exp1a_trial_0_colour1_distractors1_r.png,r,2,020,001,2021-04-22_12h46.22.795,searchDisc4,2020.2.10,MacIntel,60,,,space,0.276,2,1,0.586,,0,127,127,0,1,1a,0,1,1,
,,,,,,,,,,,,,,,,,,,,,,,,,,images/exp2a_trial_84_colour2_distractors9_r.png,r,2,020,001,2021-04-22_12h46.22.795,searchDisc4,2020.2.10,MacIntel,60,,,space,0.333,2,1,0.578,,0,128,128,312,1,2a,84,2,9,
,,,,,,,,,,,,,,,,,,,,,,,,,,images/exp2b_trial_46_colour2_distractors9_r.png,r,2,020,001,2021-04-22_12h46.22.795,searchDisc4,2020.2.10,MacIntel,60,,,space,0.268,2,1,0.582,,0,129,129,388,1,2b,46,2,9,
,,,,,,,,,,,,,,,,,,,,,,,,,,images/exp2a_trial_60_colour1_distractors31_l.png,l,1,020,001,2021-04-22_12h46.22.795,searchDisc4,2020.2.10,MacIntel,60,,,space,0.372,1,1,0.72,,0,130,130,288,1,2a,60,1,31,
,,,,,,,,,,,,,,,,,,,,,,,,,,images/exp2b_trial_73_colour3_distractors43_l.png,l,1,020,001,2021-04-22_12h46.22.795,searchDisc4,2020.2.10,MacIntel,60,,,space,0.54,1,1,0.513,,0,131,131,415,1,2b,73,3,43,
,,,,,,,,,,,,,,,,,,,,,,,,,,images/exp2b_trial_11_colour2_distractors43_r.png,r,2,020,001,2021-04-22_12h46.22.795,searchDisc4,2020.2.10,MacIntel,60,,,space,0.372,2,1,0.611,,0,132,132,353,1,2b,11,2,43,
,,,,,,,,,,,,,,,,,,,,,,,,,,images/exp1b_trial_31_colour3_distractors4_l.png,l,1,020,001,2021-04-22_12h46.22.795,searchDisc4,2020.2.10,MacIntel,60,,,space,0.334,1,1,0.645,,0,133,133,145,1,1b,31,3,4,
,,,,,,,,,,,,,,,,,,,,,,,,,,images/exp2c_trial_108_colour3_distractors9_l.png,l,1,020,001,2021-04-22_12h46.22.795,searchDisc4,2020.2.10,MacIntel,60,,,space,0.333,1,1,0.611,,0,134,134,564,1,2c,108,3,9,
,,,,,,,,,,,,,,,,,,,,,,,,,,images/exp2a_trial_99_colour1_distractors43_l.png,l,1,020,001,2021-04-22_12h46.22.795,searchDisc4,2020.2.10,MacIntel,60,,,space,0.299,1,1,0.544,,0,135,135,327,1,2a,99,1,43,
,,,,,,,,,,,,,,,,,,,,,,,,,,images/exp1b_trial_90_colour3_distractors9_r.png,r,2,020,001,2021-04-22_12h46.22.795,searchDisc4,2020.2.10,MacIntel,60,,,space,0.299,2,1,0.711,,0,136,136,204,1,1b,90,3,9,
,,,,,,,,,,,,,,,,,,,,,,,,,,images/exp1b_trial_103_colour2_distractors19_l.png,l,1,020,001,2021-04-22_12h46.22.795,searchDisc4,2020.2.10,MacIntel,60,,,space,0.301,1,1,0.816,,0,137,137,217,1,1b,103,2,19,
,,,,,,,,,,,,,,,,,,,,,,,,,,images/exp1b_trial_98_colour1_distractors31_l.png,l,1,020,001,2021-04-22_12h46.22.795,searchDisc4,2020.2.10,MacIntel,60,,,space,0.6,1,1,0.678,,0,138,138,212,1,1b,98,1,31,
,,,,,,,,,,,,,,,,,,,,,,,,,,images/exp2a_trial_90_colour3_distractors9_r.png,r,2,020,001,2021-04-22_12h46.22.795,searchDisc4,2020.2.10,MacIntel,60,,,space,0.264,2,1,0.609,,0,139,139,318,1,2a,90,3,9,
,,,,,,,,,,,,,,,,,,,,,,,,,,images/exp2a_trial_53_colour3_distractors19_r.png,r,2,020,001,2021-04-22_12h46.22.795,searchDisc4,2020.2.10,MacIntel,60,,,space,0.333,2,1,0.643,,0,140,140,281,1,2a,53,3,19,
,,,,,,,,,,,,,,,,,,,,,,,,,,images/exp2b_trial_44_colour2_distractors1_r.png,r,2,020,001,2021-04-22_12h46.22.795,searchDisc4,2020.2.10,MacIntel,60,,,space,0.236,2,1,0.544,,0,141,141,386,1,2b,44,2,1,
,,,,,,,,,,,,,,,,,,,,,,,,,,images/exp2b_trial_83_colour2_distractors4_r.png,r,2,020,001,2021-04-22_12h46.22.795,searchDisc4,2020.2.10,MacIntel,60,,,space,0.266,2,1,0.579,,0,142,142,425,1,2b,83,2,4,
,,,,,,,,,,,,,,,,,,,,,,,,,,images/exp2c_trial_43_colour1_distractors43_r.png,r,2,020,001,2021-04-22_12h46.22.795,searchDisc4,2020.2.10,MacIntel,60,,,space,0.301,2,1,0.611,,0,143,143,499,1,2c,43,1,43,
,,,,,,,,,,,,,,,,,,,,,,,,,,images/exp2a_trial_13_colour3_distractors4_r.png,r,2,020,001,2021-04-22_12h46.22.795,searchDisc4,2020.2.10,MacIntel,60,,,space,0.235,2,1,0.577,,0,144,144,241,1,2a,13,3,4,
,,,,,,,,,,,,,,,,,,,,,,,,,,images/exp1b_trial_113_colour0_distractors0_l.png,l,1,020,001,2021-04-22_12h46.22.795,searchDisc4,2020.2.10,MacIntel,60,,,space,0.299,1,1,0.487,,0,145,145,227,1,1b,113,0,0,
,,,,,,,,,,,,,,,,,,,,,,,,,,images/exp2c_trial_58_colour1_distractors9_l.png,l,1,020,001,2021-04-22_12h46.22.795,searchDisc4,2020.2.10,MacIntel,60,,,space,0.368,1,1,0.51,,0,146,146,514,1,2c,58,1,9,
,,,,,,,,,,,,,,,,,,,,,,,,,,images/exp1a_trial_38_colour1_distractors1_r.png,r,2,020,001,2021-04-22_12h46.22.795,searchDisc4,2020.2.10,MacIntel,60,,,space,0.3,2,1,0.578,,0,147,147,38,1,1a,38,1,1,
,,,,,,,,,,,,,,,,,,,,,,,,,,images/exp2a_trial_111_colour3_distractors43_l.png,l,1,020,001,2021-04-22_12h46.22.795,searchDisc4,2020.2.10,MacIntel,60,,,space,0.299,1,1,0.679,,0,148,148,339,1,2a,111,3,43,
,,,,,,,,,,,,,,,,,,,,,,,,,,images/exp1b_trial_13_colour3_distractors4_r.png,r,2,020,001,2021-04-22_12h46.22.795,searchDisc4,2020.2.10,MacIntel,60,,,space,0.3,2,1,0.743,,0,149,149,127,1,1b,13,3,4,
,,,,,,,,,,,,,,,,,,,,,,,,,,images/exp1b_trial_112_colour0_distractors0_r.png,r,2,020,001,2021-04-22_12h46.22.795,searchDisc4,2020.2.10,MacIntel,60,,,space,0.302,2,1,0.515,,0,150,150,226,1,1b,112,0,0,
,,,,,,,,,,,,,,,,,,,,,,,,,,images/exp2b_trial_106_colour3_distractors1_l.png,l,1,020,001,2021-04-22_12h46.22.795,searchDisc4,2020.2.10,MacIntel,60,,,space,0.3,1,1,0.511,,0,151,151,448,1,2b,106,3,1,
,,,,,,,,,,,,,,,,,,,,,,,,,,images/exp2c_trial_101_colour2_distractors4_l.png,l,1,020,001,2021-04-22_12h46.22.795,searchDisc4,2020.2.10,MacIntel,60,,,space,0.304,1,1,0.546,,0,152,152,557,1,2c,101,2,4,
,,,,,,,,,,,,,,,,,,,,,,,,,,images/exp2c_trial_81_colour1_distractors43_r.png,r,2,020,001,2021-04-22_12h46.22.795,searchDisc4,2020.2.10,MacIntel,60,,,space,0.234,2,1,0.517,,0,153,153,537,1,2c,81,1,43,
,,,,,,,,,,,,,,,,,,,,,,,,,,images/exp1b_trial_87_colour2_distractors43_r.png,r,2,020,001,2021-04-22_12h46.22.795,searchDisc4,2020.2.10,MacIntel,60,,,space,0.271,2,1,0.713,,0,154,154,201,1,1b,87,2,43,
,,,,,,,,,,,,,,,,,,,,,,,,,,images/exp2b_trial_75_colour0_distractors0_l.png,l,1,020,001,2021-04-22_12h46.22.795,searchDisc4,2020.2.10,MacIntel,60,,,space,0.304,1,1,0.477,,0,155,155,417,1,2b,75,0,0,
,,,,,,,,,,,,,,,,,,,,,,,,,,images/exp1a_trial_80_colour1_distractors31_r.png,r,2,020,001,2021-04-22_12h46.22.795,searchDisc4,2020.2.10,MacIntel,60,,,space,0.299,1,0,0.543,,0,156,156,80,1,1a,80,1,31,
,,,,,,,,,,,,,,,,,,,,,,,,,,images/exp1a_trial_113_colour0_distractors0_l.png,l,1,020,001,2021-04-22_12h46.22.795,searchDisc4,2020.2.10,MacIntel,60,,,space,0.399,1,1,0.55,,0,157,157,113,1,1a,113,0,0,
,,,,,,,,,,,,,,,,,,,,,,,,,,images/exp2c_trial_71_colour3_distractors19_l.png,l,1,020,001,2021-04-22_12h46.22.795,searchDisc4,2020.2.10,MacIntel,60,,,space,0.267,1,1,0.778,,0,158,158,527,1,2c,71,3,19,
,,,,,,,,,,,,,,,,,,,,,,,,,,images/exp2c_trial_111_colour3_distractors43_l.png,l,1,020,001,2021-04-22_12h46.22.795,searchDisc4,2020.2.10,MacIntel,60,,,space,0.267,1,1,0.611,,0,159,159,567,1,2c,111,3,43,
,,,,,,,,,,,,,,,,,,,,,,,,,,images/exp2a_trial_104_colour2_distractors31_l.png,l,1,020,001,2021-04-22_12h46.22.795,searchDisc4,2020.2.10,MacIntel,60,,,space,0.234,1,1,0.545,,0,160,160,332,1,2a,104,2,31,
,,,,,,,,,,,,,,,,,,,,,,,,,,images/exp2c_trial_33_colour3_distractors19_l.png,l,1,020,001,2021-04-22_12h46.22.795,searchDisc4,2020.2.10,MacIntel,60,,,space,0.239,1,1,0.511,,0,161,161,489,1,2c,33,3,19,
,,,,,,,,,,,,,,,,,,,,,,,,,,images/exp1b_trial_104_colour2_distractors31_l.png,l,1,020,001,2021-04-22_12h46.22.795,searchDisc4,2020.2.10,MacIntel,60,,,space,0.201,1,1,1.377,,0,162,162,218,1,1b,104,2,31,
,,,,,,,,,,,,,,,,,,,,,,,,,,images/exp2b_trial_42_colour1_distractors31_r.png,r,2,020,001,2021-04-22_12h46.22.795,searchDisc4,2020.2.10,MacIntel,60,,,space,0.332,2,1,0.515,,0,163,163,384,1,2b,42,1,31,
,,,,,,,,,,,,,,,,,,,,,,,,,,images/exp1a_trial_1_colour1_distractors4_r.png,r,2,020,001,2021-04-22_12h46.22.795,searchDisc4,2020.2.10,MacIntel,60,,,space,0.3,2,1,0.511,,0,164,164,1,1,1a,1,1,4,
,,,,,,,,,,,,,,,,,,,,,,,,,,images/exp2b_trial_91_colour3_distractors19_r.png,r,2,020,001,2021-04-22_12h46.22.795,searchDisc4,2020.2.10,MacIntel,60,,,space,0.34,2,1,0.546,,0,165,165,433,1,2b,91,3,19,
,,,,,,,,,,,,,,,,,,,,,,,,,,images/exp2a_trial_94_colour1_distractors1_l.png,l,1,020,001,2021-04-22_12h46.22.795,searchDisc4,2020.2.10,MacIntel,60,,,space,0.377,1,1,0.583,,0,166,166,322,1,2a,94,1,1,
,,,,,,,,,,,,,,,,,,,,,,,,,,images/exp1b_trial_54_colour3_distractors31_r.png,r,2,020,001,2021-04-22_12h46.22.795,searchDisc4,2020.2.10,MacIntel,60,,,space,0.266,2,1,0.978,,0,167,167,168,1,1b,54,3,31,
,,,,,,,,,,,,,,,,,,,,,,,,,,images/exp2b_trial_74_colour0_distractors0_r.png,r,2,020,001,2021-04-22_12h46.22.795,searchDisc4,2020.2.10,MacIntel,60,,,space,0.334,2,1,0.52,,0,168,168,416,1,2b,74,0,0,
,,,,,,,,,,,,,,,,,,,,,,,,,,images/exp2c_trial_86_colour2_distractors31_r.png,r,2,020,001,2021-04-22_12h46.22.795,searchDisc4,2020.2.10,MacIntel,60,,,space,0.304,2,1,0.778,,0,169,169,542,1,2c,86,2,31,
,,,,,,,,,,,,,,,,,,,,,,,,,,images/exp2a_trial_4_colour1_distractors31_r.png,r,2,020,001,2021-04-22_12h46.22.795,searchDisc4,2020.2.10,MacIntel,60,,,space,0.266,2,1,0.611,,0,170,170,232,1,2a,4,1,31,
,,,,,,,,,,,,,,,,,,,,,,,,,,images/exp2c_trial_16_colour3_distractors31_r.png,r,2,020,001,2021-04-22_12h46.22.795,searchDisc4,2020.2.10,MacIntel,60,,,space,0.341,2,1,0.545,,0,171,171,472,1,2c,16,3,31,
,,,,,,,,,,,,,,,,,,,,,,,,,,images/exp1a_trial_52_colour3_distractors9_r.png,r,2,020,001,2021-04-22_12h46.22.795,searchDisc4,2020.2.10,MacIntel,60,,,space,0.265,2,1,0.52,,0,172,172,52,1,1a,52,3,9,
,,,,,,,,,,,,,,,,,,,,,,,,,,images/exp2a_trial_97_colour1_distractors19_l.png,l,1,020,001,2021-04-22_12h46.22.795,searchDisc4,2020.2.10,MacIntel,60,,,space,0.338,1,1,0.552,,0,173,173,325,1,2a,97,1,19,
,,,,,,,,,,,,,,,,,,,,,,,,,,images/exp1b_trial_28_colour2_distractors31_l.png,l,1,020,001,2021-04-22_12h46.22.795,searchDisc4,2020.2.10,MacIntel,60,,,space,0.277,1,1,0.613,,0,174,174,142,1,1b,28,2,31,
,,,,,,,,,,,,,,,,,,,,,,,,,,images/exp2b_trial_61_colour1_distractors43_l.png,l,1,020,001,2021-04-22_12h46.22.795,searchDisc4,2020.2.10,MacIntel,60,,,space,0.366,1,1,0.514,,0,175,175,403,1,2b,61,1,43,
,,,,,,,,,,,,,,,,,,,,,,,,,,images/exp2b_trial_67_colour2_distractors43_l.png,l,1,020,001,2021-04-22_12h46.22.795,searchDisc4,2020.2.10,MacIntel,60,,,space,0.567,1,1,0.582,,0,176,176,409,1,2b,67,2,43,
,,,,,,,,,,,,,,,,,,,,,,,,,,images/exp2c_trial_113_colour0_distractors0_l.png,l,1,020,001,2021-04-22_12h46.22.795,searchDisc4,2020.2.10,MacIntel,60,,,space,0.467,1,1,0.514,,0,177,177,569,1,2c,113,0,0,
,,,,,,,,,,,,,,,,,,,,,,,,,,images/exp2b_trial_63_colour2_distractors4_l.png,l,1,020,001,2021-04-22_12h46.22.795,searchDisc4,2020.2.10,MacIntel,60,,,space,0.275,1,1,0.48,,0,178,178,405,1,2b,63,2,4,
,,,,,,,,,,,,,,,,,,,,,,,,,,images/exp2b_trial_64_colour2_distractors9_l.png,l,1,020,001,2021-04-22_12h46.22.795,searchDisc4,2020.2.10,MacIntel,60,,,space,0.266,1,1,0.61,space,0,179,179,406,1,2b,64,2,9,0.252
,,,,,,,,,,,,,,,,,,,,,,,,,,images/exp1a_trial_98_colour1_distractors31_l.png,l,1,020,001,2021-04-22_12h46.22.795,searchDisc4,2020.2.10,MacIntel,60,,,space,0.7,1,1,0.709,,0,180,180,98,1,1a,98,1,31,
,,,,,,,,,,,,,,,,,,,,,,,,,,images/exp1b_trial_96_colour1_distractors9_l.png,l,1,020,001,2021-04-22_12h46.22.795,searchDisc4,2020.2.10,MacIntel,60,,,space,0.234,1,1,0.614,,0,181,181,210,1,1b,96,1,9,
,,,,,,,,,,,,,,,,,,,,,,,,,,images/exp2c_trial_21_colour1_distractors19_l.png,l,1,020,001,2021-04-22_12h46.22.795,searchDisc4,2020.2.10,MacIntel,60,,,space,0.238,1,1,0.544,,0,182,182,477,1,2c,21,1,19,
,,,,,,,,,,,,,,,,,,,,,,,,,,images/exp2b_trial_54_colour3_distractors31_r.png,r,2,020,001,2021-04-22_12h46.22.795,searchDisc4,2020.2.10,MacIntel,60,,,space,0.199,2,1,0.679,,0,183,183,396,1,2b,54,3,31,
,,,,,,,,,,,,,,,,,,,,,,,,,,images/exp2c_trial_7_colour2_distractors4_r.png,r,2,020,001,2021-04-22_12h46.22.795,searchDisc4,2020.2.10,MacIntel,60,,,space,0.238,2,1,0.582,,0,184,184,463,1,2c,7,2,4,
,,,,,,,,,,,,,,,,,,,,,,,,,,images/exp1a_trial_109_colour3_distractors19_l.png,l,1,020,001,2021-04-22_12h46.22.795,searchDisc4,2020.2.10,MacIntel,60,,,space,0.269,2,0,0.543,,0,185,185,109,1,1a,109,3,19,
,,,,,,,,,,,,,,,,,,,,,,,,,,images/exp2c_trial_99_colour1_distractors43_l.png,l,1,020,001,2021-04-22_12h46.22.795,searchDisc4,2020.2.10,MacIntel,60,,,space,0.401,1,1,0.577,,0,186,186,555,1,2c,99,1,43,
,,,,,,,,,,,,,,,,,,,,,,,,,,images/exp2c_trial_98_colour1_distractors31_l.png,l,1,020,001,2021-04-22_12h46.22.795,searchDisc4,2020.2.10,MacIntel,60,,,space,0.266,1,1,0.51,,0,187,187,554,1,2c,98,1,31,
,,,,,,,,,,,,,,,,,,,,,,,,,,images/exp2b_trial_82_colour2_distractors1_r.png,r,2,020,001,2021-04-22_12h46.22.795,searchDisc4,2020.2.10,MacIntel,60,,,space,0.265,2,1,0.511,,0,188,188,424,1,2b,82,2,1,
,,,,,,,,,,,,,,,,,,,,,,,,,,images/exp2c_trial_23_colour1_distractors43_l.png,l,1,020,001,2021-04-22_12h46.22.795,searchDisc4,2020.2.10,MacIntel,60,,,space,0.265,1,1,0.576,,0,189,189,479,1,2c,23,1,43,
,,,,,,,,,,,,,,,,,,,,,,,,,,images/exp2a_trial_109_colour3_distractors19_l.png,l,1,020,001,2021-04-22_12h46.22.795,searchDisc4,2020.2.10,MacIntel,60,,,space,0.233,1,1,0.642,,0,190,190,337,1,2a,109,3,19,
,,,,,,,,,,,,,,,,,,,,,,,,,,images/exp2b_trial_31_colour3_distractors4_l.png,l,1,020,001,2021-04-22_12h46.22.795,searchDisc4,2020.2.10,MacIntel,60,,,space,0.268,1,1,0.581,,0,191,191,373,1,2b,31,3,4,
,,,,,,,,,,,,,,,,,,,,,,,,,,images/exp2c_trial_20_colour1_distractors9_l.png,l,1,020,001,2021-04-22_12h46.22.795,searchDisc4,2020.2.10,MacIntel,60,,,space,0.271,1,1,0.511,,0,192,192,476,1,2c,20,1,9,
,,,,,,,,,,,,,,,,,,,,,,,,,,images/exp2c_trial_100_colour2_distractors1_l.png,l,1,020,001,2021-04-22_12h46.22.795,searchDisc4,2020.2.10,MacIntel,60,,,space,0.266,1,1,0.484,,0,193,193,556,1,2c,100,2,1,
,,,,,,,,,,,,,,,,,,,,,,,,,,images/exp1b_trial_93_colour3_distractors43_r.png,r,2,020,001,2021-04-22_12h46.22.795,searchDisc4,2020.2.10,MacIntel,60,,,space,0.267,2,1,3.219,,0,194,194,207,1,1b,93,3,43,
,,,,,,,,,,,,,,,,,,,,,,,,,,images/exp2c_trial_106_colour3_distractors1_l.png,l,1,020,001,2021-04-22_12h46.22.795,searchDisc4,2020.2.10,MacIntel,60,,,space,0.299,1,1,0.614,,0,195,195,562,1,2c,106,3,1,
,,,,,,,,,,,,,,,,,,,,,,,,,,images/exp1a_trial_76_colour1_distractors1_r.png,r,2,020,001,2021-04-22_12h46.22.795,searchDisc4,2020.2.10,MacIntel,60,,,space,0.266,2,1,0.644,,0,196,196,76,1,1a,76,1,1,
,,,,,,,,,,,,,,,,,,,,,,,,,,images/exp2b_trial_17_colour3_distractors43_r.png,r,2,020,001,2021-04-22_12h46.22.795,searchDisc4,2020.2.10,MacIntel,60,,,space,0.243,2,1,0.615,,0,197,197,359,1,2b,17,3,43,
,,,,,,,,,,,,,,,,,,,,,,,,,,images/exp2b_trial_3_colour1_distractors19_r.png,r,2,020,001,2021-04-22_12h46.22.795,searchDisc4,2020.2.10,MacIntel,60,,,space,0.27,2,1,0.514,,0,198,198,345,1,2b,3,1,19,
,,,,,,,,,,,,,,,,,,,,,,,,,,images/exp2a_trial_19_colour1_distractors4_l.png,l,1,020,001,2021-04-22_12h46.22.795,searchDisc4,2020.2.10,MacIntel,60,,,space,0.267,1,1,0.585,,0,199,199,247,1,2a,19,1,4,
,,,,,,,,,,,,,,,,,,,,,,,,,,images/exp1b_trial_16_colour3_distractors31_r.png,r,2,020,001,2021-04-22_12h46.22.795,searchDisc4,2020.2.10,MacIntel,60,,,space,0.274,2,1,0.881,,0,200,200,130,1,1b,16,3,31,
,,,,,,,,,,,,,,,,,,,,,,,,,,images/exp2b_trial_95_colour1_distractors4_l.png,l,1,020,001,2021-04-22_12h46.22.795,searchDisc4,2020.2.10,MacIntel,60,,,space,0.27,1,1,0.611,,0,201,201,437,1,2b,95,1,4,
,,,,,,,,,,,,,,,,,,,,,,,,,,images/exp2c_trial_54_colour3_distractors31_r.png,r,2,020,001,2021-04-22_12h46.22.795,searchDisc4,2020.2.10,MacIntel,60,,,space,0.3,2,1,0.651,,0,202,202,510,1,2c,54,3,31,
,,,,,,,,,,,,,,,,,,,,,,,,,,images/exp1b_trial_52_colour3_distractors9_r.png,r,2,020,001,2021-04-22_12h46.22.795,searchDisc4,2020.2.10,MacIntel,60,,,space,0.234,2,1,0.609,,0,203,203,166,1,1b,52,3,9,
,,,,,,,,,,,,,,,,,,,,,,,,,,images/exp2b_trial_108_colour3_distractors9_l.png,l,1,020,001,2021-04-22_12h46.22.795,searchDisc4,2020.2.10,MacIntel,60,,,space,0.266,1,1,0.649,,0,204,204,450,1,2b,108,3,9,
,,,,,,,,,,,,,,,,,,,,,,,,,,images/exp2b_trial_10_colour2_distractors31_r.png,r,2,020,001,2021-04-22_12h46.22.795,searchDisc4,2020.2.10,MacIntel,60,,,space,0.274,2,1,0.616,,0,205,205,352,1,2b,10,2,31,
,,,,,,,,,,,,,,,,,,,,,,,,,,images/exp2c_trial_73_colour3_distractors43_l.png,l,1,020,001,2021-04-22_12h46.22.795,searchDisc4,2020.2.10,MacIntel,60,,,space,0.239,1,1,0.612,,0,206,206,529,1,2c,73,3,43,
,,,,,,,,,,,,,,,,,,,,,,,,,,images/exp1a_trial_50_colour3_distractors1_r.png,r,2,020,001,2021-04-22_12h46.22.795,searchDisc4,2020.2.10,MacIntel,60,,,space,0.265,2,1,0.548,,0,207,207,50,1,1a,50,3,1,
,,,,,,,,,,,,,,,,,,,,,,,,,,images/exp1b_trial_82_colour2_distractors1_r.png,r,2,020,001,2021-04-22_12h46.22.795,searchDisc4,2020.2.10,MacIntel,60,,,space,0.334,2,1,0.582,,0,208,208,196,1,1b,82,2,1,
,,,,,,,,,,,,,,,,,,,,,,,,,,images/exp2b_trial_2_colour1_distractors9_r.png,r,2,020,001,2021-04-22_12h46.22.795,searchDisc4,2020.2.10,MacIntel,60,,,space,0.269,2,1,0.511,,0,209,209,344,1,2b,2,1,9,
,,,,,,,,,,,,,,,,,,,,,,,,,,images/exp2a_trial_108_colour3_distractors9_l.png,l,1,020,001,2021-04-22_12h46.22.795,searchDisc4,2020.2.10,MacIntel,60,,,space,0.269,1,1,0.581,,0,210,210,336,1,2a,108,3,9,
,,,,,,,,,,,,,,,,,,,,,,,,,,images/exp1a_trial_25_colour2_distractors4_l.png,l,1,020,001,2021-04-22_12h46.22.795,searchDisc4,2020.2.10,MacIntel,60,,,space,0.273,1,1,0.679,,0,211,211,25,1,1a,25,2,4,
,,,,,,,,,,,,,,,,,,,,,,,,,,images/exp2c_trial_4_colour1_distractors31_r.png,r,2,020,001,2021-04-22_12h46.22.795,searchDisc4,2020.2.10,MacIntel,60,,,space,0.266,2,1,0.548,,0,212,212,460,1,2c,4,1,31,
,,,,,,,,,,,,,,,,,,,,,,,,,,images/exp1b_trial_6_colour2_distractors1_r.png,r,2,020,001,2021-04-22_12h46.22.795,searchDisc4,2020.2.10,MacIntel,60,,,space,0.237,2,1,0.548,,0,213,213,120,1,1b,6,2,1,
,,,,,,,,,,,,,,,,,,,,,,,,,,images/exp1a_trial_101_colour2_distractors4_l.png,l,1,020,001,2021-04-22_12h46.22.795,searchDisc4,2020.2.10,MacIntel,60,,,space,0.268,1,1,0.449,,0,214,214,101,1,1a,101,2,4,
,,,,,,,,,,,,,,,,,,,,,,,,,,images/exp2b_trial_98_colour1_distractors31_l.png,l,1,020,001,2021-04-22_12h46.22.795,searchDisc4,2020.2.10,MacIntel,60,,,space,0.3,1,1,0.677,,0,215,215,440,1,2b,98,1,31,
,,,,,,,,,,,,,,,,,,,,,,,,,,images/exp1b_trial_75_colour0_distractors0_l.png,l,1,020,001,2021-04-22_12h46.22.795,searchDisc4,2020.2.10,MacIntel,60,,,space,0.097,1,1,0.553,,0,216,216,189,1,1b,75,0,0,
,,,,,,,,,,,,,,,,,,,,,,,,,,images/exp2b_trial_12_colour3_distractors1_r.png,r,2,020,001,2021-04-22_12h46.22.795,searchDisc4,2020.2.10,MacIntel,60,,,space,0.339,2,1,0.544,,0,217,217,354,1,2b,12,3,1,
,,,,,,,,,,,,,,,,,,,,,,,,,,images/exp1a_trial_90_colour3_distractors9_r.png,r,2,020,001,2021-04-22_12h46.22.795,searchDisc4,2020.2.10,MacIntel,60,,,space,0.271,2,1,0.548,,0,218,218,90,1,1a,90,3,9,
,,,,,,,,,,,,,,,,,,,,,,,,,,images/exp2b_trial_86_colour2_distractors31_r.png,r,2,020,001,2021-04-22_12h46.22.795,searchDisc4,2020.2.10,MacIntel,60,,,space,0.297,2,1,0.577,,0,219,219,428,1,2b,86,2,31,
,,,,,,,,,,,,,,,,,,,,,,,,,,images/exp2a_trial_88_colour3_distractors1_r.png,r,2,020,001,2021-04-22_12h46.22.795,searchDisc4,2020.2.10,MacIntel,60,,,space,0.401,2,1,0.544,,0,220,220,316,1,2a,88,3,1,
,,,,,,,,,,,,,,,,,,,,,,,,,,images/exp2b_trial_85_colour2_distractors19_r.png,r,2,020,001,2021-04-22_12h46.22.795,searchDisc4,2020.2.10,MacIntel,60,,,space,0.3,2,1,0.543,,0,221,221,427,1,2b,85,2,19,
,,,,,,,,,,,,,,,,,,,,,,,,,,images/exp2b_trial_72_colour3_distractors31_l.png,l,1,020,001,2021-04-22_12h46.22.795,searchDisc4,2020.2.10,MacIntel,60,,,space,0.273,1,1,0.686,,0,222,222,414,1,2b,72,3,31,
,,,,,,,,,,,,,,,,,,,,,,,,,,images/exp1a_trial_20_colour1_distractors9_l.png,l,1,020,001,2021-04-22_12h46.22.795,searchDisc4,2020.2.10,MacIntel,60,,,space,0.332,1,1,0.611,,0,223,223,20,1,1a,20,1,9,
,,,,,,,,,,,,,,,,,,,,,,,,,,images/exp2c_trial_105_colour2_distractors43_l.png,l,1,020,001,2021-04-22_12h46.22.795,searchDisc4,2020.2.10,MacIntel,60,,,space,0.3,1,1,0.584,,0,224,224,561,1,2c,105,2,43,
,,,,,,,,,,,,,,,,,,,,,,,,,,images/exp2c_trial_39_colour1_distractors4_r.png,r,2,020,001,2021-04-22_12h46.22.795,searchDisc4,2020.2.10,MacIntel,60,,,space,0.333,2,1,0.612,,0,225,225,495,1,2c,39,1,4,
,,,,,,,,,,,,,,,,,,,,,,,,,,images/exp1b_trial_76_colour1_distractors1_r.png,r,2,020,001,2021-04-22_12h46.22.795,searchDisc4,2020.2.10,MacIntel,60,,,space,0.266,2,1,0.577,,0,226,226,190,1,1b,76,1,1,
,,,,,,,,,,,,,,,,,,,,,,,,,,images/exp2b_trial_26_colour2_distractors9_l.png,l,1,020,001,2021-04-22_12h46.22.795,searchDisc4,2020.2.10,MacIntel,60,,,space,0.27,1,1,0.578,,0,227,227,368,1,2b,26,2,9,
,,,,,,,,,,,,,,,,,,,,,,,,,,images/exp2c_trial_45_colour2_distractors4_r.png,r,2,020,001,2021-04-22_12h46.22.795,searchDisc4,2020.2.10,MacIntel,60,,,space,0.275,2,1,0.646,,0,228,228,501,1,2c,45,2,4,
,,,,,,,,,,,,,,,,,,,,,,,,,,images/exp2b_trial_96_colour1_distractors9_l.png,l,1,020,001,2021-04-22_12h46.22.795,searchDisc4,2020.2.10,MacIntel,60,,,space,0.267,1,1,0.718,,0,229,229,438,1,2b,96,1,9,
,,,,,,,,,,,,,,,,,,,,,,,,,,images/exp2a_trial_39_colour1_distractors4_r.png,r,2,020,001,2021-04-22_12h46.22.795,searchDisc4,2020.2.10,MacIntel,60,,,space,0.303,2,1,0.786,,0,230,230,267,1,2a,39,1,4,
,,,,,,,,,,,,,,,,,,,,,,,,,,images/exp2c_trial_85_colour2_distractors19_r.png,r,2,020,001,2021-04-22_12h46.22.795,searchDisc4,2020.2.10,MacIntel,60,,,space,0.506,2,1,0.982,,0,231,231,541,1,2c,85,2,19,
,,,,,,,,,,,,,,,,,,,,,,,,,,images/exp1b_trial_12_colour3_distractors1_r.png,r,2,020,001,2021-04-22_12h46.22.795,searchDisc4,2020.2.10,MacIntel,60,,,space,0.303,2,1,0.577,,0,232,232,126,1,1b,12,3,1,
,,,,,,,,,,,,,,,,,,,,,,,,,,images/exp2a_trial_79_colour1_distractors19_r.png,r,2,020,001,2021-04-22_12h46.22.795,searchDisc4,2020.2.10,MacIntel,60,,,space,0.302,2,1,0.545,,0,233,233,307,1,2a,79,1,19,
,,,,,,,,,,,,,,,,,,,,,,,,,,images/exp2b_trial_27_colour2_distractors19_l.png,l,1,020,001,2021-04-22_12h46.22.795,searchDisc4,2020.2.10,MacIntel,60,,,space,0.273,1,1,0.612,,0,234,234,369,1,2b,27,2,19,
,,,,,,,,,,,,,,,,,,,,,,,,,,images/exp1b_trial_95_colour1_distractors4_l.png,l,1,020,001,2021-04-22_12h46.22.795,searchDisc4,2020.2.10,MacIntel,60,,,space,0.271,1,1,0.544,,0,235,235,209,1,1b,95,1,4,
,,,,,,,,,,,,,,,,,,,,,,,,,,images/exp1a_trial_79_colour1_distractors19_r.png,r,2,020,001,2021-04-22_12h46.22.795,searchDisc4,2020.2.10,MacIntel,60,,,space,0.269,2,1,0.484,,0,236,236,79,1,1a,79,1,19,
,,,,,,,,,,,,,,,,,,,,,,,,,,images/exp2b_trial_24_colour2_distractors1_l.png,l,1,020,001,2021-04-22_12h46.22.795,searchDisc4,2020.2.10,MacIntel,60,,,space,0.334,1,1,0.547,,0,237,237,366,1,2b,24,2,1,
,,,,,,,,,,,,,,,,,,,,,,,,,,images/exp1b_trial_81_colour1_distractors43_r.png,r,2,020,001,2021-04-22_12h46.22.795,searchDisc4,2020.2.10,MacIntel,60,,,space,0.24,2,1,0.778,,0,238,238,195,1,1b,81,1,43,
,,,,,,,,,,,,,,,,,,,,,,,,,,images/exp2b_trial_77_colour1_distractors4_r.png,r,2,020,001,2021-04-22_12h46.22.795,searchDisc4,2020.2.10,MacIntel,60,,,space,0.352,2,1,0.61,space,0,239,239,419,1,2b,77,1,4,0.289
,,,,,,,,,,,,,,,,,,,,,,,,,,images/exp2a_trial_73_colour3_distractors43_l.png,l,1,020,001,2021-04-22_12h46.22.795,searchDisc4,2020.2.10,MacIntel,60,,,space,1.134,1,1,0.64,,0,240,240,301,1,2a,73,3,43,
,,,,,,,,,,,,,,,,,,,,,,,,,,images/exp1a_trial_81_colour1_distractors43_r.png,r,2,020,001,2021-04-22_12h46.22.795,searchDisc4,2020.2.10,MacIntel,60,,,space,0.333,2,1,0.576,,0,241,241,81,1,1a,81,1,43,
,,,,,,,,,,,,,,,,,,,,,,,,,,images/exp1b_trial_22_colour1_distractors31_l.png,l,1,020,001,2021-04-22_12h46.22.795,searchDisc4,2020.2.10,MacIntel,60,,,space,0.234,1,1,0.714,,0,242,242,136,1,1b,22,1,31,
,,,,,,,,,,,,,,,,,,,,,,,,,,images/exp1a_trial_28_colour2_distractors31_l.png,l,1,020,001,2021-04-22_12h46.22.795,searchDisc4,2020.2.10,MacIntel,60,,,space,0.3,1,1,0.577,,0,243,243,28,1,1a,28,2,31,
,,,,,,,,,,,,,,,,,,,,,,,,,,images/exp1b_trial_42_colour1_distractors31_r.png,r,2,020,001,2021-04-22_12h46.22.795,searchDisc4,2020.2.10,MacIntel,60,,,space,0.3,2,1,0.644,,0,244,244,156,1,1b,42,1,31,
,,,,,,,,,,,,,,,,,,,,,,,,,,images/exp2b_trial_57_colour1_distractors4_l.png,l,1,020,001,2021-04-22_12h46.22.795,searchDisc4,2020.2.10,MacIntel,60,,,space,0.203,1,1,0.576,,0,245,245,399,1,2b,57,1,4,
,,,,,,,,,,,,,,,,,,,,,,,,,,images/exp2b_trial_89_colour3_distractors4_r.png,r,2,020,001,2021-04-22_12h46.22.795,searchDisc4,2020.2.10,MacIntel,60,,,space,0.298,2,1,0.515,,0,246,246,431,1,2b,89,3,4,
,,,,,,,,,,,,,,,,,,,,,,,,,,images/exp2b_trial_14_colour3_distractors9_r.png,r,2,020,001,2021-04-22_12h46.22.795,searchDisc4,2020.2.10,MacIntel,60,,,space,0.3,2,1,0.552,,0,247,247,356,1,2b,14,3,9,
,,,,,,,,,,,,,,,,,,,,,,,,,,images/exp2c_trial_74_colour0_distractors0_r.png,r,2,020,001,2021-04-22_12h46.22.795,searchDisc4,2020.2.10,MacIntel,60,,,space,0.335,2,1,0.444,,0,248,248,530,1,2c,74,0,0,
,,,,,,,,,,,,,,,,,,,,,,,,,,images/exp2a_trial_45_colour2_distractors4_r.png,r,2,020,001,2021-04-22_12h46.22.795,searchDisc4,2020.2.10,MacIntel,60,,,space,0.265,2,1,0.549,,0,249,249,273,1,2a,45,2,4,
,,,,,,,,,,,,,,,,,,,,,,,,,,images/exp1a_trial_93_colour3_distractors43_r.png,r,2,020,001,2021-04-22_12h46.22.795,searchDisc4,2020.2.10,MacIntel,60,,,space,0.275,2,1,0.579,,0,250,250,93,1,1a,93,3,43,
,,,,,,,,,,,,,,,,,,,,,,,,,,images/exp2a_trial_63_colour2_distractors4_l.png,l,1,020,001,2021-04-22_12h46.22.795,searchDisc4,2020.2.10,MacIntel,60,,,space,0.266,1,1,0.549,,0,251,251,291,1,2a,63,2,4,
,,,,,,,,,,,,,,,,,,,,,,,,,,images/exp1a_trial_69_colour3_distractors4_l.png,l,1,020,001,2021-04-22_12h46.22.795,searchDisc4,2020.2.10,MacIntel,60,,,space,0.301,1,1,0.482,,0,252,252,69,1,1a,69,3,4,
,,,,,,,,,,,,,,,,,,,,,,,,,,images/exp1a_trial_47_colour2_distractors19_r.png,r,2,020,001,2021-04-22_12h46.22.795,searchDisc4,2020.2.10,MacIntel,60,,,space,0.266,2,1,0.744,,0,253,253,47,1,1a,47,2,19,
,,,,,,,,,,,,,,,,,,,,,,,,,,images/exp1a_trial_34_colour3_distractors31_l.png,l,1,020,001,2021-04-22_12h46.22.795,searchDisc4,2020.2.10,MacIntel,60,,,space,0.267,1,1,0.617,,0,254,254,34,1,1a,34,3,31,
,,,,,,,,,,,,,,,,,,,,,,,,,,images/exp1a_trial_30_colour3_distractors1_l.png,l,1,020,001,2021-04-22_12h46.22.795,searchDisc4,2020.2.10,MacIntel,60,,,space,0.333,1,1,0.448,,0,255,255,30,1,1a,30,3,1,
,,,,,,,,,,,,,,,,,,,,,,,,,,images/exp2b_trial_20_colour1_distractors9_l.png,l,1,020,001,2021-04-22_12h46.22.795,searchDisc4,2020.2.10,MacIntel,60,,,space,0.268,1,1,0.511,,0,256,256,362,1,2b,20,1,9,
,,,,,,,,,,,,,,,,,,,,,,,,,,images/exp2b_trial_105_colour2_distractors43_l.png,l,1,020,001,2021-04-22_12h46.22.795,searchDisc4,2020.2.10,MacIntel,60,,,space,0.332,1,1,0.644,,0,257,257,447,1,2b,105,2,43,
,,,,,,,,,,,,,,,,,,,,,,,,,,images/exp2b_trial_60_colour1_distractors31_l.png,l,1,020,001,2021-04-22_12h46.22.795,searchDisc4,2020.2.10,MacIntel,60,,,space,0.268,1,1,0.581,,0,258,258,402,1,2b,60,1,31,
,,,,,,,,,,,,,,,,,,,,,,,,,,images/exp1a_trial_13_colour3_distractors4_r.png,r,2,020,001,2021-04-22_12h46.22.795,searchDisc4,2020.2.10,MacIntel,60,,,space,0.269,2,1,0.48,,0,259,259,13,1,1a,13,3,4,
,,,,,,,,,,,,,,,,,,,,,,,,,,images/exp2a_trial_91_colour3_distractors19_r.png,r,2,020,001,2021-04-22_12h46.22.795,searchDisc4,2020.2.10,MacIntel,60,,,space,0.4,2,1,0.544,,0,260,260,319,1,2a,91,3,19,
,,,,,,,,,,,,,,,,,,,,,,,,,,images/exp2c_trial_66_colour2_distractors31_l.png,l,1,020,001,2021-04-22_12h46.22.795,searchDisc4,2020.2.10,MacIntel,60,,,space,0.268,1,1,0.612,,0,261,261,522,1,2c,66,2,31,
,,,,,,,,,,,,,,,,,,,,,,,,,,images/exp2a_trial_62_colour2_distractors1_l.png,l,1,020,001,2021-04-22_12h46.22.795,searchDisc4,2020.2.10,MacIntel,60,,,space,0.271,1,1,0.511,,0,262,262,290,1,2a,62,2,1,
,,,,,,,,,,,,,,,,,,,,,,,,,,images/exp2a_trial_34_colour3_distractors31_l.png,l,1,020,001,2021-04-22_12h46.22.795,searchDisc4,2020.2.10,MacIntel,60,,,space,0.266,1,1,0.644,,0,263,263,262,1,2a,34,3,31,
,,,,,,,,,,,,,,,,,,,,,,,,,,images/exp1b_trial_5_colour1_distractors43_r.png,r,2,020,001,2021-04-22_12h46.22.795,searchDisc4,2020.2.10,MacIntel,60,,,space,0.299,2,1,0.715,,0,264,264,119,1,1b,5,1,43,
,,,,,,,,,,,,,,,,,,,,,,,,,,images/exp2a_trial_58_colour1_distractors9_l.png,l,1,020,001,2021-04-22_12h46.22.795,searchDisc4,2020.2.10,MacIntel,60,,,space,0.335,1,1,0.611,,0,265,265,286,1,2a,58,1,9,
,,,,,,,,,,,,,,,,,,,,,,,,,,images/exp1a_trial_82_colour2_distractors1_r.png,r,2,020,001,2021-04-22_12h46.22.795,searchDisc4,2020.2.10,MacIntel,60,,,space,0.3,2,1,0.645,,0,266,266,82,1,1a,82,2,1,
,,,,,,,,,,,,,,,,,,,,,,,,,,images/exp1a_trial_85_colour2_distractors19_r.png,r,2,020,001,2021-04-22_12h46.22.795,searchDisc4,2020.2.10,MacIntel,60,,,space,0.266,2,1,0.676,,0,267,267,85,1,1a,85,2,19,
,,,,,,,,,,,,,,,,,,,,,,,,,,images/exp1b_trial_68_colour3_distractors1_l.png,l,1,020,001,2021-04-22_12h46.22.795,searchDisc4,2020.2.10,MacIntel,60,,,space,0.266,1,1,0.915,,0,268,268,182,1,1b,68,3,1,
,,,,,,,,,,,,,,,,,,,,,,,,,,images/exp1b_trial_99_colour1_distractors43_l.png,l,1,020,001,2021-04-22_12h46.22.795,searchDisc4,2020.2.10,MacIntel,60,,,space,0.332,1,1,0.581,,0,269,269,213,1,1b,99,1,43,
,,,,,,,,,,,,,,,,,,,,,,,,,,images/exp1a_trial_96_colour1_distractors9_l.png,l,1,020,001,2021-04-22_12h46.22.795,searchDisc4,2020.2.10,MacIntel,60,,,space,0.3,1,1,0.608,,0,270,270,96,1,1a,96,1,9,
,,,,,,,,,,,,,,,,,,,,,,,,,,images/exp1a_trial_4_colour1_distractors31_r.png,r,2,020,001,2021-04-22_12h46.22.795,searchDisc4,2020.2.10,MacIntel,60,,,space,0.266,2,1,0.58,,0,271,271,4,1,1a,4,1,31,
,,,,,,,,,,,,,,,,,,,,,,,,,,images/exp1b_trial_32_colour3_distractors9_l.png,l,1,020,001,2021-04-22_12h46.22.795,searchDisc4,2020.2.10,MacIntel,60,,,space,0.267,1,1,1.411,,0,272,272,146,1,1b,32,3,9,
,,,,,,,,,,,,,,,,,,,,,,,,,,images/exp1b_trial_23_colour1_distractors43_l.png,l,1,020,001,2021-04-22_12h46.22.795,searchDisc4,2020.2.10,MacIntel,60,,,space,0.271,1,1,0.577,,0,273,273,137,1,1b,23,1,43,
,,,,,,,,,,,,,,,,,,,,,,,,,,images/exp2a_trial_112_colour0_distractors0_r.png,r,2,020,001,2021-04-22_12h46.22.795,searchDisc4,2020.2.10,MacIntel,60,,,space,0.239,2,1,0.586,,0,274,274,340,1,2a,112,0,0,
,,,,,,,,,,,,,,,,,,,,,,,,,,images/exp1a_trial_35_colour3_distractors43_l.png,l,1,020,001,2021-04-22_12h46.22.795,searchDisc4,2020.2.10,MacIntel,60,,,space,0.27,1,1,0.585,,0,275,275,35,1,1a,35,3,43,
,,,,,,,,,,,,,,,,,,,,,,,,,,images/exp1b_trial_26_colour2_distractors9_l.png,l,1,020,001,2021-04-22_12h46.22.795,searchDisc4,2020.2.10,MacIntel,60,,,space,0.3,1,1,0.677,,0,276,276,140,1,1b,26,2,9,
,,,,,,,,,,,,,,,,,,,,,,,,,,images/exp1a_trial_62_colour2_distractors1_l.png,l,1,020,001,2021-04-22_12h46.22.795,searchDisc4,2020.2.10,MacIntel,60,,,space,0.301,1,1,0.681,,0,277,277,62,1,1a,62,2,1,
,,,,,,,,,,,,,,,,,,,,,,,,,,images/exp1b_trial_89_colour3_distractors4_r.png,r,2,020,001,2021-04-22_12h46.22.795,searchDisc4,2020.2.10,MacIntel,60,,,space,0.303,2,1,0.877,,0,278,278,203,1,1b,89,3,4,
,,,,,,,,,,,,,,,,,,,,,,,,,,images/exp1a_trial_3_colour1_distractors19_r.png,r,2,020,001,2021-04-22_12h46.22.795,searchDisc4,2020.2.10,MacIntel,60,,,space,0.299,2,1,0.714,,0,279,279,3,1,1a,3,1,19,
,,,,,,,,,,,,,,,,,,,,,,,,,,images/exp2c_trial_29_colour2_distractors43_l.png,l,1,020,001,2021-04-22_12h46.22.795,searchDisc4,2020.2.10,MacIntel,60,,,space,0.367,1,1,0.578,,0,280,280,485,1,2c,29,2,43,
,,,,,,,,,,,,,,,,,,,,,,,,,,images/exp2a_trial_85_colour2_distractors19_r.png,r,2,020,001,2021-04-22_12h46.22.795,searchDisc4,2020.2.10,MacIntel,60,,,space,0.401,2,1,0.749,,0,281,281,313,1,2a,85,2,19,
,,,,,,,,,,,,,,,,,,,,,,,,,,images/exp1b_trial_63_colour2_distractors4_l.png,l,1,020,001,2021-04-22_12h46.22.795,searchDisc4,2020.2.10,MacIntel,60,,,space,0.335,1,1,0.81,,0,282,282,177,1,1b,63,2,4,
,,,,,,,,,,,,,,,,,,,,,,,,,,images/exp2b_trial_62_colour2_distractors1_l.png,l,1,020,001,2021-04-22_12h46.22.795,searchDisc4,2020.2.10,MacIntel,60,,,space,0.432,1,1,0.611,,0,283,283,404,1,2b,62,2,1,
,,,,,,,,,,,,,,,,,,,,,,,,,,images/exp2a_trial_93_colour3_distractors43_r.png,r,2,020,001,2021-04-22_12h46.22.795,searchDisc4,2020.2.10,MacIntel,60,,,space,0.343,2,1,0.578,,0,284,284,321,1,2a,93,3,43,
,,,,,,,,,,,,,,,,,,,,,,,,,,images/exp1a_trial_91_colour3_distractors19_r.png,r,2,020,001,2021-04-22_12h46.22.795,searchDisc4,2020.2.10,MacIntel,60,,,space,0.405,2,1,0.945,,0,285,285,91,1,1a,91,3,19,
,,,,,,,,,,,,,,,,,,,,,,,,,,images/exp1b_trial_86_colour2_distractors31_r.png,r,2,020,001,2021-04-22_12h46.22.795,searchDisc4,2020.2.10,MacIntel,60,,,space,0.366,2,1,0.812,,0,286,286,200,1,1b,86,2,31,
,,,,,,,,,,,,,,,,,,,,,,,,,,images/exp2a_trial_49_colour2_distractors43_r.png,r,2,020,001,2021-04-22_12h46.22.795,searchDisc4,2020.2.10,MacIntel,60,,,space,0.401,2,1,0.611,,0,287,287,277,1,2a,49,2,43,
,,,,,,,,,,,,,,,,,,,,,,,,,,images/exp2a_trial_22_colour1_distractors31_l.png,l,1,020,001,2021-04-22_12h46.22.795,searchDisc4,2020.2.10,MacIntel,60,,,space,0.337,1,1,0.58,,0,288,288,250,1,2a,22,1,31,
,,,,,,,,,,,,,,,,,,,,,,,,,,images/exp2b_trial_50_colour3_distractors1_r.png,r,2,020,001,2021-04-22_12h46.22.795,searchDisc4,2020.2.10,MacIntel,60,,,space,0.434,2,1,0.644,,0,289,289,392,1,2b,50,3,1,
,,,,,,,,,,,,,,,,,,,,,,,,,,images/exp2c_trial_24_colour2_distractors1_l.png,l,1,020,001,2021-04-22_12h46.22.795,searchDisc4,2020.2.10,MacIntel,60,,,space,0.368,1,1,0.951,,0,290,290,480,1,2c,24,2,1,
,,,,,,,,,,,,,,,,,,,,,,,,,,images/exp1a_trial_84_colour2_distractors9_r.png,r,2,020,001,2021-04-22_12h46.22.795,searchDisc4,2020.2.10,MacIntel,60,,,space,0.401,2,1,0.581,,0,291,291,84,1,1a,84,2,9,
,,,,,,,,,,,,,,,,,,,,,,,,,,images/exp1a_trial_89_colour3_distractors4_r.png,r,2,020,001,2021-04-22_12h46.22.795,searchDisc4,2020.2.10,MacIntel,60,,,space,0.366,2,1,0.549,,0,292,292,89,1,1a,89,3,4,
,,,,,,,,,,,,,,,,,,,,,,,,,,images/exp1a_trial_110_colour3_distractors31_l.png,l,1,020,001,2021-04-22_12h46.22.795,searchDisc4,2020.2.10,MacIntel,60,,,space,0.4,1,1,0.613,,0,293,293,110,1,1a,110,3,31,
,,,,,,,,,,,,,,,,,,,,,,,,,,images/exp1a_trial_55_colour3_distractors43_r.png,r,2,020,001,2021-04-22_12h46.22.795,searchDisc4,2020.2.10,MacIntel,60,,,space,0.369,2,1,0.617,,0,294,294,55,1,1a,55,3,43,
,,,,,,,,,,,,,,,,,,,,,,,,,,images/exp1b_trial_102_colour2_distractors9_l.png,l,1,020,001,2021-04-22_12h46.22.795,searchDisc4,2020.2.10,MacIntel,60,,,space,0.333,1,1,0.644,,0,295,295,216,1,1b,102,2,9,
,,,,,,,,,,,,,,,,,,,,,,,,,,images/exp1b_trial_14_colour3_distractors9_r.png,r,2,020,001,2021-04-22_12h46.22.795,searchDisc4,2020.2.10,MacIntel,60,,,space,0.269,2,1,0.948,,0,296,296,128,1,1b,14,3,9,
,,,,,,,,,,,,,,,,,,,,,,,,,,images/exp2b_trial_101_colour2_distractors4_l.png,l,1,020,001,2021-04-22_12h46.22.795,searchDisc4,2020.2.10,MacIntel,60,,,space,0.301,1,1,0.611,,0,297,297,443,1,2b,101,2,4,
,,,,,,,,,,,,,,,,,,,,,,,,,,images/exp2b_trial_56_colour1_distractors1_l.png,l,1,020,001,2021-04-22_12h46.22.795,searchDisc4,2020.2.10,MacIntel,60,,,space,0.266,1,1,0.549,,0,298,298,398,1,2b,56,1,1,
,,,,,,,,,,,,,,,,,,,,,,,,,,images/exp2a_trial_66_colour2_distractors31_l.png,l,1,020,001,2021-04-22_12h46.22.795,searchDisc4,2020.2.10,MacIntel,60,,,space,0.299,2,0,0.511,space,0,299,299,294,1,2a,66,2,31,3.358
,,,,,,,,,,,,,,,,,,,,,,,,,,images/exp1b_trial_39_colour1_distractors4_r.png,r,2,020,001,2021-04-22_12h46.22.795,searchDisc4,2020.2.10,MacIntel,60,,,space,0.672,2,1,0.581,,0,300,300,153,1,1b,39,1,4,
,,,,,,,,,,,,,,,,,,,,,,,,,,images/exp2a_trial_37_colour0_distractors0_l.png,l,1,020,001,2021-04-22_12h46.22.795,searchDisc4,2020.2.10,MacIntel,60,,,space,0.271,1,1,0.516,,0,301,301,265,1,2a,37,0,0,
,,,,,,,,,,,,,,,,,,,,,,,,,,images/exp1b_trial_79_colour1_distractors19_r.png,r,2,020,001,2021-04-22_12h46.22.795,searchDisc4,2020.2.10,MacIntel,60,,,space,0.332,2,1,0.577,,0,302,302,193,1,1b,79,1,19,
,,,,,,,,,,,,,,,,,,,,,,,,,,images/exp2b_trial_5_colour1_distractors43_r.png,r,2,020,001,2021-04-22_12h46.22.795,searchDisc4,2020.2.10,MacIntel,60,,,space,0.268,2,1,0.61,,0,303,303,347,1,2b,5,1,43,
,,,,,,,,,,,,,,,,,,,,,,,,,,images/exp2b_trial_22_colour1_distractors31_l.png,l,1,020,001,2021-04-22_12h46.22.795,searchDisc4,2020.2.10,MacIntel,60,,,space,0.266,1,1,0.652,,0,304,304,364,1,2b,22,1,31,
,,,,,,,,,,,,,,,,,,,,,,,,,,images/exp2b_trial_80_colour1_distractors31_r.png,r,2,020,001,2021-04-22_12h46.22.795,searchDisc4,2020.2.10,MacIntel,60,,,space,0.304,2,1,0.679,,0,305,305,422,1,2b,80,1,31,
,,,,,,,,,,,,,,,,,,,,,,,,,,images/exp1b_trial_51_colour3_distractors4_r.png,r,2,020,001,2021-04-22_12h46.22.795,searchDisc4,2020.2.10,MacIntel,60,,,space,0.267,2,1,0.577,,0,306,306,165,1,1b,51,3,4,
,,,,,,,,,,,,,,,,,,,,,,,,,,images/exp1a_trial_77_colour1_distractors4_r.png,r,2,020,001,2021-04-22_12h46.22.795,searchDisc4,2020.2.10,MacIntel,60,,,space,0.233,2,1,0.651,,0,307,307,77,1,1a,77,1,4,
,,,,,,,,,,,,,,,,,,,,,,,,,,images/exp2a_trial_3_colour1_distractors19_r.png,r,2,020,001,2021-04-22_12h46.22.795,searchDisc4,2020.2.10,MacIntel,60,,,space,0.275,2,1,0.677,,0,308,308,231,1,2a,3,1,19,
,,,,,,,,,,,,,,,,,,,,,,,,,,images/exp2c_trial_79_colour1_distractors19_r.png,r,2,020,001,2021-04-22_12h46.22.795,searchDisc4,2020.2.10,MacIntel,60,,,space,0.238,2,1,0.646,,0,309,309,535,1,2c,79,1,19,
,,,,,,,,,,,,,,,,,,,,,,,,,,images/exp1b_trial_100_colour2_distractors1_l.png,l,1,020,001,2021-04-22_12h46.22.795,searchDisc4,2020.2.10,MacIntel,60,,,space,0.266,1,1,0.517,,0,310,310,214,1,1b,100,2,1,
,,,,,,,,,,,,,,,,,,,,,,,,,,images/exp1a_trial_14_colour3_distractors9_r.png,r,2,020,001,2021-04-22_12h46.22.795,searchDisc4,2020.2.10,MacIntel,60,,,space,0.27,2,1,0.612,,0,311,311,14,1,1a,14,3,9,
,,,,,,,,,,,,,,,,,,,,,,,,,,images/exp1b_trial_38_colour1_distractors1_r.png,r,2,020,001,2021-04-22_12h46.22.795,searchDisc4,2020.2.10,MacIntel,60,,,space,0.203,2,1,0.583,,0,312,312,152,1,1b,38,1,1,
,,,,,,,,,,,,,,,,,,,,,,,,,,images/exp1b_trial_4_colour1_distractors31_r.png,r,2,020,001,2021-04-22_12h46.22.795,searchDisc4,2020.2.10,MacIntel,60,,,space,0.298,2,1,0.578,,0,313,313,118,1,1b,4,1,31,
,,,,,,,,,,,,,,,,,,,,,,,,,,images/exp1b_trial_108_colour3_distractors9_l.png,l,1,020,001,2021-04-22_12h46.22.795,searchDisc4,2020.2.10,MacIntel,60,,,space,0.232,1,1,0.715,,0,314,314,222,1,1b,108,3,9,
,,,,,,,,,,,,,,,,,,,,,,,,,,images/exp2a_trial_86_colour2_distractors31_r.png,r,2,020,001,2021-04-22_12h46.22.795,searchDisc4,2020.2.10,MacIntel,60,,,space,0.302,2,1,0.509,,0,315,315,314,1,2a,86,2,31,
,,,,,,,,,,,,,,,,,,,,,,,,,,images/exp2b_trial_29_colour2_distractors43_l.png,l,1,020,001,2021-04-22_12h46.22.795,searchDisc4,2020.2.10,MacIntel,60,,,space,0.269,1,1,0.579,,0,316,316,371,1,2b,29,2,43,
,,,,,,,,,,,,,,,,,,,,,,,,,,images/exp2b_trial_45_colour2_distractors4_r.png,r,2,020,001,2021-04-22_12h46.22.795,searchDisc4,2020.2.10,MacIntel,60,,,space,0.235,2,1,0.545,,0,317,317,387,1,2b,45,2,4,
,,,,,,,,,,,,,,,,,,,,,,,,,,images/exp2c_trial_70_colour3_distractors9_l.png,l,1,020,001,2021-04-22_12h46.22.795,searchDisc4,2020.2.10,MacIntel,60,,,space,0.335,1,1,0.511,,0,318,318,526,1,2c,70,3,9,
,,,,,,,,,,,,,,,,,,,,,,,,,,images/exp2a_trial_29_colour2_distractors43_l.png,l,1,020,001,2021-04-22_12h46.22.795,searchDisc4,2020.2.10,MacIntel,60,,,space,0.271,1,1,0.576,,0,319,319,257,1,2a,29,2,43,
,,,,,,,,,,,,,,,,,,,,,,,,,,images/exp2a_trial_61_colour1_distractors43_l.png,l,1,020,001,2021-04-22_12h46.22.795,searchDisc4,2020.2.10,MacIntel,60,,,space,0.265,1,1,0.514,,0,320,320,289,1,2a,61,1,43,
,,,,,,,,,,,,,,,,,,,,,,,,,,images/exp2a_trial_54_colour3_distractors31_r.png,r,2,020,001,2021-04-22_12h46.22.795,searchDisc4,2020.2.10,MacIntel,60,,,space,0.274,2,1,0.646,,0,321,321,282,1,2a,54,3,31,
,,,,,,,,,,,,,,,,,,,,,,,,,,images/exp2a_trial_42_colour1_distractors31_r.png,r,2,020,001,2021-04-22_12h46.22.795,searchDisc4,2020.2.10,MacIntel,60,,,space,0.333,2,1,0.51,,0,322,322,270,1,2a,42,1,31,
,,,,,,,,,,,,,,,,,,,,,,,,,,images/exp2b_trial_88_colour3_distractors1_r.png,r,2,020,001,2021-04-22_12h46.22.795,searchDisc4,2020.2.10,MacIntel,60,,,space,0.269,2,1,0.58,,0,323,323,430,1,2b,88,3,1,
,,,,,,,,,,,,,,,,,,,,,,,,,,images/exp2a_trial_43_colour1_distractors43_r.png,r,2,020,001,2021-04-22_12h46.22.795,searchDisc4,2020.2.10,MacIntel,60,,,space,0.304,2,1,0.544,,0,324,324,271,1,2a,43,1,43,
,,,,,,,,,,,,,,,,,,,,,,,,,,images/exp2c_trial_3_colour1_distractors19_r.png,r,2,020,001,2021-04-22_12h46.22.795,searchDisc4,2020.2.10,MacIntel,60,,,space,0.302,2,1,0.612,,0,325,325,459,1,2c,3,1,19,
,,,,,,,,,,,,,,,,,,,,,,,,,,images/exp2b_trial_109_colour3_distractors19_l.png,l,1,020,001,2021-04-22_12h46.22.795,searchDisc4,2020.2.10,MacIntel,60,,,space,0.266,2,0,0.716,,0,326,326,451,1,2b,109,3,19,
,,,,,,,,,,,,,,,,,,,,,,,,,,images/exp1a_trial_56_colour1_distractors1_l.png,l,1,020,001,2021-04-22_12h46.22.795,searchDisc4,2020.2.10,MacIntel,60,,,space,0.47,1,1,0.645,,0,327,327,56,1,1a,56,1,1,
,,,,,,,,,,,,,,,,,,,,,,,,,,images/exp1b_trial_91_colour3_distractors19_r.png,r,2,020,001,2021-04-22_12h46.22.795,searchDisc4,2020.2.10,MacIntel,60,,,space,0.268,2,1,1.245,,0,328,328,205,1,1b,91,3,19,
,,,,,,,,,,,,,,,,,,,,,,,,,,images/exp2a_trial_15_colour3_distractors19_r.png,r,2,020,001,2021-04-22_12h46.22.795,searchDisc4,2020.2.10,MacIntel,60,,,space,0.337,2,1,0.606,,0,329,329,243,1,2a,15,3,19,
,,,,,,,,,,,,,,,,,,,,,,,,,,images/exp2b_trial_18_colour1_distractors1_l.png,l,1,020,001,2021-04-22_12h46.22.795,searchDisc4,2020.2.10,MacIntel,60,,,space,0.332,1,1,0.512,,0,330,330,360,1,2b,18,1,1,
,,,,,,,,,,,,,,,,,,,,,,,,,,images/exp2a_trial_11_colour2_distractors43_r.png,r,2,020,001,2021-04-22_12h46.22.795,searchDisc4,2020.2.10,MacIntel,60,,,space,0.3,2,1,0.581,,0,331,331,239,1,2a,11,2,43,
,,,,,,,,,,,,,,,,,,,,,,,,,,images/exp1a_trial_36_colour0_distractors0_r.png,r,2,020,001,2021-04-22_12h46.22.795,searchDisc4,2020.2.10,MacIntel,60,,,space,0.265,2,1,0.52,,0,332,332,36,1,1a,36,0,0,
,,,,,,,,,,,,,,,,,,,,,,,,,,images/exp1a_trial_103_colour2_distractors19_l.png,l,1,020,001,2021-04-22_12h46.22.795,searchDisc4,2020.2.10,MacIntel,60,,,space,0.275,1,1,0.678,,0,333,333,103,1,1a,103,2,19,
,,,,,,,,,,,,,,,,,,,,,,,,,,images/exp2a_trial_20_colour1_distractors9_l.png,l,1,020,001,2021-04-22_12h46.22.795,searchDisc4,2020.2.10,MacIntel,60,,,space,0.299,1,1,0.516,,0,334,334,248,1,2a,20,1,9,
,,,,,,,,,,,,,,,,,,,,,,,,,,images/exp2a_trial_68_colour3_distractors1_l.png,l,1,020,001,2021-04-22_12h46.22.795,searchDisc4,2020.2.10,MacIntel,60,,,space,0.307,1,1,0.515,,0,335,335,296,1,2a,68,3,1,
,,,,,,,,,,,,,,,,,,,,,,,,,,images/exp1b_trial_49_colour2_distractors43_r.png,r,2,020,001,2021-04-22_12h46.22.795,searchDisc4,2020.2.10,MacIntel,60,,,space,0.236,2,1,0.61,,0,336,336,163,1,1b,49,2,43,
,,,,,,,,,,,,,,,,,,,,,,,,,,images/exp2c_trial_28_colour2_distractors31_l.png,l,1,020,001,2021-04-22_12h46.22.795,searchDisc4,2020.2.10,MacIntel,60,,,space,0.3,1,1,0.58,,0,337,337,484,1,2c,28,2,31,
,,,,,,,,,,,,,,,,,,,,,,,,,,images/exp1a_trial_33_colour3_distractors19_l.png,l,1,020,001,2021-04-22_12h46.22.795,searchDisc4,2020.2.10,MacIntel,60,,,space,0.266,1,1,0.611,,0,338,338,33,1,1a,33,3,19,
,,,,,,,,,,,,,,,,,,,,,,,,,,images/exp2b_trial_65_colour2_distractors19_l.png,l,1,020,001,2021-04-22_12h46.22.795,searchDisc4,2020.2.10,MacIntel,60,,,space,0.27,1,1,0.484,,0,339,339,407,1,2b,65,2,19,
,,,,,,,,,,,,,,,,,,,,,,,,,,images/exp2b_trial_43_colour1_distractors43_r.png,r,2,020,001,2021-04-22_12h46.22.795,searchDisc4,2020.2.10,MacIntel,60,,,space,0.303,2,1,0.545,,0,340,340,385,1,2b,43,1,43,
,,,,,,,,,,,,,,,,,,,,,,,,,,images/exp2a_trial_106_colour3_distractors1_l.png,l,1,020,001,2021-04-22_12h46.22.795,searchDisc4,2020.2.10,MacIntel,60,,,space,0.274,1,1,0.544,,0,341,341,334,1,2a,106,3,1,
,,,,,,,,,,,,,,,,,,,,,,,,,,images/exp1b_trial_94_colour1_distractors1_l.png,l,1,020,001,2021-04-22_12h46.22.795,searchDisc4,2020.2.10,MacIntel,60,,,space,0.27,1,1,0.482,,0,342,342,208,1,1b,94,1,1,
,,,,,,,,,,,,,,,,,,,,,,,,,,images/exp1b_trial_45_colour2_distractors4_r.png,r,2,020,001,2021-04-22_12h46.22.795,searchDisc4,2020.2.10,MacIntel,60,,,space,0.502,2,1,0.584,,0,343,343,159,1,1b,45,2,4,
,,,,,,,,,,,,,,,,,,,,,,,,,,images/exp1a_trial_49_colour2_distractors43_r.png,r,2,020,001,2021-04-22_12h46.22.795,searchDisc4,2020.2.10,MacIntel,60,,,space,0.241,2,1,0.681,,0,344,344,49,1,1a,49,2,43,
,,,,,,,,,,,,,,,,,,,,,,,,,,images/exp1b_trial_65_colour2_distractors19_l.png,l,1,020,001,2021-04-22_12h46.22.795,searchDisc4,2020.2.10,MacIntel,60,,,space,0.301,1,1,0.778,,0,345,345,179,1,1b,65,2,19,
,,,,,,,,,,,,,,,,,,,,,,,,,,images/exp2b_trial_70_colour3_distractors9_l.png,l,1,020,001,2021-04-22_12h46.22.795,searchDisc4,2020.2.10,MacIntel,60,,,space,0.301,1,1,0.577,,0,346,346,412,1,2b,70,3,9,
,,,,,,,,,,,,,,,,,,,,,,,,,,images/exp2c_trial_93_colour3_distractors43_r.png,r,2,020,001,2021-04-22_12h46.22.795,searchDisc4,2020.2.10,MacIntel,60,,,space,0.3,2,1,0.511,,0,347,347,549,1,2c,93,3,43,
,,,,,,,,,,,,,,,,,,,,,,,,,,images/exp2c_trial_64_colour2_distractors9_l.png,l,1,020,001,2021-04-22_12h46.22.795,searchDisc4,2020.2.10,MacIntel,60,,,space,0.334,1,1,0.611,,0,348,348,520,1,2c,64,2,9,
,,,,,,,,,,,,,,,,,,,,,,,,,,images/exp2c_trial_53_colour3_distractors19_r.png,r,2,020,001,2021-04-22_12h46.22.795,searchDisc4,2020.2.10,MacIntel,60,,,space,0.299,2,1,0.543,,0,349,349,509,1,2c,53,3,19,
,,,,,,,,,,,,,,,,,,,,,,,,,,images/exp1b_trial_33_colour3_distractors19_l.png,l,1,020,001,2021-04-22_12h46.22.795,searchDisc4,2020.2.10,MacIntel,60,,,space,0.266,1,1,0.844,,0,350,350,147,1,1b,33,3,19,
,,,,,,,,,,,,,,,,,,,,,,,,,,images/exp1b_trial_11_colour2_distractors43_r.png,r,2,020,001,2021-04-22_12h46.22.795,searchDisc4,2020.2.10,MacIntel,60,,,space,0.266,2,1,1.415,,0,351,351,125,1,1b,11,2,43,
,,,,,,,,,,,,,,,,,,,,,,,,,,images/exp1b_trial_24_colour2_distractors1_l.png,l,1,020,001,2021-04-22_12h46.22.795,searchDisc4,2020.2.10,MacIntel,60,,,space,0.334,1,1,0.51,,0,352,352,138,1,1b,24,2,1,
,,,,,,,,,,,,,,,,,,,,,,,,,,images/exp2b_trial_93_colour3_distractors43_r.png,r,2,020,001,2021-04-22_12h46.22.795,searchDisc4,2020.2.10,MacIntel,60,,,space,0.238,2,1,0.577,,0,353,353,435,1,2b,93,3,43,
,,,,,,,,,,,,,,,,,,,,,,,,,,images/exp2a_trial_24_colour2_distractors1_l.png,l,1,020,001,2021-04-22_12h46.22.795,searchDisc4,2020.2.10,MacIntel,60,,,space,0.301,1,1,0.451,,0,354,354,252,1,2a,24,2,1,
,,,,,,,,,,,,,,,,,,,,,,,,,,images/exp2a_trial_18_colour1_distractors1_l.png,l,1,020,001,2021-04-22_12h46.22.795,searchDisc4,2020.2.10,MacIntel,60,,,space,0.308,1,1,0.478,,0,355,355,246,1,2a,18,1,1,
,,,,,,,,,,,,,,,,,,,,,,,,,,images/exp1b_trial_30_colour3_distractors1_l.png,l,1,020,001,2021-04-22_12h46.22.795,searchDisc4,2020.2.10,MacIntel,60,,,space,0.233,1,1,0.481,,0,356,356,144,1,1b,30,3,1,
,,,,,,,,,,,,,,,,,,,,,,,,,,images/exp2b_trial_6_colour2_distractors1_r.png,r,2,020,001,2021-04-22_12h46.22.795,searchDisc4,2020.2.10,MacIntel,60,,,space,0.274,2,1,0.515,,0,357,357,348,1,2b,6,2,1,
,,,,,,,,,,,,,,,,,,,,,,,,,,images/exp1a_trial_87_colour2_distractors43_r.png,r,2,020,001,2021-04-22_12h46.22.795,searchDisc4,2020.2.10,MacIntel,60,,,space,0.271,2,1,0.52,,0,358,358,87,1,1a,87,2,43,
,,,,,,,,,,,,,,,,,,,,,,,,,,images/exp2a_trial_21_colour1_distractors19_l.png,l,1,020,001,2021-04-22_12h46.22.795,searchDisc4,2020.2.10,MacIntel,60,,,space,0.305,1,1,0.544,space,0,359,359,249,1,2a,21,1,19,0.261
,,,,,,,,,,,,,,,,,,,,,,,,,,images/exp2a_trial_113_colour0_distractors0_l.png,l,1,020,001,2021-04-22_12h46.22.795,searchDisc4,2020.2.10,MacIntel,60,,,space,0.765,1,1,1.079,,0,360,360,341,1,2a,113,0,0,
,,,,,,,,,,,,,,,,,,,,,,,,,,images/exp1b_trial_21_colour1_distractors19_l.png,l,1,020,001,2021-04-22_12h46.22.795,searchDisc4,2020.2.10,MacIntel,60,,,space,0.5,1,1,0.647,,0,361,361,135,1,1b,21,1,19,
,,,,,,,,,,,,,,,,,,,,,,,,,,images/exp1b_trial_80_colour1_distractors31_r.png,r,2,020,001,2021-04-22_12h46.22.795,searchDisc4,2020.2.10,MacIntel,60,,,space,0.3,2,1,0.678,,0,362,362,194,1,1b,80,1,31,
,,,,,,,,,,,,,,,,,,,,,,,,,,images/exp2c_trial_27_colour2_distractors19_l.png,l,1,020,001,2021-04-22_12h46.22.795,searchDisc4,2020.2.10,MacIntel,60,,,space,0.333,1,1,0.542,,0,363,363,483,1,2c,27,2,19,
,,,,,,,,,,,,,,,,,,,,,,,,,,images/exp2c_trial_90_colour3_distractors9_r.png,r,2,020,001,2021-04-22_12h46.22.795,searchDisc4,2020.2.10,MacIntel,60,,,space,0.333,2,1,0.651,,0,364,364,546,1,2c,90,3,9,
,,,,,,,,,,,,,,,,,,,,,,,,,,images/exp2c_trial_97_colour1_distractors19_l.png,l,1,020,001,2021-04-22_12h46.22.795,searchDisc4,2020.2.10,MacIntel,60,,,space,0.27,1,1,0.645,,0,365,365,553,1,2c,97,1,19,
,,,,,,,,,,,,,,,,,,,,,,,,,,images/exp2c_trial_41_colour1_distractors19_r.png,r,2,020,001,2021-04-22_12h46.22.795,searchDisc4,2020.2.10,MacIntel,60,,,space,0.333,2,1,0.678,,0,366,366,497,1,2c,41,1,19,
,,,,,,,,,,,,,,,,,,,,,,,,,,images/exp1b_trial_56_colour1_distractors1_l.png,l,1,020,001,2021-04-22_12h46.22.795,searchDisc4,2020.2.10,MacIntel,60,,,space,0.307,1,1,0.545,,0,367,367,170,1,1b,56,1,1,
,,,,,,,,,,,,,,,,,,,,,,,,,,images/exp2c_trial_62_colour2_distractors1_l.png,l,1,020,001,2021-04-22_12h46.22.795,searchDisc4,2020.2.10,MacIntel,60,,,space,0.333,1,1,0.648,,0,368,368,518,1,2c,62,2,1,
,,,,,,,,,,,,,,,,,,,,,,,,,,images/exp1a_trial_48_colour2_distractors31_r.png,r,2,020,001,2021-04-22_12h46.22.795,searchDisc4,2020.2.10,MacIntel,60,,,space,0.334,2,1,0.514,,0,369,369,48,1,1a,48,2,31,
,,,,,,,,,,,,,,,,,,,,,,,,,,images/exp2a_trial_92_colour3_distractors31_r.png,r,2,020,001,2021-04-22_12h46.22.795,searchDisc4,2020.2.10,MacIntel,60,,,space,0.335,2,1,0.643,,0,370,370,320,1,2a,92,3,31,
,,,,,,,,,,,,,,,,,,,,,,,,,,images/exp2a_trial_12_colour3_distractors1_r.png,r,2,020,001,2021-04-22_12h46.22.795,searchDisc4,2020.2.10,MacIntel,60,,,space,0.301,2,1,0.777,,0,371,371,240,1,2a,12,3,1,
,,,,,,,,,,,,,,,,,,,,,,,,,,images/exp2c_trial_37_colour0_distractors0_l.png,l,1,020,001,2021-04-22_12h46.22.795,searchDisc4,2020.2.10,MacIntel,60,,,space,0.333,1,1,0.446,,0,372,372,493,1,2c,37,0,0,
,,,,,,,,,,,,,,,,,,,,,,,,,,images/exp1b_trial_19_colour1_distractors4_l.png,l,1,020,001,2021-04-22_12h46.22.795,searchDisc4,2020.2.10,MacIntel,60,,,space,0.304,1,1,0.481,,0,373,373,133,1,1b,19,1,4,
,,,,,,,,,,,,,,,,,,,,,,,,,,images/exp2b_trial_110_colour3_distractors31_l.png,l,1,020,001,2021-04-22_12h46.22.795,searchDisc4,2020.2.10,MacIntel,60,,,space,0.27,1,1,0.745,,0,374,374,452,1,2b,110,3,31,
,,,,,,,,,,,,,,,,,,,,,,,,,,images/exp2c_trial_50_colour3_distractors1_r.png,r,2,020,001,2021-04-22_12h46.22.795,searchDisc4,2020.2.10,MacIntel,60,,,space,0.138,2,1,0.581,,0,375,375,506,1,2c,50,3,1,
,,,,,,,,,,,,,,,,,,,,,,,,,,images/exp1a_trial_9_colour2_distractors19_r.png,r,2,020,001,2021-04-22_12h46.22.795,searchDisc4,2020.2.10,MacIntel,60,,,space,0.266,2,1,0.543,,0,376,376,9,1,1a,9,2,19,
,,,,,,,,,,,,,,,,,,,,,,,,,,images/exp2a_trial_89_colour3_distractors4_r.png,r,2,020,001,2021-04-22_12h46.22.795,searchDisc4,2020.2.10,MacIntel,60,,,space,0.27,2,1,0.549,,0,377,377,317,1,2a,89,3,4,
,,,,,,,,,,,,,,,,,,,,,,,,,,images/exp2c_trial_102_colour2_distractors9_l.png,l,1,020,001,2021-04-22_12h46.22.795,searchDisc4,2020.2.10,MacIntel,60,,,space,0.298,1,1,0.584,,0,378,378,558,1,2c,102,2,9,
,,,,,,,,,,,,,,,,,,,,,,,,,,images/exp1b_trial_84_colour2_distractors9_r.png,r,2,020,001,2021-04-22_12h46.22.795,searchDisc4,2020.2.10,MacIntel,60,,,space,0.269,2,1,0.648,,0,379,379,198,1,1b,84,2,9,
,,,,,,,,,,,,,,,,,,,,,,,,,,images/exp2a_trial_44_colour2_distractors1_r.png,r,2,020,001,2021-04-22_12h46.22.795,searchDisc4,2020.2.10,MacIntel,60,,,space,0.266,2,1,0.61,,0,380,380,272,1,2a,44,2,1,
,,,,,,,,,,,,,,,,,,,,,,,,,,images/exp1a_trial_54_colour3_distractors31_r.png,r,2,020,001,2021-04-22_12h46.22.795,searchDisc4,2020.2.10,MacIntel,60,,,space,0.266,2,1,0.644,,0,381,381,54,1,1a,54,3,31,
,,,,,,,,,,,,,,,,,,,,,,,,,,images/exp1b_trial_78_colour1_distractors9_r.png,r,2,020,001,2021-04-22_12h46.22.795,searchDisc4,2020.2.10,MacIntel,60,,,space,0.233,2,1,0.877,,0,382,382,192,1,1b,78,1,9,
,,,,,,,,,,,,,,,,,,,,,,,,,,images/exp2a_trial_10_colour2_distractors31_r.png,r,2,020,001,2021-04-22_12h46.22.795,searchDisc4,2020.2.10,MacIntel,60,,,space,0.27,2,1,0.546,,0,383,383,238,1,2a,10,2,31,
,,,,,,,,,,,,,,,,,,,,,,,,,,images/exp1b_trial_107_colour3_distractors4_l.png,l,1,020,001,2021-04-22_12h46.22.795,searchDisc4,2020.2.10,MacIntel,60,,,space,0.302,1,1,0.981,,0,384,384,221,1,1b,107,3,4,
,,,,,,,,,,,,,,,,,,,,,,,,,,images/exp2c_trial_91_colour3_distractors19_r.png,r,2,020,001,2021-04-22_12h46.22.795,searchDisc4,2020.2.10,MacIntel,60,,,space,0.332,2,1,0.543,,0,385,385,547,1,2c,91,3,19,
,,,,,,,,,,,,,,,,,,,,,,,,,,images/exp2c_trial_51_colour3_distractors4_r.png,r,2,020,001,2021-04-22_12h46.22.795,searchDisc4,2020.2.10,MacIntel,60,,,space,0.301,2,1,0.549,,0,386,386,507,1,2c,51,3,4,
,,,,,,,,,,,,,,,,,,,,,,,,,,images/exp2a_trial_83_colour2_distractors4_r.png,r,2,020,001,2021-04-22_12h46.22.795,searchDisc4,2020.2.10,MacIntel,60,,,space,0.3,2,1,0.51,,0,387,387,311,1,2a,83,2,4,
,,,,,,,,,,,,,,,,,,,,,,,,,,images/exp2c_trial_5_colour1_distractors43_r.png,r,2,020,001,2021-04-22_12h46.22.795,searchDisc4,2020.2.10,MacIntel,60,,,space,0.266,2,1,0.584,,0,388,388,461,1,2c,5,1,43,
,,,,,,,,,,,,,,,,,,,,,,,,,,images/exp2a_trial_75_colour0_distractors0_l.png,l,1,020,001,2021-04-22_12h46.22.795,searchDisc4,2020.2.10,MacIntel,60,,,space,0.273,1,1,0.48,,0,389,389,303,1,2a,75,0,0,
,,,,,,,,,,,,,,,,,,,,,,,,,,images/exp1a_trial_41_colour1_distractors19_r.png,r,2,020,001,2021-04-22_12h46.22.795,searchDisc4,2020.2.10,MacIntel,60,,,space,0.471,2,1,0.645,,0,390,390,41,1,1a,41,1,19,
,,,,,,,,,,,,,,,,,,,,,,,,,,images/exp2a_trial_36_colour0_distractors0_r.png,r,2,020,001,2021-04-22_12h46.22.795,searchDisc4,2020.2.10,MacIntel,60,,,space,0.208,2,1,0.478,,0,391,391,264,1,2a,36,0,0,
,,,,,,,,,,,,,,,,,,,,,,,,,,images/exp2a_trial_56_colour1_distractors1_l.png,l,1,020,001,2021-04-22_12h46.22.795,searchDisc4,2020.2.10,MacIntel,60,,,space,0.265,1,1,0.613,,0,392,392,284,1,2a,56,1,1,
,,,,,,,,,,,,,,,,,,,,,,,,,,images/exp1a_trial_58_colour1_distractors9_l.png,l,1,020,001,2021-04-22_12h46.22.795,searchDisc4,2020.2.10,MacIntel,60,,,space,0.302,1,1,0.516,,0,393,393,58,1,1a,58,1,9,
,,,,,,,,,,,,,,,,,,,,,,,,,,images/exp2c_trial_69_colour3_distractors4_l.png,l,1,020,001,2021-04-22_12h46.22.795,searchDisc4,2020.2.10,MacIntel,60,,,space,0.266,1,1,0.677,,0,394,394,525,1,2c,69,3,4,
,,,,,,,,,,,,,,,,,,,,,,,,,,images/exp2a_trial_107_colour3_distractors4_l.png,l,1,020,001,2021-04-22_12h46.22.795,searchDisc4,2020.2.10,MacIntel,60,,,space,0.236,1,1,0.515,,0,395,395,335,1,2a,107,3,4,
,,,,,,,,,,,,,,,,,,,,,,,,,,images/exp2b_trial_51_colour3_distractors4_r.png,r,2,020,001,2021-04-22_12h46.22.795,searchDisc4,2020.2.10,MacIntel,60,,,space,0.272,2,1,0.718,,0,396,396,393,1,2b,51,3,4,
,,,,,,,,,,,,,,,,,,,,,,,,,,images/exp1b_trial_47_colour2_distractors19_r.png,r,2,020,001,2021-04-22_12h46.22.795,searchDisc4,2020.2.10,MacIntel,60,,,space,0.305,2,1,0.678,,0,397,397,161,1,1b,47,2,19,
,,,,,,,,,,,,,,,,,,,,,,,,,,images/exp1a_trial_106_colour3_distractors1_l.png,l,1,020,001,2021-04-22_12h46.22.795,searchDisc4,2020.2.10,MacIntel,60,,,space,0.268,1,1,0.579,,0,398,398,106,1,1a,106,3,1,
,,,,,,,,,,,,,,,,,,,,,,,,,,images/exp2a_trial_1_colour1_distractors4_r.png,r,2,020,001,2021-04-22_12h46.22.795,searchDisc4,2020.2.10,MacIntel,60,,,space,0.209,2,1,0.58,,0,399,399,229,1,2a,1,1,4,
,,,,,,,,,,,,,,,,,,,,,,,,,,images/exp1b_trial_17_colour3_distractors43_r.png,r,2,020,001,2021-04-22_12h46.22.795,searchDisc4,2020.2.10,MacIntel,60,,,space,0.233,2,1,1.648,,0,400,400,131,1,1b,17,3,43,
,,,,,,,,,,,,,,,,,,,,,,,,,,images/exp1a_trial_42_colour1_distractors31_r.png,r,2,020,001,2021-04-22_12h46.22.795,searchDisc4,2020.2.10,MacIntel,60,,,space,0.333,2,1,0.544,,0,401,401,42,1,1a,42,1,31,
,,,,,,,,,,,,,,,,,,,,,,,,,,images/exp2a_trial_102_colour2_distractors9_l.png,l,1,020,001,2021-04-22_12h46.22.795,searchDisc4,2020.2.10,MacIntel,60,,,space,0.273,1,1,0.515,,0,402,402,330,1,2a,102,2,9,
,,,,,,,,,,,,,,,,,,,,,,,,,,images/exp2c_trial_77_colour1_distractors4_r.png,r,2,020,001,2021-04-22_12h46.22.795,searchDisc4,2020.2.10,MacIntel,60,,,space,0.298,1,0,0.511,,0,403,403,533,1,2c,77,1,4,
,,,,,,,,,,,,,,,,,,,,,,,,,,images/exp2a_trial_41_colour1_distractors19_r.png,r,2,020,001,2021-04-22_12h46.22.795,searchDisc4,2020.2.10,MacIntel,60,,,space,0.476,2,1,0.614,,0,404,404,269,1,2a,41,1,19,
,,,,,,,,,,,,,,,,,,,,,,,,,,images/exp2b_trial_59_colour1_distractors19_l.png,l,1,020,001,2021-04-22_12h46.22.795,searchDisc4,2020.2.10,MacIntel,60,,,space,0.271,1,1,0.548,,0,405,405,401,1,2b,59,1,19,
,,,,,,,,,,,,,,,,,,,,,,,,,,images/exp1a_trial_11_colour2_distractors43_r.png,r,2,020,001,2021-04-22_12h46.22.795,searchDisc4,2020.2.10,MacIntel,60,,,space,0.267,2,1,0.547,,0,406,406,11,1,1a,11,2,43,
,,,,,,,,,,,,,,,,,,,,,,,,,,images/exp1b_trial_57_colour1_distractors4_l.png,l,1,020,001,2021-04-22_12h46.22.795,searchDisc4,2020.2.10,MacIntel,60,,,space,0.305,1,1,0.643,,0,407,407,171,1,1b,57,1,4,
,,,,,,,,,,,,,,,,,,,,,,,,,,images/exp1b_trial_15_colour3_distractors19_r.png,r,2,020,001,2021-04-22_12h46.22.795,searchDisc4,2020.2.10,MacIntel,60,,,space,0.336,2,1,0.716,,0,408,408,129,1,1b,15,3,19,
,,,,,,,,,,,,,,,,,,,,,,,,,,images/exp2c_trial_65_colour2_distractors19_l.png,l,1,020,001,2021-04-22_12h46.22.795,searchDisc4,2020.2.10,MacIntel,60,,,space,0.334,1,1,0.678,,0,409,409,521,1,2c,65,2,19,
,,,,,,,,,,,,,,,,,,,,,,,,,,images/exp1a_trial_108_colour3_distractors9_l.png,l,1,020,001,2021-04-22_12h46.22.795,searchDisc4,2020.2.10,MacIntel,60,,,space,0.267,1,1,0.577,,0,410,410,108,1,1a,108,3,9,
,,,,,,,,,,,,,,,,,,,,,,,,,,images/exp2a_trial_87_colour2_distractors43_r.png,r,2,020,001,2021-04-22_12h46.22.795,searchDisc4,2020.2.10,MacIntel,60,,,space,0.275,2,1,0.678,,0,411,411,315,1,2a,87,2,43,
,,,,,,,,,,,,,,,,,,,,,,,,,,images/exp2a_trial_96_colour1_distractors9_l.png,l,1,020,001,2021-04-22_12h46.22.795,searchDisc4,2020.2.10,MacIntel,60,,,space,0.266,1,1,0.51,,0,412,412,324,1,2a,96,1,9,
,,,,,,,,,,,,,,,,,,,,,,,,,,images/exp2c_trial_35_colour3_distractors43_l.png,l,1,020,001,2021-04-22_12h46.22.795,searchDisc4,2020.2.10,MacIntel,60,,,space,0.299,1,1,0.581,,0,413,413,491,1,2c,35,3,43,
,,,,,,,,,,,,,,,,,,,,,,,,,,images/exp2b_trial_35_colour3_distractors43_l.png,l,1,020,001,2021-04-22_12h46.22.795,searchDisc4,2020.2.10,MacIntel,60,,,space,0.3,1,1,0.551,,0,414,414,377,1,2b,35,3,43,
,,,,,,,,,,,,,,,,,,,,,,,,,,images/exp1a_trial_68_colour3_distractors1_l.png,l,1,020,001,2021-04-22_12h46.22.795,searchDisc4,2020.2.10,MacIntel,60,,,space,0.371,1,1,0.579,,0,415,415,68,1,1a,68,3,1,
,,,,,,,,,,,,,,,,,,,,,,,,,,images/exp1a_trial_66_colour2_distractors31_l.png,l,1,020,001,2021-04-22_12h46.22.795,searchDisc4,2020.2.10,MacIntel,60,,,space,0.274,1,1,0.544,,0,416,416,66,1,1a,66,2,31,
,,,,,,,,,,,,,,,,,,,,,,,,,,images/exp2b_trial_48_colour2_distractors31_r.png,r,2,020,001,2021-04-22_12h46.22.795,searchDisc4,2020.2.10,MacIntel,60,,,space,0.299,2,1,0.545,,0,417,417,390,1,2b,48,2,31,
,,,,,,,,,,,,,,,,,,,,,,,,,,images/exp1b_trial_88_colour3_distractors1_r.png,r,2,020,001,2021-04-22_12h46.22.795,searchDisc4,2020.2.10,MacIntel,60,,,space,0.341,2,1,0.588,,0,418,418,202,1,1b,88,3,1,
,,,,,,,,,,,,,,,,,,,,,,,,,,images/exp1a_trial_60_colour1_distractors31_l.png,l,1,020,001,2021-04-22_12h46.22.795,searchDisc4,2020.2.10,MacIntel,60,,,space,0.272,1,1,0.511,space,0,419,419,60,1,1a,60,1,31,0.265
,,,,,,,,,,,,,,,,,,,,,,,,,,images/exp1a_trial_73_colour3_distractors43_l.png,l,1,020,001,2021-04-22_12h46.22.795,searchDisc4,2020.2.10,MacIntel,60,,,space,0.635,1,1,0.58,,0,420,420,73,1,1a,73,3,43,
,,,,,,,,,,,,,,,,,,,,,,,,,,images/exp1a_trial_75_colour0_distractors0_l.png,l,1,020,001,2021-04-22_12h46.22.795,searchDisc4,2020.2.10,MacIntel,60,,,space,0.236,1,1,0.454,,0,421,421,75,1,1a,75,0,0,
,,,,,,,,,,,,,,,,,,,,,,,,,,images/exp2c_trial_92_colour3_distractors31_r.png,r,2,020,001,2021-04-22_12h46.22.795,searchDisc4,2020.2.10,MacIntel,60,,,space,0.27,2,1,0.478,,0,422,422,548,1,2c,92,3,31,
,,,,,,,,,,,,,,,,,,,,,,,,,,images/exp2c_trial_57_colour1_distractors4_l.png,l,1,020,001,2021-04-22_12h46.22.795,searchDisc4,2020.2.10,MacIntel,60,,,space,0.334,1,1,0.478,,0,423,423,513,1,2c,57,1,4,
,,,,,,,,,,,,,,,,,,,,,,,,,,images/exp2a_trial_65_colour2_distractors19_l.png,l,1,020,001,2021-04-22_12h46.22.795,searchDisc4,2020.2.10,MacIntel,60,,,space,0.275,1,1,0.612,,0,424,424,293,1,2a,65,2,19,
,,,,,,,,,,,,,,,,,,,,,,,,,,images/exp2b_trial_9_colour2_distractors19_r.png,r,2,020,001,2021-04-22_12h46.22.795,searchDisc4,2020.2.10,MacIntel,60,,,space,0.265,2,1,0.578,,0,425,425,351,1,2b,9,2,19,
,,,,,,,,,,,,,,,,,,,,,,,,,,images/exp2b_trial_68_colour3_distractors1_l.png,l,1,020,001,2021-04-22_12h46.22.795,searchDisc4,2020.2.10,MacIntel,60,,,space,0.237,2,0,0.478,,0,426,426,410,1,2b,68,3,1,
,,,,,,,,,,,,,,,,,,,,,,,,,,images/exp2a_trial_72_colour3_distractors31_l.png,l,1,020,001,2021-04-22_12h46.22.795,searchDisc4,2020.2.10,MacIntel,60,,,space,0.436,1,1,0.579,,0,427,427,300,1,2a,72,3,31,
,,,,,,,,,,,,,,,,,,,,,,,,,,images/exp1b_trial_36_colour0_distractors0_r.png,r,2,020,001,2021-04-22_12h46.22.795,searchDisc4,2020.2.10,MacIntel,60,,,space,0.267,2,1,0.546,,0,428,428,150,1,1b,36,0,0,
,,,,,,,,,,,,,,,,,,,,,,,,,,images/exp2b_trial_23_colour1_distractors43_l.png,l,1,020,001,2021-04-22_12h46.22.795,searchDisc4,2020.2.10,MacIntel,60,,,space,0.273,1,1,0.544,,0,429,429,365,1,2b,23,1,43,
,,,,,,,,,,,,,,,,,,,,,,,,,,images/exp1b_trial_48_colour2_distractors31_r.png,r,2,020,001,2021-04-22_12h46.22.795,searchDisc4,2020.2.10,MacIntel,60,,,space,0.433,2,1,0.546,,0,430,430,162,1,1b,48,2,31,
,,,,,,,,,,,,,,,,,,,,,,,,,,images/exp1b_trial_3_colour1_distractors19_r.png,r,2,020,001,2021-04-22_12h46.22.795,searchDisc4,2020.2.10,MacIntel,60,,,space,0.232,2,1,0.648,,0,431,431,117,1,1b,3,1,19,
,,,,,,,,,,,,,,,,,,,,,,,,,,images/exp2c_trial_68_colour3_distractors1_l.png,l,1,020,001,2021-04-22_12h46.22.795,searchDisc4,2020.2.10,MacIntel,60,,,space,0.302,1,1,0.476,,0,432,432,524,1,2c,68,3,1,
,,,,,,,,,,,,,,,,,,,,,,,,,,images/exp2a_trial_110_colour3_distractors31_l.png,l,1,020,001,2021-04-22_12h46.22.795,searchDisc4,2020.2.10,MacIntel,60,,,space,0.266,1,1,0.543,,0,433,433,338,1,2a,110,3,31,
,,,,,,,,,,,,,,,,,,,,,,,,,,images/exp1a_trial_5_colour1_distractors43_r.png,r,2,020,001,2021-04-22_12h46.22.795,searchDisc4,2020.2.10,MacIntel,60,,,space,0.201,2,1,0.646,,0,434,434,5,1,1a,5,1,43,
,,,,,,,,,,,,,,,,,,,,,,,,,,images/exp2c_trial_52_colour3_distractors9_r.png,r,2,020,001,2021-04-22_12h46.22.795,searchDisc4,2020.2.10,MacIntel,60,,,space,0.266,2,1,0.486,,0,435,435,508,1,2c,52,3,9,
,,,,,,,,,,,,,,,,,,,,,,,,,,images/exp2b_trial_41_colour1_distractors19_r.png,r,2,020,001,2021-04-22_12h46.22.795,searchDisc4,2020.2.10,MacIntel,60,,,space,0.3,2,1,0.477,,0,436,436,383,1,2b,41,1,19,
,,,,,,,,,,,,,,,,,,,,,,,,,,images/exp2c_trial_89_colour3_distractors4_r.png,r,2,020,001,2021-04-22_12h46.22.795,searchDisc4,2020.2.10,MacIntel,60,,,space,0.268,1,0,0.482,,0,437,437,545,1,2c,89,3,4,
,,,,,,,,,,,,,,,,,,,,,,,,,,images/exp2a_trial_74_colour0_distractors0_r.png,r,2,020,001,2021-04-22_12h46.22.795,searchDisc4,2020.2.10,MacIntel,60,,,space,0.436,2,1,0.581,,0,438,438,302,1,2a,74,0,0,
,,,,,,,,,,,,,,,,,,,,,,,,,,images/exp2a_trial_55_colour3_distractors43_r.png,r,2,020,001,2021-04-22_12h46.22.795,searchDisc4,2020.2.10,MacIntel,60,,,space,0.237,2,1,0.71,,0,439,439,283,1,2a,55,3,43,
,,,,,,,,,,,,,,,,,,,,,,,,,,images/exp1b_trial_10_colour2_distractors31_r.png,r,2,020,001,2021-04-22_12h46.22.795,searchDisc4,2020.2.10,MacIntel,60,,,space,7.535,2,1,0.644,,0,440,440,124,1,1b,10,2,31,
,,,,,,,,,,,,,,,,,,,,,,,,,,images/exp2b_trial_81_colour1_distractors43_r.png,r,2,020,001,2021-04-22_12h46.22.795,searchDisc4,2020.2.10,MacIntel,60,,,space,0.435,2,1,0.547,,0,441,441,423,1,2b,81,1,43,
,,,,,,,,,,,,,,,,,,,,,,,,,,images/exp2b_trial_37_colour0_distractors0_l.png,l,1,020,001,2021-04-22_12h46.22.795,searchDisc4,2020.2.10,MacIntel,60,,,space,0.334,1,1,0.511,,0,442,442,379,1,2b,37,0,0,
,,,,,,,,,,,,,,,,,,,,,,,,,,images/exp2a_trial_31_colour3_distractors4_l.png,l,1,020,001,2021-04-22_12h46.22.795,searchDisc4,2020.2.10,MacIntel,60,,,space,0.298,1,1,0.487,,0,443,443,259,1,2a,31,3,4,
,,,,,,,,,,,,,,,,,,,,,,,,,,images/exp1a_trial_32_colour3_distractors9_l.png,l,1,020,001,2021-04-22_12h46.22.795,searchDisc4,2020.2.10,MacIntel,60,,,space,0.304,1,1,0.447,,0,444,444,32,1,1a,32,3,9,
,,,,,,,,,,,,,,,,,,,,,,,,,,images/exp1a_trial_88_colour3_distractors1_r.png,r,2,020,001,2021-04-22_12h46.22.795,searchDisc4,2020.2.10,MacIntel,60,,,space,0.304,2,1,0.511,,0,445,445,88,1,1a,88,3,1,
,,,,,,,,,,,,,,,,,,,,,,,,,,images/exp2b_trial_99_colour1_distractors43_l.png,l,1,020,001,2021-04-22_12h46.22.795,searchDisc4,2020.2.10,MacIntel,60,,,space,0.235,1,1,0.553,,0,446,446,441,1,2b,99,1,43,
,,,,,,,,,,,,,,,,,,,,,,,,,,images/exp2c_trial_56_colour1_distractors1_l.png,l,1,020,001,2021-04-22_12h46.22.795,searchDisc4,2020.2.10,MacIntel,60,,,space,0.302,1,1,0.517,,0,447,447,512,1,2c,56,1,1,
,,,,,,,,,,,,,,,,,,,,,,,,,,images/exp2c_trial_9_colour2_distractors19_r.png,r,2,020,001,2021-04-22_12h46.22.795,searchDisc4,2020.2.10,MacIntel,60,,,space,0.302,2,1,0.544,,0,448,448,465,1,2c,9,2,19,
,,,,,,,,,,,,,,,,,,,,,,,,,,images/exp2b_trial_76_colour1_distractors1_r.png,r,2,020,001,2021-04-22_12h46.22.795,searchDisc4,2020.2.10,MacIntel,60,,,space,0.267,2,1,0.48,,0,449,449,418,1,2b,76,1,1,
,,,,,,,,,,,,,,,,,,,,,,,,,,images/exp1a_trial_71_colour3_distractors19_l.png,l,1,020,001,2021-04-22_12h46.22.795,searchDisc4,2020.2.10,MacIntel,60,,,space,0.233,1,1,0.477,,0,450,450,71,1,1a,71,3,19,
,,,,,,,,,,,,,,,,,,,,,,,,,,images/exp1b_trial_61_colour1_distractors43_l.png,l,1,020,001,2021-04-22_12h46.22.795,searchDisc4,2020.2.10,MacIntel,60,,,space,0.337,1,1,0.611,,0,451,451,175,1,1b,61,1,43,
,,,,,,,,,,,,,,,,,,,,,,,,,,images/exp2c_trial_110_colour3_distractors31_l.png,l,1,020,001,2021-04-22_12h46.22.795,searchDisc4,2020.2.10,MacIntel,60,,,space,0.268,1,1,0.512,,0,452,452,566,1,2c,110,3,31,
,,,,,,,,,,,,,,,,,,,,,,,,,,images/exp1a_trial_86_colour2_distractors31_r.png,r,2,020,001,2021-04-22_12h46.22.795,searchDisc4,2020.2.10,MacIntel,60,,,space,0.238,2,1,0.745,,0,453,453,86,1,1a,86,2,31,
,,,,,,,,,,,,,,,,,,,,,,,,,,images/exp2c_trial_72_colour3_distractors31_l.png,l,1,020,001,2021-04-22_12h46.22.795,searchDisc4,2020.2.10,MacIntel,60,,,space,0.209,1,1,0.682,,0,454,454,528,1,2c,72,3,31,
,,,,,,,,,,,,,,,,,,,,,,,,,,images/exp1b_trial_83_colour2_distractors4_r.png,r,2,020,001,2021-04-22_12h46.22.795,searchDisc4,2020.2.10,MacIntel,60,,,space,0.273,2,1,0.581,,0,455,455,197,1,1b,83,2,4,
,,,,,,,,,,,,,,,,,,,,,,,,,,images/exp2a_trial_101_colour2_distractors4_l.png,l,1,020,001,2021-04-22_12h46.22.795,searchDisc4,2020.2.10,MacIntel,60,,,space,0.267,1,1,0.615,,0,456,456,329,1,2a,101,2,4,
,,,,,,,,,,,,,,,,,,,,,,,,,,images/exp2a_trial_50_colour3_distractors1_r.png,r,2,020,001,2021-04-22_12h46.22.795,searchDisc4,2020.2.10,MacIntel,60,,,space,0.268,2,1,0.678,,0,457,457,278,1,2a,50,3,1,
,,,,,,,,,,,,,,,,,,,,,,,,,,images/exp2c_trial_30_colour3_distractors1_l.png,l,1,020,001,2021-04-22_12h46.22.795,searchDisc4,2020.2.10,MacIntel,60,,,space,0.235,1,1,0.681,,0,458,458,486,1,2c,30,3,1,
,,,,,,,,,,,,,,,,,,,,,,,,,,images/exp1a_trial_100_colour2_distractors1_l.png,l,1,020,001,2021-04-22_12h46.22.795,searchDisc4,2020.2.10,MacIntel,60,,,space,0.237,1,1,0.615,,0,459,459,100,1,1a,100,2,1,
,,,,,,,,,,,,,,,,,,,,,,,,,,images/exp2a_trial_25_colour2_distractors4_l.png,l,1,020,001,2021-04-22_12h46.22.795,searchDisc4,2020.2.10,MacIntel,60,,,space,0.271,1,1,0.578,,0,460,460,253,1,2a,25,2,4,
,,,,,,,,,,,,,,,,,,,,,,,,,,images/exp2c_trial_31_colour3_distractors4_l.png,l,1,020,001,2021-04-22_12h46.22.795,searchDisc4,2020.2.10,MacIntel,60,,,space,0.236,1,1,0.581,,0,461,461,487,1,2c,31,3,4,
,,,,,,,,,,,,,,,,,,,,,,,,,,images/exp1b_trial_27_colour2_distractors19_l.png,l,1,020,001,2021-04-22_12h46.22.795,searchDisc4,2020.2.10,MacIntel,60,,,space,0.265,1,1,0.818,,0,462,462,141,1,1b,27,2,19,
,,,,,,,,,,,,,,,,,,,,,,,,,,images/exp2c_trial_107_colour3_distractors4_l.png,l,1,020,001,2021-04-22_12h46.22.795,searchDisc4,2020.2.10,MacIntel,60,,,space,0.267,1,1,0.452,,0,463,463,563,1,2c,107,3,4,
,,,,,,,,,,,,,,,,,,,,,,,,,,images/exp2c_trial_22_colour1_distractors31_l.png,l,1,020,001,2021-04-22_12h46.22.795,searchDisc4,2020.2.10,MacIntel,60,,,space,0.301,1,1,0.683,,0,464,464,478,1,2c,22,1,31,
,,,,,,,,,,,,,,,,,,,,,,,,,,images/exp2c_trial_48_colour2_distractors31_r.png,r,2,020,001,2021-04-22_12h46.22.795,searchDisc4,2020.2.10,MacIntel,60,,,space,0.267,2,1,0.678,,0,465,465,504,1,2c,48,2,31,
,,,,,,,,,,,,,,,,,,,,,,,,,,images/exp2b_trial_87_colour2_distractors43_r.png,r,2,020,001,2021-04-22_12h46.22.795,searchDisc4,2020.2.10,MacIntel,60,,,space,0.299,2,1,0.748,,0,466,466,429,1,2b,87,2,43,
,,,,,,,,,,,,,,,,,,,,,,,,,,images/exp1b_trial_73_colour3_distractors43_l.png,l,1,020,001,2021-04-22_12h46.22.795,searchDisc4,2020.2.10,MacIntel,60,,,space,0.307,2,0,1.044,,0,467,467,187,1,1b,73,3,43,
,,,,,,,,,,,,,,,,,,,,,,,,,,images/exp1a_trial_78_colour1_distractors9_r.png,r,2,020,001,2021-04-22_12h46.22.795,searchDisc4,2020.2.10,MacIntel,60,,,space,0.439,2,1,0.581,,0,468,468,78,1,1a,78,1,9,
,,,,,,,,,,,,,,,,,,,,,,,,,,images/exp2b_trial_32_colour3_distractors9_l.png,l,1,020,001,2021-04-22_12h46.22.795,searchDisc4,2020.2.10,MacIntel,60,,,space,0.271,1,1,0.647,,0,469,469,374,1,2b,32,3,9,
,,,,,,,,,,,,,,,,,,,,,,,,,,images/exp2c_trial_46_colour2_distractors9_r.png,r,2,020,001,2021-04-22_12h46.22.795,searchDisc4,2020.2.10,MacIntel,60,,,space,0.266,2,1,0.584,,0,470,470,502,1,2c,46,2,9,
,,,,,,,,,,,,,,,,,,,,,,,,,,images/exp2b_trial_7_colour2_distractors4_r.png,r,2,020,001,2021-04-22_12h46.22.795,searchDisc4,2020.2.10,MacIntel,60,,,space,0.305,2,1,0.517,,0,471,471,349,1,2b,7,2,4,
,,,,,,,,,,,,,,,,,,,,,,,,,,images/exp2b_trial_19_colour1_distractors4_l.png,l,1,020,001,2021-04-22_12h46.22.795,searchDisc4,2020.2.10,MacIntel,60,,,space,0.367,1,1,0.544,,0,472,472,361,1,2b,19,1,4,
,,,,,,,,,,,,,,,,,,,,,,,,,,images/exp1b_trial_92_colour3_distractors31_r.png,r,2,020,001,2021-04-22_12h46.22.795,searchDisc4,2020.2.10,MacIntel,60,,,space,0.266,2,1,0.612,,0,473,473,206,1,1b,92,3,31,
,,,,,,,,,,,,,,,,,,,,,,,,,,images/exp2b_trial_92_colour3_distractors31_r.png,r,2,020,001,2021-04-22_12h46.22.795,searchDisc4,2020.2.10,MacIntel,60,,,space,0.234,2,1,0.679,,0,474,474,434,1,2b,92,3,31,
,,,,,,,,,,,,,,,,,,,,,,,,,,images/exp2a_trial_47_colour2_distractors19_r.png,r,2,020,001,2021-04-22_12h46.22.795,searchDisc4,2020.2.10,MacIntel,60,,,space,0.303,2,1,0.615,,0,475,475,275,1,2a,47,2,19,
,,,,,,,,,,,,,,,,,,,,,,,,,,images/exp2b_trial_33_colour3_distractors19_l.png,l,1,020,001,2021-04-22_12h46.22.795,searchDisc4,2020.2.10,MacIntel,60,,,space,0.266,1,1,0.645,,0,476,476,375,1,2b,33,3,19,
,,,,,,,,,,,,,,,,,,,,,,,,,,images/exp1a_trial_95_colour1_distractors4_l.png,l,1,020,001,2021-04-22_12h46.22.795,searchDisc4,2020.2.10,MacIntel,60,,,space,0.265,1,1,0.548,,0,477,477,95,1,1a,95,1,4,
,,,,,,,,,,,,,,,,,,,,,,,,,,images/exp2c_trial_112_colour0_distractors0_r.png,r,2,020,001,2021-04-22_12h46.22.795,searchDisc4,2020.2.10,MacIntel,60,,,space,0.335,2,1,0.611,,0,478,478,568,1,2c,112,0,0,
,,,,,,,,,,,,,,,,,,,,,,,,,,images/exp2b_trial_103_colour2_distractors19_l.png,l,1,020,001,2021-04-22_12h46.22.795,searchDisc4,2020.2.10,MacIntel,60,,,space,0.27,1,1,0.544,,0,479,479,445,1,2b,103,2,19,
,,,,,,,,,,,,,,,,,,,,,,,,,,images/exp2c_trial_2_colour1_distractors9_r.png,r,2,020,001,2021-04-22_12h46.22.795,searchDisc4,2020.2.10,MacIntel,60,,,space,0.333,2,1,0.482,,0,480,480,458,1,2c,2,1,9,
,,,,,,,,,,,,,,,,,,,,,,,,,,images/exp2a_trial_81_colour1_distractors43_r.png,r,2,020,001,2021-04-22_12h46.22.795,searchDisc4,2020.2.10,MacIntel,60,,,space,0.233,2,1,0.546,,0,481,481,309,1,2a,81,1,43,
,,,,,,,,,,,,,,,,,,,,,,,,,,images/exp1b_trial_7_colour2_distractors4_r.png,r,2,020,001,2021-04-22_12h46.22.795,searchDisc4,2020.2.10,MacIntel,60,,,space,0.331,2,1,0.581,,0,482,482,121,1,1b,7,2,4,
