X Scale,Y Scale,key_resp_10.keys,key_resp_10.rt,key_resp_11.keys,key_resp_11.rt,key_resp_12.keys,key_resp_12.rt,key_resp_13.keys,key_resp_13.rt,key_resp_5.keys,key_resp_5.rt,key_resp_8.keys,key_resp_8.rt,key_resp_6.keys,key_resp_6.rt,key_resp_7.keys,key_resp_7.rt,key_resp_4.keys,key_resp_4.corr,key_resp_4.rt,trials_2.thisRepN,trials_2.thisTrialN,trials_2.thisN,trials_2.thisIndex,trials_2.ran,ImageFile,targ_side,correctAnswer,participant,session,date,expName,psychopyVersion,OS,frameRate,key_resp_3.keys,key_resp_3.rt,key_resp_9.keys,key_resp_9.rt,key_resp_2.keys,key_resp_2.corr,key_resp_2.rt,key_resp.keys,trials.thisRepN,trials.thisTrialN,trials.thisN,trials.thisIndex,trials.ran,exp,trial,colour,distNo,key_resp.rt
19.8,20,space,5.064495,space,9.77118,space,5.04799,space,1.934285,space,3.89714,space,15.36169,space,4.476635,space,4.22097,2,1,2.077305,0,0,0,7,1,Practice arrays/exp1a_trial_13_colour3_distractors4_r.png,r,2,021,001,2021-04-22_17h53.14.222,searchDisc4,2020.2.10,Win32,60,,,,,,,,,,,,,,,,,,
,,,,,,,,,,,,,,,,space,4.83925,1,0,0.832165,0,1,1,3,1,Practice arrays/exp1a_trial_7_colour2_distractors4_r.png,r,2,021,001,2021-04-22_17h53.14.222,searchDisc4,2020.2.10,Win32,60,,,,,,,,,,,,,,,,,,
,,,,,,,,,,,,,,,,space,1.716775,1,1,0.860105,0,2,2,10,1,Practice arrays/exp1a_trial_20_colour1_distractors9_l.png,l,1,021,001,2021-04-22_17h53.14.222,searchDisc4,2020.2.10,Win32,60,,,,,,,,,,,,,,,,,,
,,,,,,,,,,,,,,,,space,0.79783,1,1,0.82206,0,3,3,15,1,Practice arrays/exp1a_trial_32_colour3_distractors9_l.png,l,1,021,001,2021-04-22_17h53.14.222,searchDisc4,2020.2.10,Win32,60,,,,,,,,,,,,,,,,,,
,,,,,,,,,,,,,,,,space,1.41184,2,1,0.84474,0,4,4,0,1,Practice arrays/exp1a_trial_0_colour1_distractors1_r.png,r,2,021,001,2021-04-22_17h53.14.222,searchDisc4,2020.2.10,Win32,60,,,,,,,,,,,,,,,,,,
,,,,,,,,,,,,,,,,space,2.333355,2,1,0.589315,0,5,5,6,1,Practice arrays/exp1a_trial_12_colour3_distractors1_r.png,r,2,021,001,2021-04-22_17h53.14.222,searchDisc4,2020.2.10,Win32,60,,,,,,,,,,,,,,,,,,
,,,,,,,,,,,,,,,,space,0.63308,2,1,2.76662,0,6,6,4,1,Practice arrays/exp1a_trial_8_colour2_distractors9_r.png,r,2,021,001,2021-04-22_17h53.14.222,searchDisc4,2020.2.10,Win32,60,,,,,,,,,,,,,,,,,,
,,,,,,,,,,,,,,,,space,0.414215,2,1,0.613315,0,7,7,2,1,Practice arrays/exp1a_trial_5_colour1_distractors43_r.png,r,2,021,001,2021-04-22_17h53.14.222,searchDisc4,2020.2.10,Win32,60,,,,,,,,,,,,,,,,,,
,,,,,,,,,,,,,,,,space,0.274365,2,0,1.214875,0,8,8,13,1,Practice arrays/exp1a_trial_28_colour2_distractors31_l.png,l,1,021,001,2021-04-22_17h53.14.222,searchDisc4,2020.2.10,Win32,60,,,,,,,,,,,,,,,,,,
,,,,,,,,,,,,,,,,space,1.202315,1,1,0.61384,0,9,9,19,1,Practice arrays/exp1a_trial_37_colour0_distractors0_l.png,l,1,021,001,2021-04-22_17h53.14.222,searchDisc4,2020.2.10,Win32,60,,,,,,,,,,,,,,,,,,
,,,,,,,,,,,,,,,,space,1.04382,,0,,0,10,10,5,1,Practice arrays/exp1a_trial_10_colour2_distractors31_r.png,r,2,021,001,2021-04-22_17h53.14.222,searchDisc4,2020.2.10,Win32,60,,,,,,,,,,,,,,,,,,
,,,,,,,,,,,,,,,,space,1.570585,1,1,1.557105,0,11,11,12,1,Practice arrays/exp1a_trial_25_colour2_distractors4_l.png,l,1,021,001,2021-04-22_17h53.14.222,searchDisc4,2020.2.10,Win32,60,,,,,,,,,,,,,,,,,,
,,,,,,,,,,,,,,,,space,0.4362,2,1,0.90379,0,12,12,8,1,Practice arrays/exp1a_trial_16_colour3_distractors31_r.png,r,2,021,001,2021-04-22_17h53.14.222,searchDisc4,2020.2.10,Win32,60,,,,,,,,,,,,,,,,,,
,,,,,,,,,,,,,,,,space,1.200455,1,1,0.52327,0,13,13,11,1,Practice arrays/exp1a_trial_21_colour1_distractors19_l.png,l,1,021,001,2021-04-22_17h53.14.222,searchDisc4,2020.2.10,Win32,60,,,,,,,,,,,,,,,,,,
,,,,,,,,,,,,,,,,space,0.524925,2,0,1.18473,0,14,14,14,1,Practice arrays/exp1a_trial_29_colour2_distractors43_l.png,l,1,021,001,2021-04-22_17h53.14.222,searchDisc4,2020.2.10,Win32,60,,,,,,,,,,,,,,,,,,
,,,,,,,,,,,,,,,,space,1.41673,2,1,0.538265,0,15,15,1,1,Practice arrays/exp1a_trial_3_colour1_distractors19_r.png,r,2,021,001,2021-04-22_17h53.14.222,searchDisc4,2020.2.10,Win32,60,,,,,,,,,,,,,,,,,,
,,,,,,,,,,,,,,,,space,1.40178,2,1,0.52727,0,16,16,18,1,Practice arrays/exp1a_trial_36_colour0_distractors0_r.png,r,2,021,001,2021-04-22_17h53.14.222,searchDisc4,2020.2.10,Win32,60,,,,,,,,,,,,,,,,,,
,,,,,,,,,,,,,,,,space,0.457765,1,1,0.558435,0,17,17,17,1,Practice arrays/exp1a_trial_35_colour3_distractors43_l.png,l,1,021,001,2021-04-22_17h53.14.222,searchDisc4,2020.2.10,Win32,60,,,,,,,,,,,,,,,,,,
,,,,,,,,,,,,,,,,space,0.478515,1,1,0.61031,0,18,18,9,1,Practice arrays/exp1a_trial_19_colour1_distractors4_l.png,l,1,021,001,2021-04-22_17h53.14.222,searchDisc4,2020.2.10,Win32,60,,,,,,,,,,,,,,,,,,
,,,,,,,,,,,,,,,,space,0.449925,1,1,0.7949,0,19,19,16,1,Practice arrays/exp1a_trial_33_colour3_distractors19_l.png,l,1,021,001,2021-04-22_17h53.14.222,searchDisc4,2020.2.10,Win32,60,,,,,,,,,,,,,,,,,,
,,,,,,,,,,,,,,,,,,,,,,,,,,images/exp1b_trial_34_colour3_distractors31_l.png,l,1,021,001,2021-04-22_17h53.14.222,searchDisc4,2020.2.10,Win32,60,space,5.838785,space,3.013745,1,1,1.07091,,0,0,0,148,1,1b,34,3,31,
,,,,,,,,,,,,,,,,,,,,,,,,,,images/exp2b_trial_64_colour2_distractors9_l.png,l,1,021,001,2021-04-22_17h53.14.222,searchDisc4,2020.2.10,Win32,60,,,space,1.315455,1,1,0.864725,,0,1,1,406,1,2b,64,2,9,
,,,,,,,,,,,,,,,,,,,,,,,,,,images/exp1a_trial_63_colour2_distractors4_l.png,l,1,021,001,2021-04-22_17h53.14.222,searchDisc4,2020.2.10,Win32,60,,,space,1.32647,2,0,3.210605,,0,2,2,63,1,1a,63,2,4,
,,,,,,,,,,,,,,,,,,,,,,,,,,images/exp2c_trial_35_colour3_distractors43_l.png,l,1,021,001,2021-04-22_17h53.14.222,searchDisc4,2020.2.10,Win32,60,,,space,0.73636,1,1,0.88228,,0,3,3,491,1,2c,35,3,43,
,,,,,,,,,,,,,,,,,,,,,,,,,,images/exp1b_trial_79_colour1_distractors19_r.png,r,2,021,001,2021-04-22_17h53.14.222,searchDisc4,2020.2.10,Win32,60,,,space,0.95954,2,1,1.177935,,0,4,4,193,1,1b,79,1,19,
,,,,,,,,,,,,,,,,,,,,,,,,,,images/exp1a_trial_35_colour3_distractors43_l.png,l,1,021,001,2021-04-22_17h53.14.222,searchDisc4,2020.2.10,Win32,60,,,space,0.88576,1,1,0.62231,,0,5,5,35,1,1a,35,3,43,
,,,,,,,,,,,,,,,,,,,,,,,,,,images/exp2a_trial_57_colour1_distractors4_l.png,l,1,021,001,2021-04-22_17h53.14.222,searchDisc4,2020.2.10,Win32,60,,,space,0.43797,1,1,1.486025,,0,6,6,285,1,2a,57,1,4,
,,,,,,,,,,,,,,,,,,,,,,,,,,images/exp2c_trial_48_colour2_distractors31_r.png,r,2,021,001,2021-04-22_17h53.14.222,searchDisc4,2020.2.10,Win32,60,,,space,0.467275,2,1,0.92812,,0,7,7,504,1,2c,48,2,31,
,,,,,,,,,,,,,,,,,,,,,,,,,,images/exp1b_trial_104_colour2_distractors31_l.png,l,1,021,001,2021-04-22_17h53.14.222,searchDisc4,2020.2.10,Win32,60,,,space,0.22885,1,1,2.35928,,0,8,8,218,1,1b,104,2,31,
,,,,,,,,,,,,,,,,,,,,,,,,,,images/exp2b_trial_75_colour0_distractors0_l.png,l,1,021,001,2021-04-22_17h53.14.222,searchDisc4,2020.2.10,Win32,60,,,space,1.69544,1,1,0.451585,,0,9,9,417,1,2b,75,0,0,
,,,,,,,,,,,,,,,,,,,,,,,,,,images/exp1b_trial_25_colour2_distractors4_l.png,l,1,021,001,2021-04-22_17h53.14.222,searchDisc4,2020.2.10,Win32,60,,,space,0.912505,1,1,0.917835,,0,10,10,139,1,1b,25,2,4,
,,,,,,,,,,,,,,,,,,,,,,,,,,images/exp1b_trial_1_colour1_distractors4_r.png,r,2,021,001,2021-04-22_17h53.14.222,searchDisc4,2020.2.10,Win32,60,,,space,0.57924,2,1,0.75307,,0,11,11,115,1,1b,1,1,4,
,,,,,,,,,,,,,,,,,,,,,,,,,,images/exp2c_trial_73_colour3_distractors43_l.png,l,1,021,001,2021-04-22_17h53.14.222,searchDisc4,2020.2.10,Win32,60,,,space,0.63938,1,1,0.86923,,0,12,12,529,1,2c,73,3,43,
,,,,,,,,,,,,,,,,,,,,,,,,,,images/exp1a_trial_101_colour2_distractors4_l.png,l,1,021,001,2021-04-22_17h53.14.222,searchDisc4,2020.2.10,Win32,60,,,space,0.651935,1,1,0.61648,,0,13,13,101,1,1a,101,2,4,
,,,,,,,,,,,,,,,,,,,,,,,,,,images/exp1b_trial_57_colour1_distractors4_l.png,l,1,021,001,2021-04-22_17h53.14.222,searchDisc4,2020.2.10,Win32,60,,,space,2.072795,1,1,1.335685,,0,14,14,171,1,1b,57,1,4,
,,,,,,,,,,,,,,,,,,,,,,,,,,images/exp1a_trial_66_colour2_distractors31_l.png,l,1,021,001,2021-04-22_17h53.14.222,searchDisc4,2020.2.10,Win32,60,,,space,0.505695,1,1,1.996935,,0,15,15,66,1,1a,66,2,31,
,,,,,,,,,,,,,,,,,,,,,,,,,,images/exp1b_trial_75_colour0_distractors0_l.png,l,1,021,001,2021-04-22_17h53.14.222,searchDisc4,2020.2.10,Win32,60,,,space,0.40229,1,1,1.02968,,0,16,16,189,1,1b,75,0,0,
,,,,,,,,,,,,,,,,,,,,,,,,,,images/exp2b_trial_46_colour2_distractors9_r.png,r,2,021,001,2021-04-22_17h53.14.222,searchDisc4,2020.2.10,Win32,60,,,space,0.65689,2,1,0.97808,,0,17,17,388,1,2b,46,2,9,
,,,,,,,,,,,,,,,,,,,,,,,,,,images/exp1a_trial_86_colour2_distractors31_r.png,r,2,021,001,2021-04-22_17h53.14.222,searchDisc4,2020.2.10,Win32,60,,,space,0.60403,2,1,1.40246,,0,18,18,86,1,1a,86,2,31,
,,,,,,,,,,,,,,,,,,,,,,,,,,images/exp2b_trial_1_colour1_distractors4_r.png,r,2,021,001,2021-04-22_17h53.14.222,searchDisc4,2020.2.10,Win32,60,,,space,0.472725,2,1,0.894585,,0,19,19,343,1,2b,1,1,4,
,,,,,,,,,,,,,,,,,,,,,,,,,,images/exp2b_trial_8_colour2_distractors9_r.png,r,2,021,001,2021-04-22_17h53.14.222,searchDisc4,2020.2.10,Win32,60,,,space,0.43303,2,1,1.15219,,0,20,20,350,1,2b,8,2,9,
,,,,,,,,,,,,,,,,,,,,,,,,,,images/exp1a_trial_69_colour3_distractors4_l.png,l,1,021,001,2021-04-22_17h53.14.222,searchDisc4,2020.2.10,Win32,60,,,space,0.26973,1,1,0.500115,,0,21,21,69,1,1a,69,3,4,
,,,,,,,,,,,,,,,,,,,,,,,,,,images/exp2b_trial_57_colour1_distractors4_l.png,l,1,021,001,2021-04-22_17h53.14.222,searchDisc4,2020.2.10,Win32,60,,,space,0.34697,1,1,0.635605,,0,22,22,399,1,2b,57,1,4,
,,,,,,,,,,,,,,,,,,,,,,,,,,images/exp2b_trial_92_colour3_distractors31_r.png,r,2,021,001,2021-04-22_17h53.14.222,searchDisc4,2020.2.10,Win32,60,,,space,0.312745,2,1,0.80654,,0,23,23,434,1,2b,92,3,31,
,,,,,,,,,,,,,,,,,,,,,,,,,,images/exp1a_trial_79_colour1_distractors19_r.png,r,2,021,001,2021-04-22_17h53.14.222,searchDisc4,2020.2.10,Win32,60,,,space,0.25533,2,1,0.65837,,0,24,24,79,1,1a,79,1,19,
,,,,,,,,,,,,,,,,,,,,,,,,,,images/exp2c_trial_5_colour1_distractors43_r.png,r,2,021,001,2021-04-22_17h53.14.222,searchDisc4,2020.2.10,Win32,60,,,space,0.228115,2,1,0.72056,,0,25,25,461,1,2c,5,1,43,
,,,,,,,,,,,,,,,,,,,,,,,,,,images/exp1a_trial_29_colour2_distractors43_l.png,l,1,021,001,2021-04-22_17h53.14.222,searchDisc4,2020.2.10,Win32,60,,,space,0.17276,1,1,0.95513,,0,26,26,29,1,1a,29,2,43,
,,,,,,,,,,,,,,,,,,,,,,,,,,images/exp2c_trial_105_colour2_distractors43_l.png,l,1,021,001,2021-04-22_17h53.14.222,searchDisc4,2020.2.10,Win32,60,,,space,0.14752,1,1,0.680815,,0,27,27,561,1,2c,105,2,43,
,,,,,,,,,,,,,,,,,,,,,,,,,,images/exp2c_trial_94_colour1_distractors1_l.png,l,1,021,001,2021-04-22_17h53.14.222,searchDisc4,2020.2.10,Win32,60,,,space,0.168635,1,1,0.869685,,0,28,28,550,1,2c,94,1,1,
,,,,,,,,,,,,,,,,,,,,,,,,,,images/exp1b_trial_46_colour2_distractors9_r.png,r,2,021,001,2021-04-22_17h53.14.222,searchDisc4,2020.2.10,Win32,60,,,space,0.5288,2,1,0.95279,,0,29,29,160,1,1b,46,2,9,
,,,,,,,,,,,,,,,,,,,,,,,,,,images/exp1b_trial_103_colour2_distractors19_l.png,l,1,021,001,2021-04-22_17h53.14.222,searchDisc4,2020.2.10,Win32,60,,,space,0.43903,1,1,0.938375,,0,30,30,217,1,1b,103,2,19,
,,,,,,,,,,,,,,,,,,,,,,,,,,images/exp1b_trial_54_colour3_distractors31_r.png,r,2,021,001,2021-04-22_17h53.14.222,searchDisc4,2020.2.10,Win32,60,,,space,0.416385,2,1,1.758795,,0,31,31,168,1,1b,54,3,31,
,,,,,,,,,,,,,,,,,,,,,,,,,,images/exp2a_trial_104_colour2_distractors31_l.png,l,1,021,001,2021-04-22_17h53.14.222,searchDisc4,2020.2.10,Win32,60,,,space,0.393345,1,1,0.66954,,0,32,32,332,1,2a,104,2,31,
,,,,,,,,,,,,,,,,,,,,,,,,,,images/exp2c_trial_51_colour3_distractors4_r.png,r,2,021,001,2021-04-22_17h53.14.222,searchDisc4,2020.2.10,Win32,60,,,space,0.43204,2,1,0.596535,,0,33,33,507,1,2c,51,3,4,
,,,,,,,,,,,,,,,,,,,,,,,,,,images/exp2a_trial_87_colour2_distractors43_r.png,r,2,021,001,2021-04-22_17h53.14.222,searchDisc4,2020.2.10,Win32,60,,,space,0.494925,2,1,0.815215,,0,34,34,315,1,2a,87,2,43,
,,,,,,,,,,,,,,,,,,,,,,,,,,images/exp2b_trial_81_colour1_distractors43_r.png,r,2,021,001,2021-04-22_17h53.14.222,searchDisc4,2020.2.10,Win32,60,,,space,0.2972,2,1,0.746905,,0,35,35,423,1,2b,81,1,43,
,,,,,,,,,,,,,,,,,,,,,,,,,,images/exp2b_trial_23_colour1_distractors43_l.png,l,1,021,001,2021-04-22_17h53.14.222,searchDisc4,2020.2.10,Win32,60,,,space,0.27803,1,1,0.68005,,0,36,36,365,1,2b,23,1,43,
,,,,,,,,,,,,,,,,,,,,,,,,,,images/exp2a_trial_42_colour1_distractors31_r.png,r,2,021,001,2021-04-22_17h53.14.222,searchDisc4,2020.2.10,Win32,60,,,space,0.265125,2,1,0.637965,,0,37,37,270,1,2a,42,1,31,
,,,,,,,,,,,,,,,,,,,,,,,,,,images/exp2c_trial_46_colour2_distractors9_r.png,r,2,021,001,2021-04-22_17h53.14.222,searchDisc4,2020.2.10,Win32,60,,,space,0.266845,2,1,0.827125,,0,38,38,502,1,2c,46,2,9,
,,,,,,,,,,,,,,,,,,,,,,,,,,images/exp1b_trial_94_colour1_distractors1_l.png,l,1,021,001,2021-04-22_17h53.14.222,searchDisc4,2020.2.10,Win32,60,,,space,0.201245,1,1,0.64061,,0,39,39,208,1,1b,94,1,1,
,,,,,,,,,,,,,,,,,,,,,,,,,,images/exp1a_trial_25_colour2_distractors4_l.png,l,1,021,001,2021-04-22_17h53.14.222,searchDisc4,2020.2.10,Win32,60,,,space,0.2407,1,1,1.07944,,0,40,40,25,1,1a,25,2,4,
,,,,,,,,,,,,,,,,,,,,,,,,,,images/exp2a_trial_78_colour1_distractors9_r.png,r,2,021,001,2021-04-22_17h53.14.222,searchDisc4,2020.2.10,Win32,60,,,space,0.21942,2,1,0.802135,,0,41,41,306,1,2a,78,1,9,
,,,,,,,,,,,,,,,,,,,,,,,,,,images/exp1a_trial_0_colour1_distractors1_r.png,r,2,021,001,2021-04-22_17h53.14.222,searchDisc4,2020.2.10,Win32,60,,,space,0.222525,1,0,1.15121,,0,42,42,0,1,1a,0,1,1,
,,,,,,,,,,,,,,,,,,,,,,,,,,images/exp1a_trial_48_colour2_distractors31_r.png,r,2,021,001,2021-04-22_17h53.14.222,searchDisc4,2020.2.10,Win32,60,,,space,2.713235,2,1,0.916685,,0,43,43,48,1,1a,48,2,31,
,,,,,,,,,,,,,,,,,,,,,,,,,,images/exp1a_trial_46_colour2_distractors9_r.png,r,2,021,001,2021-04-22_17h53.14.222,searchDisc4,2020.2.10,Win32,60,,,space,0.90087,2,1,0.710065,,0,44,44,46,1,1a,46,2,9,
,,,,,,,,,,,,,,,,,,,,,,,,,,images/exp2b_trial_61_colour1_distractors43_l.png,l,1,021,001,2021-04-22_17h53.14.222,searchDisc4,2020.2.10,Win32,60,,,space,0.623155,1,1,0.72455,,0,45,45,403,1,2b,61,1,43,
,,,,,,,,,,,,,,,,,,,,,,,,,,images/exp1b_trial_91_colour3_distractors19_r.png,r,2,021,001,2021-04-22_17h53.14.222,searchDisc4,2020.2.10,Win32,60,,,space,0.43684,2,1,2.316325,,0,46,46,205,1,1b,91,3,19,
,,,,,,,,,,,,,,,,,,,,,,,,,,images/exp2b_trial_101_colour2_distractors4_l.png,l,1,021,001,2021-04-22_17h53.14.222,searchDisc4,2020.2.10,Win32,60,,,space,0.650055,1,1,0.56946,,0,47,47,443,1,2b,101,2,4,
,,,,,,,,,,,,,,,,,,,,,,,,,,images/exp2c_trial_34_colour3_distractors31_l.png,l,1,021,001,2021-04-22_17h53.14.222,searchDisc4,2020.2.10,Win32,60,,,space,0.422615,1,1,0.841195,,0,48,48,490,1,2c,34,3,31,
,,,,,,,,,,,,,,,,,,,,,,,,,,images/exp1a_trial_22_colour1_distractors31_l.png,l,1,021,001,2021-04-22_17h53.14.222,searchDisc4,2020.2.10,Win32,60,,,space,0.38363,1,1,0.9577,,0,49,49,22,1,1a,22,1,31,
,,,,,,,,,,,,,,,,,,,,,,,,,,images/exp2a_trial_23_colour1_distractors43_l.png,l,1,021,001,2021-04-22_17h53.14.222,searchDisc4,2020.2.10,Win32,60,,,space,0.43077,1,1,1.21066,,0,50,50,251,1,2a,23,1,43,
,,,,,,,,,,,,,,,,,,,,,,,,,,images/exp2a_trial_19_colour1_distractors4_l.png,l,1,021,001,2021-04-22_17h53.14.222,searchDisc4,2020.2.10,Win32,60,,,space,0.42908,1,1,0.59325,,0,51,51,247,1,2a,19,1,4,
,,,,,,,,,,,,,,,,,,,,,,,,,,images/exp2c_trial_13_colour3_distractors4_r.png,r,2,021,001,2021-04-22_17h53.14.222,searchDisc4,2020.2.10,Win32,60,,,space,0.30598,2,1,0.60808,,0,52,52,469,1,2c,13,3,4,
,,,,,,,,,,,,,,,,,,,,,,,,,,images/exp2b_trial_20_colour1_distractors9_l.png,l,1,021,001,2021-04-22_17h53.14.222,searchDisc4,2020.2.10,Win32,60,,,space,0.4329,1,1,0.721065,,0,53,53,362,1,2b,20,1,9,
,,,,,,,,,,,,,,,,,,,,,,,,,,images/exp1a_trial_111_colour3_distractors43_l.png,l,1,021,001,2021-04-22_17h53.14.222,searchDisc4,2020.2.10,Win32,60,,,space,0.543925,1,1,0.587,,0,54,54,111,1,1a,111,3,43,
,,,,,,,,,,,,,,,,,,,,,,,,,,images/exp1b_trial_88_colour3_distractors1_r.png,r,2,021,001,2021-04-22_17h53.14.222,searchDisc4,2020.2.10,Win32,60,,,space,0.43558,2,1,1.14829,,0,55,55,202,1,1b,88,3,1,
,,,,,,,,,,,,,,,,,,,,,,,,,,images/exp2c_trial_9_colour2_distractors19_r.png,r,2,021,001,2021-04-22_17h53.14.222,searchDisc4,2020.2.10,Win32,60,,,space,0.37075,2,1,0.682795,,0,56,56,465,1,2c,9,2,19,
,,,,,,,,,,,,,,,,,,,,,,,,,,images/exp1a_trial_20_colour1_distractors9_l.png,l,1,021,001,2021-04-22_17h53.14.222,searchDisc4,2020.2.10,Win32,60,,,space,0.419865,1,1,1.100795,,0,57,57,20,1,1a,20,1,9,
,,,,,,,,,,,,,,,,,,,,,,,,,,images/exp2a_trial_26_colour2_distractors9_l.png,l,1,021,001,2021-04-22_17h53.14.222,searchDisc4,2020.2.10,Win32,60,,,space,0.471085,1,1,0.629305,,0,58,58,254,1,2a,26,2,9,
,,,,,,,,,,,,,,,,,,,,,,,,,,images/exp1b_trial_12_colour3_distractors1_r.png,r,2,021,001,2021-04-22_17h53.14.222,searchDisc4,2020.2.10,Win32,60,,,space,0.34409,2,1,0.797205,space,0,59,59,126,1,1b,12,3,1,8.717005
,,,,,,,,,,,,,,,,,,,,,,,,,,images/exp1a_trial_37_colour0_distractors0_l.png,l,1,021,001,2021-04-22_17h53.14.222,searchDisc4,2020.2.10,Win32,60,,,space,1.55626,1,1,0.693465,,0,60,60,37,1,1a,37,0,0,
,,,,,,,,,,,,,,,,,,,,,,,,,,images/exp2c_trial_68_colour3_distractors1_l.png,l,1,021,001,2021-04-22_17h53.14.222,searchDisc4,2020.2.10,Win32,60,,,space,0.626625,1,1,0.748945,,0,61,61,524,1,2c,68,3,1,
,,,,,,,,,,,,,,,,,,,,,,,,,,images/exp1a_trial_31_colour3_distractors4_l.png,l,1,021,001,2021-04-22_17h53.14.222,searchDisc4,2020.2.10,Win32,60,,,space,0.523855,1,1,1.24559,,0,62,62,31,1,1a,31,3,4,
,,,,,,,,,,,,,,,,,,,,,,,,,,images/exp1a_trial_5_colour1_distractors43_r.png,r,2,021,001,2021-04-22_17h53.14.222,searchDisc4,2020.2.10,Win32,60,,,space,0.427815,2,1,0.955525,,0,63,63,5,1,1a,5,1,43,
,,,,,,,,,,,,,,,,,,,,,,,,,,images/exp1a_trial_97_colour1_distractors19_l.png,l,1,021,001,2021-04-22_17h53.14.222,searchDisc4,2020.2.10,Win32,60,,,space,0.4636,1,1,0.69865,,0,64,64,97,1,1a,97,1,19,
,,,,,,,,,,,,,,,,,,,,,,,,,,images/exp2c_trial_57_colour1_distractors4_l.png,l,1,021,001,2021-04-22_17h53.14.222,searchDisc4,2020.2.10,Win32,60,,,space,0.44535,1,1,0.812955,,0,65,65,513,1,2c,57,1,4,
,,,,,,,,,,,,,,,,,,,,,,,,,,images/exp1a_trial_109_colour3_distractors19_l.png,l,1,021,001,2021-04-22_17h53.14.222,searchDisc4,2020.2.10,Win32,60,,,space,0.399945,1,1,0.72478,,0,66,66,109,1,1a,109,3,19,
,,,,,,,,,,,,,,,,,,,,,,,,,,images/exp1b_trial_80_colour1_distractors31_r.png,r,2,021,001,2021-04-22_17h53.14.222,searchDisc4,2020.2.10,Win32,60,,,space,0.2792,2,1,0.96453,,0,67,67,194,1,1b,80,1,31,
,,,,,,,,,,,,,,,,,,,,,,,,,,images/exp2a_trial_45_colour2_distractors4_r.png,r,2,021,001,2021-04-22_17h53.14.222,searchDisc4,2020.2.10,Win32,60,,,space,0.1982,2,1,1.9069,,0,68,68,273,1,2a,45,2,4,
,,,,,,,,,,,,,,,,,,,,,,,,,,images/exp1a_trial_17_colour3_distractors43_r.png,r,2,021,001,2021-04-22_17h53.14.222,searchDisc4,2020.2.10,Win32,60,,,space,0.429095,2,1,0.717685,,0,69,69,17,1,1a,17,3,43,
,,,,,,,,,,,,,,,,,,,,,,,,,,images/exp2c_trial_20_colour1_distractors9_l.png,l,1,021,001,2021-04-22_17h53.14.222,searchDisc4,2020.2.10,Win32,60,,,space,0.386785,1,1,0.596705,,0,70,70,476,1,2c,20,1,9,
,,,,,,,,,,,,,,,,,,,,,,,,,,images/exp2b_trial_11_colour2_distractors43_r.png,r,2,021,001,2021-04-22_17h53.14.222,searchDisc4,2020.2.10,Win32,60,,,space,0.22029,2,1,0.52008,,0,71,71,353,1,2b,11,2,43,
,,,,,,,,,,,,,,,,,,,,,,,,,,images/exp1b_trial_78_colour1_distractors9_r.png,r,2,021,001,2021-04-22_17h53.14.222,searchDisc4,2020.2.10,Win32,60,,,space,0.227745,2,1,0.991215,,0,72,72,192,1,1b,78,1,9,
,,,,,,,,,,,,,,,,,,,,,,,,,,images/exp1a_trial_43_colour1_distractors43_r.png,r,2,021,001,2021-04-22_17h53.14.222,searchDisc4,2020.2.10,Win32,60,,,space,0.231525,2,1,0.665185,,0,73,73,43,1,1a,43,1,43,
,,,,,,,,,,,,,,,,,,,,,,,,,,images/exp2b_trial_89_colour3_distractors4_r.png,r,2,021,001,2021-04-22_17h53.14.222,searchDisc4,2020.2.10,Win32,60,,,space,0.203995,2,1,0.65605,,0,74,74,431,1,2b,89,3,4,
,,,,,,,,,,,,,,,,,,,,,,,,,,images/exp2b_trial_35_colour3_distractors43_l.png,l,1,021,001,2021-04-22_17h53.14.222,searchDisc4,2020.2.10,Win32,60,,,space,0.161615,1,1,0.570555,,0,75,75,377,1,2b,35,3,43,
,,,,,,,,,,,,,,,,,,,,,,,,,,images/exp1a_trial_41_colour1_distractors19_r.png,r,2,021,001,2021-04-22_17h53.14.222,searchDisc4,2020.2.10,Win32,60,,,space,0.183135,2,1,0.877715,,0,76,76,41,1,1a,41,1,19,
,,,,,,,,,,,,,,,,,,,,,,,,,,images/exp2c_trial_12_colour3_distractors1_r.png,r,2,021,001,2021-04-22_17h53.14.222,searchDisc4,2020.2.10,Win32,60,,,space,0.51694,2,1,0.568355,,0,77,77,468,1,2c,12,3,1,
,,,,,,,,,,,,,,,,,,,,,,,,,,images/exp2a_trial_60_colour1_distractors31_l.png,l,1,021,001,2021-04-22_17h53.14.222,searchDisc4,2020.2.10,Win32,60,,,space,0.338225,1,1,0.928195,,0,78,78,288,1,2a,60,1,31,
,,,,,,,,,,,,,,,,,,,,,,,,,,images/exp1a_trial_83_colour2_distractors4_r.png,r,2,021,001,2021-04-22_17h53.14.222,searchDisc4,2020.2.10,Win32,60,,,space,0.28109,2,1,0.947305,,0,79,79,83,1,1a,83,2,4,
,,,,,,,,,,,,,,,,,,,,,,,,,,images/exp1a_trial_64_colour2_distractors9_l.png,l,1,021,001,2021-04-22_17h53.14.222,searchDisc4,2020.2.10,Win32,60,,,space,0.378305,1,1,0.77856,,0,80,80,64,1,1a,64,2,9,
,,,,,,,,,,,,,,,,,,,,,,,,,,images/exp2a_trial_8_colour2_distractors9_r.png,r,2,021,001,2021-04-22_17h53.14.222,searchDisc4,2020.2.10,Win32,60,,,space,0.264385,2,1,0.665545,,0,81,81,236,1,2a,8,2,9,
,,,,,,,,,,,,,,,,,,,,,,,,,,images/exp2a_trial_64_colour2_distractors9_l.png,l,1,021,001,2021-04-22_17h53.14.222,searchDisc4,2020.2.10,Win32,60,,,space,0.231295,1,1,0.526495,,0,82,82,292,1,2a,64,2,9,
,,,,,,,,,,,,,,,,,,,,,,,,,,images/exp1b_trial_64_colour2_distractors9_l.png,l,1,021,001,2021-04-22_17h53.14.222,searchDisc4,2020.2.10,Win32,60,,,space,0.167415,1,1,1.093445,,0,83,83,178,1,1b,64,2,9,
,,,,,,,,,,,,,,,,,,,,,,,,,,images/exp2a_trial_52_colour3_distractors9_r.png,r,2,021,001,2021-04-22_17h53.14.222,searchDisc4,2020.2.10,Win32,60,,,space,0.395245,2,1,0.50519,,0,84,84,280,1,2a,52,3,9,
,,,,,,,,,,,,,,,,,,,,,,,,,,images/exp2c_trial_8_colour2_distractors9_r.png,r,2,021,001,2021-04-22_17h53.14.222,searchDisc4,2020.2.10,Win32,60,,,space,0.32317,2,1,0.67556,,0,85,85,464,1,2c,8,2,9,
,,,,,,,,,,,,,,,,,,,,,,,,,,images/exp1b_trial_45_colour2_distractors4_r.png,r,2,021,001,2021-04-22_17h53.14.222,searchDisc4,2020.2.10,Win32,60,,,space,0.36145,2,1,0.997305,,0,86,86,159,1,1b,45,2,4,
,,,,,,,,,,,,,,,,,,,,,,,,,,images/exp2c_trial_1_colour1_distractors4_r.png,r,2,021,001,2021-04-22_17h53.14.222,searchDisc4,2020.2.10,Win32,60,,,space,0.337975,2,1,0.55188,,0,87,87,457,1,2c,1,1,4,
,,,,,,,,,,,,,,,,,,,,,,,,,,images/exp2b_trial_70_colour3_distractors9_l.png,l,1,021,001,2021-04-22_17h53.14.222,searchDisc4,2020.2.10,Win32,60,,,space,0.369095,1,1,1.024855,,0,88,88,412,1,2b,70,3,9,
,,,,,,,,,,,,,,,,,,,,,,,,,,images/exp2b_trial_110_colour3_distractors31_l.png,l,1,021,001,2021-04-22_17h53.14.222,searchDisc4,2020.2.10,Win32,60,,,space,0.419855,1,1,0.82182,,0,89,89,452,1,2b,110,3,31,
,,,,,,,,,,,,,,,,,,,,,,,,,,images/exp1b_trial_8_colour2_distractors9_r.png,r,2,021,001,2021-04-22_17h53.14.222,searchDisc4,2020.2.10,Win32,60,,,space,0.32041,2,1,0.7825,,0,90,90,122,1,1b,8,2,9,
,,,,,,,,,,,,,,,,,,,,,,,,,,images/exp1b_trial_5_colour1_distractors43_r.png,r,2,021,001,2021-04-22_17h53.14.222,searchDisc4,2020.2.10,Win32,60,,,space,0.40245,2,1,1.214465,,0,91,91,119,1,1b,5,1,43,
,,,,,,,,,,,,,,,,,,,,,,,,,,images/exp2c_trial_103_colour2_distractors19_l.png,l,1,021,001,2021-04-22_17h53.14.222,searchDisc4,2020.2.10,Win32,60,,,space,0.43419,1,1,0.68326,,0,92,92,559,1,2c,103,2,19,
,,,,,,,,,,,,,,,,,,,,,,,,,,images/exp2c_trial_96_colour1_distractors9_l.png,l,1,021,001,2021-04-22_17h53.14.222,searchDisc4,2020.2.10,Win32,60,,,space,0.43577,1,1,0.859175,,0,93,93,552,1,2c,96,1,9,
,,,,,,,,,,,,,,,,,,,,,,,,,,images/exp2a_trial_13_colour3_distractors4_r.png,r,2,021,001,2021-04-22_17h53.14.222,searchDisc4,2020.2.10,Win32,60,,,space,0.59378,2,1,0.57636,,0,94,94,241,1,2a,13,3,4,
,,,,,,,,,,,,,,,,,,,,,,,,,,images/exp2c_trial_42_colour1_distractors31_r.png,r,2,021,001,2021-04-22_17h53.14.222,searchDisc4,2020.2.10,Win32,60,,,space,2.125015,2,1,0.49711,,0,95,95,498,1,2c,42,1,31,
,,,,,,,,,,,,,,,,,,,,,,,,,,images/exp2a_trial_25_colour2_distractors4_l.png,l,1,021,001,2021-04-22_17h53.14.222,searchDisc4,2020.2.10,Win32,60,,,space,0.573935,1,1,0.512255,,0,96,96,253,1,2a,25,2,4,
,,,,,,,,,,,,,,,,,,,,,,,,,,images/exp1a_trial_82_colour2_distractors1_r.png,r,2,021,001,2021-04-22_17h53.14.222,searchDisc4,2020.2.10,Win32,60,,,space,0.598535,2,1,0.45719,,0,97,97,82,1,1a,82,2,1,
,,,,,,,,,,,,,,,,,,,,,,,,,,images/exp1b_trial_65_colour2_distractors19_l.png,l,1,021,001,2021-04-22_17h53.14.222,searchDisc4,2020.2.10,Win32,60,,,space,0.472995,1,1,1.73494,,0,98,98,179,1,1b,65,2,19,
,,,,,,,,,,,,,,,,,,,,,,,,,,images/exp2c_trial_83_colour2_distractors4_r.png,r,2,021,001,2021-04-22_17h53.14.222,searchDisc4,2020.2.10,Win32,60,,,space,0.43503,2,1,0.600065,,0,99,99,539,1,2c,83,2,4,
,,,,,,,,,,,,,,,,,,,,,,,,,,images/exp2b_trial_105_colour2_distractors43_l.png,l,1,021,001,2021-04-22_17h53.14.222,searchDisc4,2020.2.10,Win32,60,,,space,0.53831,1,1,0.50213,,0,100,100,447,1,2b,105,2,43,
,,,,,,,,,,,,,,,,,,,,,,,,,,images/exp1a_trial_96_colour1_distractors9_l.png,l,1,021,001,2021-04-22_17h53.14.222,searchDisc4,2020.2.10,Win32,60,,,space,0.48647,1,1,0.6323,,0,101,101,96,1,1a,96,1,9,
,,,,,,,,,,,,,,,,,,,,,,,,,,images/exp1b_trial_109_colour3_distractors19_l.png,l,1,021,001,2021-04-22_17h53.14.222,searchDisc4,2020.2.10,Win32,60,,,space,0.43495,1,1,1.04792,,0,102,102,223,1,1b,109,3,19,
,,,,,,,,,,,,,,,,,,,,,,,,,,images/exp1b_trial_43_colour1_distractors43_r.png,r,2,021,001,2021-04-22_17h53.14.222,searchDisc4,2020.2.10,Win32,60,,,space,0.471765,2,1,1.81361,,0,103,103,157,1,1b,43,1,43,
,,,,,,,,,,,,,,,,,,,,,,,,,,images/exp2a_trial_18_colour1_distractors1_l.png,l,1,021,001,2021-04-22_17h53.14.222,searchDisc4,2020.2.10,Win32,60,,,space,0.414045,1,1,0.460025,,0,104,104,246,1,2a,18,1,1,
,,,,,,,,,,,,,,,,,,,,,,,,,,images/exp1a_trial_16_colour3_distractors31_r.png,r,2,021,001,2021-04-22_17h53.14.222,searchDisc4,2020.2.10,Win32,60,,,space,0.379215,2,1,0.678305,,0,105,105,16,1,1a,16,3,31,
,,,,,,,,,,,,,,,,,,,,,,,,,,images/exp1b_trial_99_colour1_distractors43_l.png,l,1,021,001,2021-04-22_17h53.14.222,searchDisc4,2020.2.10,Win32,60,,,space,0.46275,1,1,1.253915,,0,106,106,213,1,1b,99,1,43,
,,,,,,,,,,,,,,,,,,,,,,,,,,images/exp2b_trial_82_colour2_distractors1_r.png,r,2,021,001,2021-04-22_17h53.14.222,searchDisc4,2020.2.10,Win32,60,,,space,0.412385,2,1,0.64213,,0,107,107,424,1,2b,82,2,1,
,,,,,,,,,,,,,,,,,,,,,,,,,,images/exp1a_trial_50_colour3_distractors1_r.png,r,2,021,001,2021-04-22_17h53.14.222,searchDisc4,2020.2.10,Win32,60,,,space,0.4085,2,1,0.923505,,0,108,108,50,1,1a,50,3,1,
,,,,,,,,,,,,,,,,,,,,,,,,,,images/exp2b_trial_24_colour2_distractors1_l.png,l,1,021,001,2021-04-22_17h53.14.222,searchDisc4,2020.2.10,Win32,60,,,space,0.433785,1,1,0.90958,,0,109,109,366,1,2b,24,2,1,
,,,,,,,,,,,,,,,,,,,,,,,,,,images/exp2c_trial_31_colour3_distractors4_l.png,l,1,021,001,2021-04-22_17h53.14.222,searchDisc4,2020.2.10,Win32,60,,,space,0.405345,1,1,0.592155,,0,110,110,487,1,2c,31,3,4,
,,,,,,,,,,,,,,,,,,,,,,,,,,images/exp1a_trial_28_colour2_distractors31_l.png,l,1,021,001,2021-04-22_17h53.14.222,searchDisc4,2020.2.10,Win32,60,,,space,0.46202,1,1,1.11025,,0,111,111,28,1,1a,28,2,31,
,,,,,,,,,,,,,,,,,,,,,,,,,,images/exp1a_trial_59_colour1_distractors19_l.png,l,1,021,001,2021-04-22_17h53.14.222,searchDisc4,2020.2.10,Win32,60,,,space,0.46428,1,1,0.663585,,0,112,112,59,1,1a,59,1,19,
,,,,,,,,,,,,,,,,,,,,,,,,,,images/exp2a_trial_54_colour3_distractors31_r.png,r,2,021,001,2021-04-22_17h53.14.222,searchDisc4,2020.2.10,Win32,60,,,space,0.37478,2,1,0.66695,,0,113,113,282,1,2a,54,3,31,
,,,,,,,,,,,,,,,,,,,,,,,,,,images/exp2c_trial_23_colour1_distractors43_l.png,l,1,021,001,2021-04-22_17h53.14.222,searchDisc4,2020.2.10,Win32,60,,,space,0.40449,1,1,0.695125,,0,114,114,479,1,2c,23,1,43,
,,,,,,,,,,,,,,,,,,,,,,,,,,images/exp1a_trial_24_colour2_distractors1_l.png,l,1,021,001,2021-04-22_17h53.14.222,searchDisc4,2020.2.10,Win32,60,,,space,0.348105,1,1,1.55794,,0,115,115,24,1,1a,24,2,1,
,,,,,,,,,,,,,,,,,,,,,,,,,,images/exp1b_trial_44_colour2_distractors1_r.png,r,2,021,001,2021-04-22_17h53.14.222,searchDisc4,2020.2.10,Win32,60,,,space,0.546975,2,1,0.677935,,0,116,116,158,1,1b,44,2,1,
,,,,,,,,,,,,,,,,,,,,,,,,,,images/exp2b_trial_97_colour1_distractors19_l.png,l,1,021,001,2021-04-22_17h53.14.222,searchDisc4,2020.2.10,Win32,60,,,space,0.429965,1,1,0.54763,,0,117,117,439,1,2b,97,1,19,
,,,,,,,,,,,,,,,,,,,,,,,,,,images/exp1b_trial_23_colour1_distractors43_l.png,l,1,021,001,2021-04-22_17h53.14.222,searchDisc4,2020.2.10,Win32,60,,,space,0.296625,1,1,1.29584,,0,118,118,137,1,1b,23,1,43,
,,,,,,,,,,,,,,,,,,,,,,,,,,images/exp2a_trial_9_colour2_distractors19_r.png,r,2,021,001,2021-04-22_17h53.14.222,searchDisc4,2020.2.10,Win32,60,,,space,0.36948,2,1,0.670375,space,0,119,119,237,1,2a,9,2,19,2.55105
,,,,,,,,,,,,,,,,,,,,,,,,,,images/exp1b_trial_0_colour1_distractors1_r.png,r,2,021,001,2021-04-22_17h53.14.222,searchDisc4,2020.2.10,Win32,60,,,space,1.423675,2,1,0.45971,,0,120,120,114,1,1b,0,1,1,
,,,,,,,,,,,,,,,,,,,,,,,,,,images/exp2b_trial_42_colour1_distractors31_r.png,r,2,021,001,2021-04-22_17h53.14.222,searchDisc4,2020.2.10,Win32,60,,,space,0.42893,2,1,1.01097,,0,121,121,384,1,2b,42,1,31,
,,,,,,,,,,,,,,,,,,,,,,,,,,images/exp2c_trial_92_colour3_distractors31_r.png,r,2,021,001,2021-04-22_17h53.14.222,searchDisc4,2020.2.10,Win32,60,,,space,0.45741,2,1,0.679605,,0,122,122,548,1,2c,92,3,31,
,,,,,,,,,,,,,,,,,,,,,,,,,,images/exp1b_trial_112_colour0_distractors0_r.png,r,2,021,001,2021-04-22_17h53.14.222,searchDisc4,2020.2.10,Win32,60,,,space,0.439495,2,1,0.61756,,0,123,123,226,1,1b,112,0,0,
,,,,,,,,,,,,,,,,,,,,,,,,,,images/exp1b_trial_4_colour1_distractors31_r.png,r,2,021,001,2021-04-22_17h53.14.222,searchDisc4,2020.2.10,Win32,60,,,space,0.405665,2,1,0.832425,,0,124,124,118,1,1b,4,1,31,
,,,,,,,,,,,,,,,,,,,,,,,,,,images/exp2a_trial_100_colour2_distractors1_l.png,l,1,021,001,2021-04-22_17h53.14.222,searchDisc4,2020.2.10,Win32,60,,,space,0.278715,1,1,0.486545,,0,125,125,328,1,2a,100,2,1,
,,,,,,,,,,,,,,,,,,,,,,,,,,images/exp1a_trial_53_colour3_distractors19_r.png,r,2,021,001,2021-04-22_17h53.14.222,searchDisc4,2020.2.10,Win32,60,,,space,0.389855,2,1,0.85858,,0,126,126,53,1,1a,53,3,19,
,,,,,,,,,,,,,,,,,,,,,,,,,,images/exp1b_trial_18_colour1_distractors1_l.png,l,1,021,001,2021-04-22_17h53.14.222,searchDisc4,2020.2.10,Win32,60,,,space,0.355375,1,1,0.45673,,0,127,127,132,1,1b,18,1,1,
,,,,,,,,,,,,,,,,,,,,,,,,,,images/exp2a_trial_38_colour1_distractors1_r.png,r,2,021,001,2021-04-22_17h53.14.222,searchDisc4,2020.2.10,Win32,60,,,space,0.98689,2,1,0.54345,,0,128,128,266,1,2a,38,1,1,
,,,,,,,,,,,,,,,,,,,,,,,,,,images/exp1b_trial_10_colour2_distractors31_r.png,r,2,021,001,2021-04-22_17h53.14.222,searchDisc4,2020.2.10,Win32,60,,,space,0.720605,2,1,0.59813,,0,129,129,124,1,1b,10,2,31,
,,,,,,,,,,,,,,,,,,,,,,,,,,images/exp2c_trial_110_colour3_distractors31_l.png,l,1,021,001,2021-04-22_17h53.14.222,searchDisc4,2020.2.10,Win32,60,,,space,0.638565,1,1,0.78909,,0,130,130,566,1,2c,110,3,31,
,,,,,,,,,,,,,,,,,,,,,,,,,,images/exp1a_trial_74_colour0_distractors0_r.png,r,2,021,001,2021-04-22_17h53.14.222,searchDisc4,2020.2.10,Win32,60,,,space,0.38749,2,1,0.910275,,0,131,131,74,1,1a,74,0,0,
,,,,,,,,,,,,,,,,,,,,,,,,,,images/exp1b_trial_74_colour0_distractors0_r.png,r,2,021,001,2021-04-22_17h53.14.222,searchDisc4,2020.2.10,Win32,60,,,space,0.43092,2,1,0.678885,,0,132,132,188,1,1b,74,0,0,
,,,,,,,,,,,,,,,,,,,,,,,,,,images/exp2a_trial_46_colour2_distractors9_r.png,r,2,021,001,2021-04-22_17h53.14.222,searchDisc4,2020.2.10,Win32,60,,,space,0.45138,2,1,0.68145,,0,133,133,274,1,2a,46,2,9,
,,,,,,,,,,,,,,,,,,,,,,,,,,images/exp1a_trial_91_colour3_distractors19_r.png,r,2,021,001,2021-04-22_17h53.14.222,searchDisc4,2020.2.10,Win32,60,,,space,0.402355,2,1,0.61205,,0,134,134,91,1,1a,91,3,19,
,,,,,,,,,,,,,,,,,,,,,,,,,,images/exp2b_trial_19_colour1_distractors4_l.png,l,1,021,001,2021-04-22_17h53.14.222,searchDisc4,2020.2.10,Win32,60,,,space,0.336895,1,1,0.53267,,0,135,135,361,1,2b,19,1,4,
,,,,,,,,,,,,,,,,,,,,,,,,,,images/exp2a_trial_67_colour2_distractors43_l.png,l,1,021,001,2021-04-22_17h53.14.222,searchDisc4,2020.2.10,Win32,60,,,space,0.31255,1,1,0.85258,,0,136,136,295,1,2a,67,2,43,
,,,,,,,,,,,,,,,,,,,,,,,,,,images/exp2c_trial_91_colour3_distractors19_r.png,r,2,021,001,2021-04-22_17h53.14.222,searchDisc4,2020.2.10,Win32,60,,,space,0.32966,2,1,0.80074,,0,137,137,547,1,2c,91,3,19,
,,,,,,,,,,,,,,,,,,,,,,,,,,images/exp1a_trial_32_colour3_distractors9_l.png,l,1,021,001,2021-04-22_17h53.14.222,searchDisc4,2020.2.10,Win32,60,,,space,0.30701,1,1,0.47518,,0,138,138,32,1,1a,32,3,9,
,,,,,,,,,,,,,,,,,,,,,,,,,,images/exp2a_trial_105_colour2_distractors43_l.png,l,1,021,001,2021-04-22_17h53.14.222,searchDisc4,2020.2.10,Win32,60,,,space,0.33337,1,1,0.6492,,0,139,139,333,1,2a,105,2,43,
,,,,,,,,,,,,,,,,,,,,,,,,,,images/exp2a_trial_43_colour1_distractors43_r.png,r,2,021,001,2021-04-22_17h53.14.222,searchDisc4,2020.2.10,Win32,60,,,space,0.33425,2,1,0.985975,,0,140,140,271,1,2a,43,1,43,
,,,,,,,,,,,,,,,,,,,,,,,,,,images/exp1a_trial_2_colour1_distractors9_r.png,r,2,021,001,2021-04-22_17h53.14.222,searchDisc4,2020.2.10,Win32,60,,,space,0.31929,2,1,0.771475,,0,141,141,2,1,1a,2,1,9,
,,,,,,,,,,,,,,,,,,,,,,,,,,images/exp2b_trial_26_colour2_distractors9_l.png,l,1,021,001,2021-04-22_17h53.14.222,searchDisc4,2020.2.10,Win32,60,,,space,0.218,1,1,0.66098,,0,142,142,368,1,2b,26,2,9,
,,,,,,,,,,,,,,,,,,,,,,,,,,images/exp2a_trial_63_colour2_distractors4_l.png,l,1,021,001,2021-04-22_17h53.14.222,searchDisc4,2020.2.10,Win32,60,,,space,0.18944,1,1,0.77934,,0,143,143,291,1,2a,63,2,4,
,,,,,,,,,,,,,,,,,,,,,,,,,,images/exp1a_trial_99_colour1_distractors43_l.png,l,1,021,001,2021-04-22_17h53.14.222,searchDisc4,2020.2.10,Win32,60,,,space,0.18159,1,1,0.638165,,0,144,144,99,1,1a,99,1,43,
,,,,,,,,,,,,,,,,,,,,,,,,,,images/exp2a_trial_66_colour2_distractors31_l.png,l,1,021,001,2021-04-22_17h53.14.222,searchDisc4,2020.2.10,Win32,60,,,space,0.383045,1,1,0.71987,,0,145,145,294,1,2a,66,2,31,
,,,,,,,,,,,,,,,,,,,,,,,,,,images/exp1a_trial_104_colour2_distractors31_l.png,l,1,021,001,2021-04-22_17h53.14.222,searchDisc4,2020.2.10,Win32,60,,,space,0.42079,1,1,0.8515,,0,146,146,104,1,1a,104,2,31,
,,,,,,,,,,,,,,,,,,,,,,,,,,images/exp2c_trial_36_colour0_distractors0_r.png,r,2,021,001,2021-04-22_17h53.14.222,searchDisc4,2020.2.10,Win32,60,,,space,0.353865,2,1,0.580305,,0,147,147,492,1,2c,36,0,0,
,,,,,,,,,,,,,,,,,,,,,,,,,,images/exp1b_trial_55_colour3_distractors43_r.png,r,2,021,001,2021-04-22_17h53.14.222,searchDisc4,2020.2.10,Win32,60,,,space,0.39613,2,1,1.881575,,0,148,148,169,1,1b,55,3,43,
,,,,,,,,,,,,,,,,,,,,,,,,,,images/exp1b_trial_24_colour2_distractors1_l.png,l,1,021,001,2021-04-22_17h53.14.222,searchDisc4,2020.2.10,Win32,60,,,space,0.37788,1,1,0.61647,,0,149,149,138,1,1b,24,2,1,
,,,,,,,,,,,,,,,,,,,,,,,,,,images/exp2b_trial_93_colour3_distractors43_r.png,r,2,021,001,2021-04-22_17h53.14.222,searchDisc4,2020.2.10,Win32,60,,,space,0.342085,2,1,0.646745,,0,150,150,435,1,2b,93,3,43,
,,,,,,,,,,,,,,,,,,,,,,,,,,images/exp2b_trial_47_colour2_distractors19_r.png,r,2,021,001,2021-04-22_17h53.14.222,searchDisc4,2020.2.10,Win32,60,,,space,0.31614,2,1,0.61809,,0,151,151,389,1,2b,47,2,19,
,,,,,,,,,,,,,,,,,,,,,,,,,,images/exp1a_trial_11_colour2_distractors43_r.png,r,2,021,001,2021-04-22_17h53.14.222,searchDisc4,2020.2.10,Win32,60,,,space,0.281785,2,1,0.91165,,0,152,152,11,1,1a,11,2,43,
,,,,,,,,,,,,,,,,,,,,,,,,,,images/exp1a_trial_13_colour3_distractors4_r.png,r,2,021,001,2021-04-22_17h53.14.222,searchDisc4,2020.2.10,Win32,60,,,space,0.20026,2,1,0.602435,,0,153,153,13,1,1a,13,3,4,
,,,,,,,,,,,,,,,,,,,,,,,,,,images/exp2a_trial_33_colour3_distractors19_l.png,l,1,021,001,2021-04-22_17h53.14.222,searchDisc4,2020.2.10,Win32,60,,,space,0.444095,1,1,0.500775,,0,154,154,261,1,2a,33,3,19,
,,,,,,,,,,,,,,,,,,,,,,,,,,images/exp2b_trial_99_colour1_distractors43_l.png,l,1,021,001,2021-04-22_17h53.14.222,searchDisc4,2020.2.10,Win32,60,,,space,0.34381,1,1,0.96679,,0,155,155,441,1,2b,99,1,43,
,,,,,,,,,,,,,,,,,,,,,,,,,,images/exp1a_trial_10_colour2_distractors31_r.png,r,2,021,001,2021-04-22_17h53.14.222,searchDisc4,2020.2.10,Win32,60,,,space,0.38818,2,1,0.991175,,0,156,156,10,1,1a,10,2,31,
,,,,,,,,,,,,,,,,,,,,,,,,,,images/exp1a_trial_113_colour0_distractors0_l.png,l,1,021,001,2021-04-22_17h53.14.222,searchDisc4,2020.2.10,Win32,60,,,space,0.40259,1,1,0.449565,,0,157,157,113,1,1a,113,0,0,
,,,,,,,,,,,,,,,,,,,,,,,,,,images/exp2c_trial_108_colour3_distractors9_l.png,l,1,021,001,2021-04-22_17h53.14.222,searchDisc4,2020.2.10,Win32,60,,,space,0.44186,1,1,0.770915,,0,158,158,564,1,2c,108,3,9,
,,,,,,,,,,,,,,,,,,,,,,,,,,images/exp2c_trial_52_colour3_distractors9_r.png,r,2,021,001,2021-04-22_17h53.14.222,searchDisc4,2020.2.10,Win32,60,,,space,0.41254,2,1,0.54876,,0,159,159,508,1,2c,52,3,9,
,,,,,,,,,,,,,,,,,,,,,,,,,,images/exp1b_trial_102_colour2_distractors9_l.png,l,1,021,001,2021-04-22_17h53.14.222,searchDisc4,2020.2.10,Win32,60,,,space,0.425395,1,1,0.68258,,0,160,160,216,1,1b,102,2,9,
,,,,,,,,,,,,,,,,,,,,,,,,,,images/exp2a_trial_35_colour3_distractors43_l.png,l,1,021,001,2021-04-22_17h53.14.222,searchDisc4,2020.2.10,Win32,60,,,space,0.34447,1,1,0.531335,,0,161,161,263,1,2a,35,3,43,
,,,,,,,,,,,,,,,,,,,,,,,,,,images/exp1b_trial_97_colour1_distractors19_l.png,l,1,021,001,2021-04-22_17h53.14.222,searchDisc4,2020.2.10,Win32,60,,,space,0.36894,1,1,0.93574,,0,162,162,211,1,1b,97,1,19,
,,,,,,,,,,,,,,,,,,,,,,,,,,images/exp2b_trial_88_colour3_distractors1_r.png,r,2,021,001,2021-04-22_17h53.14.222,searchDisc4,2020.2.10,Win32,60,,,space,0.33715,2,1,0.6098,,0,163,163,430,1,2b,88,3,1,
,,,,,,,,,,,,,,,,,,,,,,,,,,images/exp1b_trial_11_colour2_distractors43_r.png,r,2,021,001,2021-04-22_17h53.14.222,searchDisc4,2020.2.10,Win32,60,,,space,0.66557,,0,,,0,164,164,125,1,1b,11,2,43,
,,,,,,,,,,,,,,,,,,,,,,,,,,images/exp2c_trial_112_colour0_distractors0_r.png,r,2,021,001,2021-04-22_17h53.14.222,searchDisc4,2020.2.10,Win32,60,,,space,0.89411,2,1,0.652935,,0,165,165,568,1,2c,112,0,0,
,,,,,,,,,,,,,,,,,,,,,,,,,,images/exp1a_trial_67_colour2_distractors43_l.png,l,1,021,001,2021-04-22_17h53.14.222,searchDisc4,2020.2.10,Win32,60,,,space,0.980075,1,1,0.56982,,0,166,166,67,1,1a,67,2,43,
,,,,,,,,,,,,,,,,,,,,,,,,,,images/exp1a_trial_60_colour1_distractors31_l.png,l,1,021,001,2021-04-22_17h53.14.222,searchDisc4,2020.2.10,Win32,60,,,space,0.61881,1,1,0.74286,,0,167,167,60,1,1a,60,1,31,
,,,,,,,,,,,,,,,,,,,,,,,,,,images/exp2a_trial_21_colour1_distractors19_l.png,l,1,021,001,2021-04-22_17h53.14.222,searchDisc4,2020.2.10,Win32,60,,,space,0.39724,1,1,0.82314,,0,168,168,249,1,2a,21,1,19,
,,,,,,,,,,,,,,,,,,,,,,,,,,images/exp2b_trial_16_colour3_distractors31_r.png,r,2,021,001,2021-04-22_17h53.14.222,searchDisc4,2020.2.10,Win32,60,,,space,0.33441,2,1,0.579905,,0,169,169,358,1,2b,16,3,31,
,,,,,,,,,,,,,,,,,,,,,,,,,,images/exp2b_trial_85_colour2_distractors19_r.png,r,2,021,001,2021-04-22_17h53.14.222,searchDisc4,2020.2.10,Win32,60,,,space,0.361735,2,1,0.6655,,0,170,170,427,1,2b,85,2,19,
,,,,,,,,,,,,,,,,,,,,,,,,,,images/exp2c_trial_72_colour3_distractors31_l.png,l,1,021,001,2021-04-22_17h53.14.222,searchDisc4,2020.2.10,Win32,60,,,space,0.39217,1,1,0.643825,,0,171,171,528,1,2c,72,3,31,
,,,,,,,,,,,,,,,,,,,,,,,,,,images/exp1b_trial_113_colour0_distractors0_l.png,l,1,021,001,2021-04-22_17h53.14.222,searchDisc4,2020.2.10,Win32,60,,,space,0.37392,1,1,0.620255,,0,172,172,227,1,1b,113,0,0,
,,,,,,,,,,,,,,,,,,,,,,,,,,images/exp1b_trial_47_colour2_distractors19_r.png,r,2,021,001,2021-04-22_17h53.14.222,searchDisc4,2020.2.10,Win32,60,,,space,0.50957,2,1,0.819005,,0,173,173,161,1,1b,47,2,19,
,,,,,,,,,,,,,,,,,,,,,,,,,,images/exp1a_trial_90_colour3_distractors9_r.png,r,2,021,001,2021-04-22_17h53.14.222,searchDisc4,2020.2.10,Win32,60,,,space,0.397125,2,1,0.679085,,0,174,174,90,1,1a,90,3,9,
,,,,,,,,,,,,,,,,,,,,,,,,,,images/exp1a_trial_30_colour3_distractors1_l.png,l,1,021,001,2021-04-22_17h53.14.222,searchDisc4,2020.2.10,Win32,60,,,space,0.328835,1,1,1.440265,,0,175,175,30,1,1a,30,3,1,
,,,,,,,,,,,,,,,,,,,,,,,,,,images/exp1b_trial_59_colour1_distractors19_l.png,l,1,021,001,2021-04-22_17h53.14.222,searchDisc4,2020.2.10,Win32,60,,,space,0.51276,1,1,0.749165,,0,176,176,173,1,1b,59,1,19,
,,,,,,,,,,,,,,,,,,,,,,,,,,images/exp2a_trial_0_colour1_distractors1_r.png,r,2,021,001,2021-04-22_17h53.14.222,searchDisc4,2020.2.10,Win32,60,,,space,0.355105,2,1,0.536795,,0,177,177,228,1,2a,0,1,1,
,,,,,,,,,,,,,,,,,,,,,,,,,,images/exp2b_trial_0_colour1_distractors1_r.png,r,2,021,001,2021-04-22_17h53.14.222,searchDisc4,2020.2.10,Win32,60,,,space,0.358935,2,1,0.515035,,0,178,178,342,1,2b,0,1,1,
,,,,,,,,,,,,,,,,,,,,,,,,,,images/exp2a_trial_56_colour1_distractors1_l.png,l,1,021,001,2021-04-22_17h53.14.222,searchDisc4,2020.2.10,Win32,60,,,space,0.3463,1,1,0.541585,space,0,179,179,284,1,2a,56,1,1,2.045765
,,,,,,,,,,,,,,,,,,,,,,,,,,images/exp2b_trial_17_colour3_distractors43_r.png,r,2,021,001,2021-04-22_17h53.14.222,searchDisc4,2020.2.10,Win32,60,,,space,0.957355,2,1,0.61128,,0,180,180,359,1,2b,17,3,43,
,,,,,,,,,,,,,,,,,,,,,,,,,,images/exp2a_trial_97_colour1_distractors19_l.png,l,1,021,001,2021-04-22_17h53.14.222,searchDisc4,2020.2.10,Win32,60,,,space,0.49645,1,1,0.47953,,0,181,181,325,1,2a,97,1,19,
,,,,,,,,,,,,,,,,,,,,,,,,,,images/exp2b_trial_33_colour3_distractors19_l.png,l,1,021,001,2021-04-22_17h53.14.222,searchDisc4,2020.2.10,Win32,60,,,space,0.42025,1,1,0.725035,,0,182,182,375,1,2b,33,3,19,
,,,,,,,,,,,,,,,,,,,,,,,,,,images/exp2c_trial_43_colour1_distractors43_r.png,r,2,021,001,2021-04-22_17h53.14.222,searchDisc4,2020.2.10,Win32,60,,,space,0.329125,2,1,0.60092,,0,183,183,499,1,2c,43,1,43,
,,,,,,,,,,,,,,,,,,,,,,,,,,images/exp2c_trial_77_colour1_distractors4_r.png,r,2,021,001,2021-04-22_17h53.14.222,searchDisc4,2020.2.10,Win32,60,,,space,0.385205,2,1,0.46099,,0,184,184,533,1,2c,77,1,4,
,,,,,,,,,,,,,,,,,,,,,,,,,,images/exp1b_trial_86_colour2_distractors31_r.png,r,2,021,001,2021-04-22_17h53.14.222,searchDisc4,2020.2.10,Win32,60,,,space,0.309995,2,1,0.969215,,0,185,185,200,1,1b,86,2,31,
,,,,,,,,,,,,,,,,,,,,,,,,,,images/exp1b_trial_38_colour1_distractors1_r.png,r,2,021,001,2021-04-22_17h53.14.222,searchDisc4,2020.2.10,Win32,60,,,space,0.241565,2,1,0.59411,,0,186,186,152,1,1b,38,1,1,
,,,,,,,,,,,,,,,,,,,,,,,,,,images/exp2c_trial_38_colour1_distractors1_r.png,r,2,021,001,2021-04-22_17h53.14.222,searchDisc4,2020.2.10,Win32,60,,,space,0.395265,2,1,0.613945,,0,187,187,494,1,2c,38,1,1,
,,,,,,,,,,,,,,,,,,,,,,,,,,images/exp2b_trial_40_colour1_distractors9_r.png,r,2,021,001,2021-04-22_17h53.14.222,searchDisc4,2020.2.10,Win32,60,,,space,0.40935,2,1,0.57024,,0,188,188,382,1,2b,40,1,9,
,,,,,,,,,,,,,,,,,,,,,,,,,,images/exp1a_trial_72_colour3_distractors31_l.png,l,1,021,001,2021-04-22_17h53.14.222,searchDisc4,2020.2.10,Win32,60,,,space,0.454245,1,1,0.631155,,0,189,189,72,1,1a,72,3,31,
,,,,,,,,,,,,,,,,,,,,,,,,,,images/exp1b_trial_81_colour1_distractors43_r.png,r,2,021,001,2021-04-22_17h53.14.222,searchDisc4,2020.2.10,Win32,60,,,space,0.427795,2,1,1.103305,,0,190,190,195,1,1b,81,1,43,
,,,,,,,,,,,,,,,,,,,,,,,,,,images/exp2b_trial_62_colour2_distractors1_l.png,l,1,021,001,2021-04-22_17h53.14.222,searchDisc4,2020.2.10,Win32,60,,,space,0.47574,1,1,0.546785,,0,191,191,404,1,2b,62,2,1,
,,,,,,,,,,,,,,,,,,,,,,,,,,images/exp2c_trial_25_colour2_distractors4_l.png,l,1,021,001,2021-04-22_17h53.14.222,searchDisc4,2020.2.10,Win32,60,,,space,0.42134,1,1,0.54863,,0,192,192,481,1,2c,25,2,4,
,,,,,,,,,,,,,,,,,,,,,,,,,,images/exp2a_trial_65_colour2_distractors19_l.png,l,1,021,001,2021-04-22_17h53.14.222,searchDisc4,2020.2.10,Win32,60,,,space,0.41552,1,1,0.59263,,0,193,193,293,1,2a,65,2,19,
,,,,,,,,,,,,,,,,,,,,,,,,,,images/exp1a_trial_58_colour1_distractors9_l.png,l,1,021,001,2021-04-22_17h53.14.222,searchDisc4,2020.2.10,Win32,60,,,space,0.41498,1,1,0.817085,,0,194,194,58,1,1a,58,1,9,
,,,,,,,,,,,,,,,,,,,,,,,,,,images/exp2a_trial_76_colour1_distractors1_r.png,r,2,021,001,2021-04-22_17h53.14.222,searchDisc4,2020.2.10,Win32,60,,,space,0.48582,2,1,0.585755,,0,195,195,304,1,2a,76,1,1,
,,,,,,,,,,,,,,,,,,,,,,,,,,images/exp2b_trial_21_colour1_distractors19_l.png,l,1,021,001,2021-04-22_17h53.14.222,searchDisc4,2020.2.10,Win32,60,,,space,0.47939,1,1,0.5192,,0,196,196,363,1,2b,21,1,19,
,,,,,,,,,,,,,,,,,,,,,,,,,,images/exp1b_trial_87_colour2_distractors43_r.png,r,2,021,001,2021-04-22_17h53.14.222,searchDisc4,2020.2.10,Win32,60,,,space,0.497435,2,1,0.61661,,0,197,197,201,1,1b,87,2,43,
,,,,,,,,,,,,,,,,,,,,,,,,,,images/exp2c_trial_98_colour1_distractors31_l.png,l,1,021,001,2021-04-22_17h53.14.222,searchDisc4,2020.2.10,Win32,60,,,space,0.475235,1,1,0.46939,,0,198,198,554,1,2c,98,1,31,
,,,,,,,,,,,,,,,,,,,,,,,,,,images/exp2c_trial_80_colour1_distractors31_r.png,r,2,021,001,2021-04-22_17h53.14.222,searchDisc4,2020.2.10,Win32,60,,,space,0.468515,2,1,0.61327,,0,199,199,536,1,2c,80,1,31,
,,,,,,,,,,,,,,,,,,,,,,,,,,images/exp1b_trial_69_colour3_distractors4_l.png,l,1,021,001,2021-04-22_17h53.14.222,searchDisc4,2020.2.10,Win32,60,,,space,0.46393,1,1,0.84621,,0,200,200,183,1,1b,69,3,4,
,,,,,,,,,,,,,,,,,,,,,,,,,,images/exp2b_trial_55_colour3_distractors43_r.png,r,2,021,001,2021-04-22_17h53.14.222,searchDisc4,2020.2.10,Win32,60,,,space,0.380155,2,1,0.738375,,0,201,201,397,1,2b,55,3,43,
,,,,,,,,,,,,,,,,,,,,,,,,,,images/exp2a_trial_51_colour3_distractors4_r.png,r,2,021,001,2021-04-22_17h53.14.222,searchDisc4,2020.2.10,Win32,60,,,space,0.328655,2,1,0.633735,,0,202,202,279,1,2a,51,3,4,
,,,,,,,,,,,,,,,,,,,,,,,,,,images/exp2b_trial_90_colour3_distractors9_r.png,r,2,021,001,2021-04-22_17h53.14.222,searchDisc4,2020.2.10,Win32,60,,,space,0.446965,2,1,0.68145,,0,203,203,432,1,2b,90,3,9,
,,,,,,,,,,,,,,,,,,,,,,,,,,images/exp2c_trial_15_colour3_distractors19_r.png,r,2,021,001,2021-04-22_17h53.14.222,searchDisc4,2020.2.10,Win32,60,,,space,0.532055,2,1,0.47834,,0,204,204,471,1,2c,15,3,19,
,,,,,,,,,,,,,,,,,,,,,,,,,,images/exp2a_trial_98_colour1_distractors31_l.png,l,1,021,001,2021-04-22_17h53.14.222,searchDisc4,2020.2.10,Win32,60,,,space,0.431085,1,1,0.925645,,0,205,205,326,1,2a,98,1,31,
,,,,,,,,,,,,,,,,,,,,,,,,,,images/exp1b_trial_42_colour1_distractors31_r.png,r,2,021,001,2021-04-22_17h53.14.222,searchDisc4,2020.2.10,Win32,60,,,space,0.37767,2,1,0.66594,,0,206,206,156,1,1b,42,1,31,
,,,,,,,,,,,,,,,,,,,,,,,,,,images/exp2b_trial_27_colour2_distractors19_l.png,l,1,021,001,2021-04-22_17h53.14.222,searchDisc4,2020.2.10,Win32,60,,,space,0.33758,1,1,0.634305,,0,207,207,369,1,2b,27,2,19,
,,,,,,,,,,,,,,,,,,,,,,,,,,images/exp2c_trial_82_colour2_distractors1_r.png,r,2,021,001,2021-04-22_17h53.14.222,searchDisc4,2020.2.10,Win32,60,,,space,0.36689,2,1,0.54093,,0,208,208,538,1,2c,82,2,1,
,,,,,,,,,,,,,,,,,,,,,,,,,,images/exp2c_trial_18_colour1_distractors1_l.png,l,1,021,001,2021-04-22_17h53.14.222,searchDisc4,2020.2.10,Win32,60,,,space,0.40396,1,1,0.41078,,0,209,209,474,1,2c,18,1,1,
,,,,,,,,,,,,,,,,,,,,,,,,,,images/exp2c_trial_59_colour1_distractors19_l.png,l,1,021,001,2021-04-22_17h53.14.222,searchDisc4,2020.2.10,Win32,60,,,space,0.346585,1,1,0.451165,,0,210,210,515,1,2c,59,1,19,
,,,,,,,,,,,,,,,,,,,,,,,,,,images/exp1a_trial_112_colour0_distractors0_r.png,r,2,021,001,2021-04-22_17h53.14.222,searchDisc4,2020.2.10,Win32,60,,,space,0.343345,2,1,0.47534,,0,211,211,112,1,1a,112,0,0,
,,,,,,,,,,,,,,,,,,,,,,,,,,images/exp1b_trial_96_colour1_distractors9_l.png,l,1,021,001,2021-04-22_17h53.14.222,searchDisc4,2020.2.10,Win32,60,,,space,0.32927,1,1,0.61739,,0,212,212,210,1,1b,96,1,9,
,,,,,,,,,,,,,,,,,,,,,,,,,,images/exp2a_trial_2_colour1_distractors9_r.png,r,2,021,001,2021-04-22_17h53.14.222,searchDisc4,2020.2.10,Win32,60,,,space,0.29236,2,1,0.485515,,0,213,213,230,1,2a,2,1,9,
,,,,,,,,,,,,,,,,,,,,,,,,,,images/exp1a_trial_15_colour3_distractors19_r.png,r,2,021,001,2021-04-22_17h53.14.222,searchDisc4,2020.2.10,Win32,60,,,space,0.300125,2,1,0.64374,,0,214,214,15,1,1a,15,3,19,
,,,,,,,,,,,,,,,,,,,,,,,,,,images/exp2b_trial_5_colour1_distractors43_r.png,r,2,021,001,2021-04-22_17h53.14.222,searchDisc4,2020.2.10,Win32,60,,,space,0.2733,2,1,0.704135,,0,215,215,347,1,2b,5,1,43,
,,,,,,,,,,,,,,,,,,,,,,,,,,images/exp2c_trial_65_colour2_distractors19_l.png,l,1,021,001,2021-04-22_17h53.14.222,searchDisc4,2020.2.10,Win32,60,,,space,0.29008,1,1,0.624625,,0,216,216,521,1,2c,65,2,19,
,,,,,,,,,,,,,,,,,,,,,,,,,,images/exp2c_trial_56_colour1_distractors1_l.png,l,1,021,001,2021-04-22_17h53.14.222,searchDisc4,2020.2.10,Win32,60,,,space,0.305525,1,1,0.83131,,0,217,217,512,1,2c,56,1,1,
,,,,,,,,,,,,,,,,,,,,,,,,,,images/exp1a_trial_95_colour1_distractors4_l.png,l,1,021,001,2021-04-22_17h53.14.222,searchDisc4,2020.2.10,Win32,60,,,space,0.29808,1,1,0.692025,,0,218,218,95,1,1a,95,1,4,
,,,,,,,,,,,,,,,,,,,,,,,,,,images/exp2c_trial_67_colour2_distractors43_l.png,l,1,021,001,2021-04-22_17h53.14.222,searchDisc4,2020.2.10,Win32,60,,,space,0.335275,2,0,0.63085,,0,219,219,523,1,2c,67,2,43,
,,,,,,,,,,,,,,,,,,,,,,,,,,images/exp2c_trial_61_colour1_distractors43_l.png,l,1,021,001,2021-04-22_17h53.14.222,searchDisc4,2020.2.10,Win32,60,,,space,0.836955,1,1,0.47755,,0,220,220,517,1,2c,61,1,43,
,,,,,,,,,,,,,,,,,,,,,,,,,,images/exp1b_trial_32_colour3_distractors9_l.png,l,1,021,001,2021-04-22_17h53.14.222,searchDisc4,2020.2.10,Win32,60,,,space,1.50886,1,1,1.365355,,0,221,221,146,1,1b,32,3,9,
,,,,,,,,,,,,,,,,,,,,,,,,,,images/exp1a_trial_52_colour3_distractors9_r.png,r,2,021,001,2021-04-22_17h53.14.222,searchDisc4,2020.2.10,Win32,60,,,space,0.367015,2,1,0.55924,,0,222,222,52,1,1a,52,3,9,
,,,,,,,,,,,,,,,,,,,,,,,,,,images/exp2b_trial_73_colour3_distractors43_l.png,l,1,021,001,2021-04-22_17h53.14.222,searchDisc4,2020.2.10,Win32,60,,,space,0.43451,1,1,0.650465,,0,223,223,415,1,2b,73,3,43,
,,,,,,,,,,,,,,,,,,,,,,,,,,images/exp1a_trial_102_colour2_distractors9_l.png,l,1,021,001,2021-04-22_17h53.14.222,searchDisc4,2020.2.10,Win32,60,,,space,0.41071,1,1,0.73428,,0,224,224,102,1,1a,102,2,9,
,,,,,,,,,,,,,,,,,,,,,,,,,,images/exp2b_trial_69_colour3_distractors4_l.png,l,1,021,001,2021-04-22_17h53.14.222,searchDisc4,2020.2.10,Win32,60,,,space,0.391875,1,1,0.766645,,0,225,225,411,1,2b,69,3,4,
,,,,,,,,,,,,,,,,,,,,,,,,,,images/exp1b_trial_41_colour1_distractors19_r.png,r,2,021,001,2021-04-22_17h53.14.222,searchDisc4,2020.2.10,Win32,60,,,space,0.3791,2,1,0.757775,,0,226,226,155,1,1b,41,1,19,
,,,,,,,,,,,,,,,,,,,,,,,,,,images/exp2c_trial_74_colour0_distractors0_r.png,r,2,021,001,2021-04-22_17h53.14.222,searchDisc4,2020.2.10,Win32,60,,,space,0.36026,2,1,0.585865,,0,227,227,530,1,2c,74,0,0,
,,,,,,,,,,,,,,,,,,,,,,,,,,images/exp2b_trial_79_colour1_distractors19_r.png,r,2,021,001,2021-04-22_17h53.14.222,searchDisc4,2020.2.10,Win32,60,,,space,0.437605,2,1,0.521545,,0,228,228,421,1,2b,79,1,19,
,,,,,,,,,,,,,,,,,,,,,,,,,,images/exp1a_trial_49_colour2_distractors43_r.png,r,2,021,001,2021-04-22_17h53.14.222,searchDisc4,2020.2.10,Win32,60,,,space,0.37857,2,1,0.859695,,0,229,229,49,1,1a,49,2,43,
,,,,,,,,,,,,,,,,,,,,,,,,,,images/exp2c_trial_44_colour2_distractors1_r.png,r,2,021,001,2021-04-22_17h53.14.222,searchDisc4,2020.2.10,Win32,60,,,space,0.29735,2,1,0.588785,,0,230,230,500,1,2c,44,2,1,
,,,,,,,,,,,,,,,,,,,,,,,,,,images/exp2c_trial_95_colour1_distractors4_l.png,l,1,021,001,2021-04-22_17h53.14.222,searchDisc4,2020.2.10,Win32,60,,,space,0.31772,1,1,0.50416,,0,231,231,551,1,2c,95,1,4,
,,,,,,,,,,,,,,,,,,,,,,,,,,images/exp2c_trial_78_colour1_distractors9_r.png,r,2,021,001,2021-04-22_17h53.14.222,searchDisc4,2020.2.10,Win32,60,,,space,0.41921,2,1,0.64836,,0,232,232,534,1,2c,78,1,9,
,,,,,,,,,,,,,,,,,,,,,,,,,,images/exp1a_trial_7_colour2_distractors4_r.png,r,2,021,001,2021-04-22_17h53.14.222,searchDisc4,2020.2.10,Win32,60,,,space,0.416905,2,1,0.65928,,0,233,233,7,1,1a,7,2,4,
,,,,,,,,,,,,,,,,,,,,,,,,,,images/exp2a_trial_71_colour3_distractors19_l.png,l,1,021,001,2021-04-22_17h53.14.222,searchDisc4,2020.2.10,Win32,60,,,space,0.36427,1,1,0.48042,,0,234,234,299,1,2a,71,3,19,
,,,,,,,,,,,,,,,,,,,,,,,,,,images/exp1b_trial_13_colour3_distractors4_r.png,r,2,021,001,2021-04-22_17h53.14.222,searchDisc4,2020.2.10,Win32,60,,,space,0.347235,2,1,0.98578,,0,235,235,127,1,1b,13,3,4,
,,,,,,,,,,,,,,,,,,,,,,,,,,images/exp1b_trial_89_colour3_distractors4_r.png,r,2,021,001,2021-04-22_17h53.14.222,searchDisc4,2020.2.10,Win32,60,,,space,0.28965,2,1,0.85414,,0,236,236,203,1,1b,89,3,4,
,,,,,,,,,,,,,,,,,,,,,,,,,,images/exp2c_trial_37_colour0_distractors0_l.png,l,1,021,001,2021-04-22_17h53.14.222,searchDisc4,2020.2.10,Win32,60,,,space,0.286065,1,1,0.46837,,0,237,237,493,1,2c,37,0,0,
,,,,,,,,,,,,,,,,,,,,,,,,,,images/exp1b_trial_9_colour2_distractors19_r.png,r,2,021,001,2021-04-22_17h53.14.222,searchDisc4,2020.2.10,Win32,60,,,space,0.327505,2,1,0.989205,,0,238,238,123,1,1b,9,2,19,
,,,,,,,,,,,,,,,,,,,,,,,,,,images/exp1b_trial_52_colour3_distractors9_r.png,r,2,021,001,2021-04-22_17h53.14.222,searchDisc4,2020.2.10,Win32,60,,,space,0.24597,2,1,0.86081,space,0,239,239,166,1,1b,52,3,9,0.283745
,,,,,,,,,,,,,,,,,,,,,,,,,,images/exp2a_trial_89_colour3_distractors4_r.png,r,2,021,001,2021-04-22_17h53.14.222,searchDisc4,2020.2.10,Win32,60,,,space,0.91767,2,1,0.68429,,0,240,240,317,1,2a,89,3,4,
,,,,,,,,,,,,,,,,,,,,,,,,,,images/exp2b_trial_22_colour1_distractors31_l.png,l,1,021,001,2021-04-22_17h53.14.222,searchDisc4,2020.2.10,Win32,60,,,space,0.42798,1,1,0.44679,,0,241,241,364,1,2b,22,1,31,
,,,,,,,,,,,,,,,,,,,,,,,,,,images/exp2b_trial_95_colour1_distractors4_l.png,l,1,021,001,2021-04-22_17h53.14.222,searchDisc4,2020.2.10,Win32,60,,,space,0.472525,1,1,0.53337,,0,242,242,437,1,2b,95,1,4,
,,,,,,,,,,,,,,,,,,,,,,,,,,images/exp2c_trial_6_colour2_distractors1_r.png,r,2,021,001,2021-04-22_17h53.14.222,searchDisc4,2020.2.10,Win32,60,,,space,0.82959,2,1,0.547735,,0,243,243,462,1,2c,6,2,1,
,,,,,,,,,,,,,,,,,,,,,,,,,,images/exp2a_trial_36_colour0_distractors0_r.png,r,2,021,001,2021-04-22_17h53.14.222,searchDisc4,2020.2.10,Win32,60,,,space,0.439665,2,1,0.452915,,0,244,244,264,1,2a,36,0,0,
,,,,,,,,,,,,,,,,,,,,,,,,,,images/exp1a_trial_4_colour1_distractors31_r.png,r,2,021,001,2021-04-22_17h53.14.222,searchDisc4,2020.2.10,Win32,60,,,space,0.41278,2,1,0.623605,,0,245,245,4,1,1a,4,1,31,
,,,,,,,,,,,,,,,,,,,,,,,,,,images/exp2a_trial_88_colour3_distractors1_r.png,r,2,021,001,2021-04-22_17h53.14.222,searchDisc4,2020.2.10,Win32,60,,,space,0.38187,2,1,0.809215,,0,246,246,316,1,2a,88,3,1,
,,,,,,,,,,,,,,,,,,,,,,,,,,images/exp2a_trial_14_colour3_distractors9_r.png,r,2,021,001,2021-04-22_17h53.14.222,searchDisc4,2020.2.10,Win32,60,,,space,0.49874,2,1,0.64766,,0,247,247,242,1,2a,14,3,9,
,,,,,,,,,,,,,,,,,,,,,,,,,,images/exp1b_trial_58_colour1_distractors9_l.png,l,1,021,001,2021-04-22_17h53.14.222,searchDisc4,2020.2.10,Win32,60,,,space,0.392875,1,1,0.632705,,0,248,248,172,1,1b,58,1,9,
,,,,,,,,,,,,,,,,,,,,,,,,,,images/exp1b_trial_50_colour3_distractors1_r.png,r,2,021,001,2021-04-22_17h53.14.222,searchDisc4,2020.2.10,Win32,60,,,space,0.366475,2,1,0.629385,,0,249,249,164,1,1b,50,3,1,
,,,,,,,,,,,,,,,,,,,,,,,,,,images/exp2b_trial_10_colour2_distractors31_r.png,r,2,021,001,2021-04-22_17h53.14.222,searchDisc4,2020.2.10,Win32,60,,,space,0.330555,2,1,0.54302,,0,250,250,352,1,2b,10,2,31,
,,,,,,,,,,,,,,,,,,,,,,,,,,images/exp1b_trial_62_colour2_distractors1_l.png,l,1,021,001,2021-04-22_17h53.14.222,searchDisc4,2020.2.10,Win32,60,,,space,0.30723,1,1,0.781035,,0,251,251,176,1,1b,62,2,1,
,,,,,,,,,,,,,,,,,,,,,,,,,,images/exp2a_trial_61_colour1_distractors43_l.png,l,1,021,001,2021-04-22_17h53.14.222,searchDisc4,2020.2.10,Win32,60,,,space,0.37117,1,1,0.78475,,0,252,252,289,1,2a,61,1,43,
,,,,,,,,,,,,,,,,,,,,,,,,,,images/exp2b_trial_84_colour2_distractors9_r.png,r,2,021,001,2021-04-22_17h53.14.222,searchDisc4,2020.2.10,Win32,60,,,space,0.33412,2,1,0.597045,,0,253,253,426,1,2b,84,2,9,
,,,,,,,,,,,,,,,,,,,,,,,,,,images/exp2c_trial_79_colour1_distractors19_r.png,r,2,021,001,2021-04-22_17h53.14.222,searchDisc4,2020.2.10,Win32,60,,,space,0.32017,2,1,0.6129,,0,254,254,535,1,2c,79,1,19,
,,,,,,,,,,,,,,,,,,,,,,,,,,images/exp2b_trial_51_colour3_distractors4_r.png,r,2,021,001,2021-04-22_17h53.14.222,searchDisc4,2020.2.10,Win32,60,,,space,0.32895,2,1,0.520085,,0,255,255,393,1,2b,51,3,4,
,,,,,,,,,,,,,,,,,,,,,,,,,,images/exp1a_trial_70_colour3_distractors9_l.png,l,1,021,001,2021-04-22_17h53.14.222,searchDisc4,2020.2.10,Win32,60,,,space,0.304825,1,1,0.996255,,0,256,256,70,1,1a,70,3,9,
,,,,,,,,,,,,,,,,,,,,,,,,,,images/exp1a_trial_12_colour3_distractors1_r.png,r,2,021,001,2021-04-22_17h53.14.222,searchDisc4,2020.2.10,Win32,60,,,space,0.3478,2,1,0.469925,,0,257,257,12,1,1a,12,3,1,
,,,,,,,,,,,,,,,,,,,,,,,,,,images/exp2c_trial_45_colour2_distractors4_r.png,r,2,021,001,2021-04-22_17h53.14.222,searchDisc4,2020.2.10,Win32,60,,,space,0.548665,2,1,0.69493,,0,258,258,501,1,2c,45,2,4,
,,,,,,,,,,,,,,,,,,,,,,,,,,images/exp2c_trial_10_colour2_distractors31_r.png,r,2,021,001,2021-04-22_17h53.14.222,searchDisc4,2020.2.10,Win32,60,,,space,0.46981,2,1,0.67341,,0,259,259,466,1,2c,10,2,31,
,,,,,,,,,,,,,,,,,,,,,,,,,,images/exp2a_trial_95_colour1_distractors4_l.png,l,1,021,001,2021-04-22_17h53.14.222,searchDisc4,2020.2.10,Win32,60,,,space,0.4273,1,1,0.76628,,0,260,260,323,1,2a,95,1,4,
,,,,,,,,,,,,,,,,,,,,,,,,,,images/exp2a_trial_30_colour3_distractors1_l.png,l,1,021,001,2021-04-22_17h53.14.222,searchDisc4,2020.2.10,Win32,60,,,space,0.36275,1,1,0.538415,,0,261,261,258,1,2a,30,3,1,
,,,,,,,,,,,,,,,,,,,,,,,,,,images/exp2b_trial_71_colour3_distractors19_l.png,l,1,021,001,2021-04-22_17h53.14.222,searchDisc4,2020.2.10,Win32,60,,,space,0.30438,1,1,0.707865,,0,262,262,413,1,2b,71,3,19,
,,,,,,,,,,,,,,,,,,,,,,,,,,images/exp2c_trial_113_colour0_distractors0_l.png,l,1,021,001,2021-04-22_17h53.14.222,searchDisc4,2020.2.10,Win32,60,,,space,0.28502,1,1,0.48768,,0,263,263,569,1,2c,113,0,0,
,,,,,,,,,,,,,,,,,,,,,,,,,,images/exp2b_trial_52_colour3_distractors9_r.png,r,2,021,001,2021-04-22_17h53.14.222,searchDisc4,2020.2.10,Win32,60,,,space,0.30652,2,1,0.54614,,0,264,264,394,1,2b,52,3,9,
,,,,,,,,,,,,,,,,,,,,,,,,,,images/exp1b_trial_56_colour1_distractors1_l.png,l,1,021,001,2021-04-22_17h53.14.222,searchDisc4,2020.2.10,Win32,60,,,space,0.2181,1,1,0.57077,,0,265,265,170,1,1b,56,1,1,
,,,,,,,,,,,,,,,,,,,,,,,,,,images/exp1b_trial_95_colour1_distractors4_l.png,l,1,021,001,2021-04-22_17h53.14.222,searchDisc4,2020.2.10,Win32,60,,,space,0.300545,1,1,0.75923,,0,266,266,209,1,1b,95,1,4,
,,,,,,,,,,,,,,,,,,,,,,,,,,images/exp2b_trial_54_colour3_distractors31_r.png,r,2,021,001,2021-04-22_17h53.14.222,searchDisc4,2020.2.10,Win32,60,,,space,0.32196,2,1,0.65433,,0,267,267,396,1,2b,54,3,31,
,,,,,,,,,,,,,,,,,,,,,,,,,,images/exp2a_trial_55_colour3_distractors43_r.png,r,2,021,001,2021-04-22_17h53.14.222,searchDisc4,2020.2.10,Win32,60,,,space,0.24681,2,1,0.781075,,0,268,268,283,1,2a,55,3,43,
,,,,,,,,,,,,,,,,,,,,,,,,,,images/exp2c_trial_107_colour3_distractors4_l.png,l,1,021,001,2021-04-22_17h53.14.222,searchDisc4,2020.2.10,Win32,60,,,space,0.273295,1,1,0.56974,,0,269,269,563,1,2c,107,3,4,
,,,,,,,,,,,,,,,,,,,,,,,,,,images/exp2b_trial_12_colour3_distractors1_r.png,r,2,021,001,2021-04-22_17h53.14.222,searchDisc4,2020.2.10,Win32,60,,,space,0.30268,2,1,0.53762,,0,270,270,354,1,2b,12,3,1,
,,,,,,,,,,,,,,,,,,,,,,,,,,images/exp1a_trial_89_colour3_distractors4_r.png,r,2,021,001,2021-04-22_17h53.14.222,searchDisc4,2020.2.10,Win32,60,,,space,0.26616,2,1,0.59209,,0,271,271,89,1,1a,89,3,4,
,,,,,,,,,,,,,,,,,,,,,,,,,,images/exp2c_trial_41_colour1_distractors19_r.png,r,2,021,001,2021-04-22_17h53.14.222,searchDisc4,2020.2.10,Win32,60,,,space,0.251405,2,1,0.63062,,0,272,272,497,1,2c,41,1,19,
,,,,,,,,,,,,,,,,,,,,,,,,,,images/exp2a_trial_109_colour3_distractors19_l.png,l,1,021,001,2021-04-22_17h53.14.222,searchDisc4,2020.2.10,Win32,60,,,space,0.261205,1,1,0.50543,,0,273,273,337,1,2a,109,3,19,
,,,,,,,,,,,,,,,,,,,,,,,,,,images/exp2c_trial_86_colour2_distractors31_r.png,r,2,021,001,2021-04-22_17h53.14.222,searchDisc4,2020.2.10,Win32,60,,,space,0.244785,2,1,1.027125,,0,274,274,542,1,2c,86,2,31,
,,,,,,,,,,,,,,,,,,,,,,,,,,images/exp2c_trial_33_colour3_distractors19_l.png,l,1,021,001,2021-04-22_17h53.14.222,searchDisc4,2020.2.10,Win32,60,,,space,0.23596,1,1,0.50698,,0,275,275,489,1,2c,33,3,19,
,,,,,,,,,,,,,,,,,,,,,,,,,,images/exp1a_trial_33_colour3_distractors19_l.png,l,1,021,001,2021-04-22_17h53.14.222,searchDisc4,2020.2.10,Win32,60,,,space,0.27049,2,0,0.467275,,0,276,276,33,1,1a,33,3,19,
,,,,,,,,,,,,,,,,,,,,,,,,,,images/exp2b_trial_65_colour2_distractors19_l.png,l,1,021,001,2021-04-22_17h53.14.222,searchDisc4,2020.2.10,Win32,60,,,space,1.207185,1,1,0.492895,,0,277,277,407,1,2b,65,2,19,
,,,,,,,,,,,,,,,,,,,,,,,,,,images/exp2a_trial_80_colour1_distractors31_r.png,r,2,021,001,2021-04-22_17h53.14.222,searchDisc4,2020.2.10,Win32,60,,,space,0.48821,2,1,0.612315,,0,278,278,308,1,2a,80,1,31,
,,,,,,,,,,,,,,,,,,,,,,,,,,images/exp2c_trial_39_colour1_distractors4_r.png,r,2,021,001,2021-04-22_17h53.14.222,searchDisc4,2020.2.10,Win32,60,,,space,0.378805,2,1,0.628515,,0,279,279,495,1,2c,39,1,4,
,,,,,,,,,,,,,,,,,,,,,,,,,,images/exp2c_trial_21_colour1_distractors19_l.png,l,1,021,001,2021-04-22_17h53.14.222,searchDisc4,2020.2.10,Win32,60,,,space,0.38324,1,1,0.72214,,0,280,280,477,1,2c,21,1,19,
,,,,,,,,,,,,,,,,,,,,,,,,,,images/exp2c_trial_88_colour3_distractors1_r.png,r,2,021,001,2021-04-22_17h53.14.222,searchDisc4,2020.2.10,Win32,60,,,space,0.38961,2,1,0.79023,,0,281,281,544,1,2c,88,3,1,
,,,,,,,,,,,,,,,,,,,,,,,,,,images/exp2b_trial_76_colour1_distractors1_r.png,r,2,021,001,2021-04-22_17h53.14.222,searchDisc4,2020.2.10,Win32,60,,,space,0.38789,2,1,0.510255,,0,282,282,418,1,2b,76,1,1,
,,,,,,,,,,,,,,,,,,,,,,,,,,images/exp1a_trial_40_colour1_distractors9_r.png,r,2,021,001,2021-04-22_17h53.14.222,searchDisc4,2020.2.10,Win32,60,,,space,0.439755,2,1,0.64483,,0,283,283,40,1,1a,40,1,9,
,,,,,,,,,,,,,,,,,,,,,,,,,,images/exp2b_trial_56_colour1_distractors1_l.png,l,1,021,001,2021-04-22_17h53.14.222,searchDisc4,2020.2.10,Win32,60,,,space,0.34073,1,1,0.567075,,0,284,284,398,1,2b,56,1,1,
,,,,,,,,,,,,,,,,,,,,,,,,,,images/exp1a_trial_47_colour2_distractors19_r.png,r,2,021,001,2021-04-22_17h53.14.222,searchDisc4,2020.2.10,Win32,60,,,space,0.446935,2,1,0.65626,,0,285,285,47,1,1a,47,2,19,
,,,,,,,,,,,,,,,,,,,,,,,,,,images/exp1a_trial_107_colour3_distractors4_l.png,l,1,021,001,2021-04-22_17h53.14.222,searchDisc4,2020.2.10,Win32,60,,,space,0.469485,1,1,1.0389,,0,286,286,107,1,1a,107,3,4,
,,,,,,,,,,,,,,,,,,,,,,,,,,images/exp1b_trial_48_colour2_distractors31_r.png,r,2,021,001,2021-04-22_17h53.14.222,searchDisc4,2020.2.10,Win32,60,,,space,0.73173,2,1,1.861665,,0,287,287,162,1,1b,48,2,31,
,,,,,,,,,,,,,,,,,,,,,,,,,,images/exp1a_trial_55_colour3_distractors43_r.png,r,2,021,001,2021-04-22_17h53.14.222,searchDisc4,2020.2.10,Win32,60,,,space,0.428165,2,1,0.51112,,0,288,288,55,1,1a,55,3,43,
,,,,,,,,,,,,,,,,,,,,,,,,,,images/exp1b_trial_76_colour1_distractors1_r.png,r,2,021,001,2021-04-22_17h53.14.222,searchDisc4,2020.2.10,Win32,60,,,space,0.35572,2,1,0.50429,,0,289,289,190,1,1b,76,1,1,
,,,,,,,,,,,,,,,,,,,,,,,,,,images/exp2b_trial_38_colour1_distractors1_r.png,r,2,021,001,2021-04-22_17h53.14.222,searchDisc4,2020.2.10,Win32,60,,,space,0.300795,2,1,0.509815,,0,290,290,380,1,2b,38,1,1,
,,,,,,,,,,,,,,,,,,,,,,,,,,images/exp2b_trial_109_colour3_distractors19_l.png,l,1,021,001,2021-04-22_17h53.14.222,searchDisc4,2020.2.10,Win32,60,,,space,0.385455,1,1,0.49358,,0,291,291,451,1,2b,109,3,19,
,,,,,,,,,,,,,,,,,,,,,,,,,,images/exp2a_trial_37_colour0_distractors0_l.png,l,1,021,001,2021-04-22_17h53.14.222,searchDisc4,2020.2.10,Win32,60,,,space,0.346965,1,1,0.59263,,0,292,292,265,1,2a,37,0,0,
,,,,,,,,,,,,,,,,,,,,,,,,,,images/exp2c_trial_50_colour3_distractors1_r.png,r,2,021,001,2021-04-22_17h53.14.222,searchDisc4,2020.2.10,Win32,60,,,space,0.535675,2,1,0.53504,,0,293,293,506,1,2c,50,3,1,
,,,,,,,,,,,,,,,,,,,,,,,,,,images/exp2b_trial_32_colour3_distractors9_l.png,l,1,021,001,2021-04-22_17h53.14.222,searchDisc4,2020.2.10,Win32,60,,,space,0.3586,1,1,0.696685,,0,294,294,374,1,2b,32,3,9,
,,,,,,,,,,,,,,,,,,,,,,,,,,images/exp1b_trial_101_colour2_distractors4_l.png,l,1,021,001,2021-04-22_17h53.14.222,searchDisc4,2020.2.10,Win32,60,,,space,0.39987,1,1,0.63452,,0,295,295,215,1,1b,101,2,4,
,,,,,,,,,,,,,,,,,,,,,,,,,,images/exp2c_trial_69_colour3_distractors4_l.png,l,1,021,001,2021-04-22_17h53.14.222,searchDisc4,2020.2.10,Win32,60,,,space,0.50084,1,1,0.44939,,0,296,296,525,1,2c,69,3,4,
,,,,,,,,,,,,,,,,,,,,,,,,,,images/exp1b_trial_61_colour1_distractors43_l.png,l,1,021,001,2021-04-22_17h53.14.222,searchDisc4,2020.2.10,Win32,60,,,space,0.405945,1,1,0.999215,,0,297,297,175,1,1b,61,1,43,
,,,,,,,,,,,,,,,,,,,,,,,,,,images/exp1b_trial_71_colour3_distractors19_l.png,l,1,021,001,2021-04-22_17h53.14.222,searchDisc4,2020.2.10,Win32,60,,,space,0.429785,1,1,1.379615,,0,298,298,185,1,1b,71,3,19,
,,,,,,,,,,,,,,,,,,,,,,,,,,images/exp2b_trial_7_colour2_distractors4_r.png,r,2,021,001,2021-04-22_17h53.14.222,searchDisc4,2020.2.10,Win32,60,,,space,0.253525,2,1,0.787875,space,0,299,299,349,1,2b,7,2,4,0.275785
,,,,,,,,,,,,,,,,,,,,,,,,,,images/exp2b_trial_44_colour2_distractors1_r.png,r,2,021,001,2021-04-22_17h53.14.222,searchDisc4,2020.2.10,Win32,60,,,space,0.67891,2,1,0.478675,,0,300,300,386,1,2b,44,2,1,
,,,,,,,,,,,,,,,,,,,,,,,,,,images/exp1a_trial_54_colour3_distractors31_r.png,r,2,021,001,2021-04-22_17h53.14.222,searchDisc4,2020.2.10,Win32,60,,,space,0.46437,2,1,0.587095,,0,301,301,54,1,1a,54,3,31,
,,,,,,,,,,,,,,,,,,,,,,,,,,images/exp1b_trial_31_colour3_distractors4_l.png,l,1,021,001,2021-04-22_17h53.14.222,searchDisc4,2020.2.10,Win32,60,,,space,0.46522,1,1,0.934925,,0,302,302,145,1,1b,31,3,4,
,,,,,,,,,,,,,,,,,,,,,,,,,,images/exp1b_trial_84_colour2_distractors9_r.png,r,2,021,001,2021-04-22_17h53.14.222,searchDisc4,2020.2.10,Win32,60,,,space,0.53191,2,1,1.065585,,0,303,303,198,1,1b,84,2,9,
,,,,,,,,,,,,,,,,,,,,,,,,,,images/exp2a_trial_69_colour3_distractors4_l.png,l,1,021,001,2021-04-22_17h53.14.222,searchDisc4,2020.2.10,Win32,60,,,space,0.59733,1,1,0.520255,,0,304,304,297,1,2a,69,3,4,
,,,,,,,,,,,,,,,,,,,,,,,,,,images/exp1a_trial_3_colour1_distractors19_r.png,r,2,021,001,2021-04-22_17h53.14.222,searchDisc4,2020.2.10,Win32,60,,,space,0.46294,2,1,0.529065,,0,305,305,3,1,1a,3,1,19,
,,,,,,,,,,,,,,,,,,,,,,,,,,images/exp1a_trial_110_colour3_distractors31_l.png,l,1,021,001,2021-04-22_17h53.14.222,searchDisc4,2020.2.10,Win32,60,,,space,0.46573,1,1,0.604945,,0,306,306,110,1,1a,110,3,31,
,,,,,,,,,,,,,,,,,,,,,,,,,,images/exp2b_trial_106_colour3_distractors1_l.png,l,1,021,001,2021-04-22_17h53.14.222,searchDisc4,2020.2.10,Win32,60,,,space,0.656945,1,1,0.57721,,0,307,307,448,1,2b,106,3,1,
,,,,,,,,,,,,,,,,,,,,,,,,,,images/exp1a_trial_84_colour2_distractors9_r.png,r,2,021,001,2021-04-22_17h53.14.222,searchDisc4,2020.2.10,Win32,60,,,space,0.44642,2,1,0.90362,,0,308,308,84,1,1a,84,2,9,
,,,,,,,,,,,,,,,,,,,,,,,,,,images/exp1a_trial_106_colour3_distractors1_l.png,l,1,021,001,2021-04-22_17h53.14.222,searchDisc4,2020.2.10,Win32,60,,,space,0.38819,1,1,1.09498,,0,309,309,106,1,1a,106,3,1,
,,,,,,,,,,,,,,,,,,,,,,,,,,images/exp1a_trial_9_colour2_distractors19_r.png,r,2,021,001,2021-04-22_17h53.14.222,searchDisc4,2020.2.10,Win32,60,,,space,0.375685,2,1,0.556675,,0,310,310,9,1,1a,9,2,19,
,,,,,,,,,,,,,,,,,,,,,,,,,,images/exp2c_trial_58_colour1_distractors9_l.png,l,1,021,001,2021-04-22_17h53.14.222,searchDisc4,2020.2.10,Win32,60,,,space,0.426795,1,1,0.459335,,0,311,311,514,1,2c,58,1,9,
,,,,,,,,,,,,,,,,,,,,,,,,,,images/exp2a_trial_112_colour0_distractors0_r.png,r,2,021,001,2021-04-22_17h53.14.222,searchDisc4,2020.2.10,Win32,60,,,space,0.48906,2,1,0.50833,,0,312,312,340,1,2a,112,0,0,
,,,,,,,,,,,,,,,,,,,,,,,,,,images/exp2c_trial_101_colour2_distractors4_l.png,l,1,021,001,2021-04-22_17h53.14.222,searchDisc4,2020.2.10,Win32,60,,,space,0.50301,1,1,0.868975,,0,313,313,557,1,2c,101,2,4,
,,,,,,,,,,,,,,,,,,,,,,,,,,images/exp1a_trial_81_colour1_distractors43_r.png,r,2,021,001,2021-04-22_17h53.14.222,searchDisc4,2020.2.10,Win32,60,,,space,0.40621,2,1,0.8342,,0,314,314,81,1,1a,81,1,43,
,,,,,,,,,,,,,,,,,,,,,,,,,,images/exp1a_trial_108_colour3_distractors9_l.png,l,1,021,001,2021-04-22_17h53.14.222,searchDisc4,2020.2.10,Win32,60,,,space,0.39555,1,1,0.552905,,0,315,315,108,1,1a,108,3,9,
,,,,,,,,,,,,,,,,,,,,,,,,,,images/exp2b_trial_80_colour1_distractors31_r.png,r,2,021,001,2021-04-22_17h53.14.222,searchDisc4,2020.2.10,Win32,60,,,space,0.588945,2,1,1.12225,,0,316,316,422,1,2b,80,1,31,
,,,,,,,,,,,,,,,,,,,,,,,,,,images/exp1a_trial_39_colour1_distractors4_r.png,r,2,021,001,2021-04-22_17h53.14.222,searchDisc4,2020.2.10,Win32,60,,,space,0.478335,2,1,1.018835,,0,317,317,39,1,1a,39,1,4,
,,,,,,,,,,,,,,,,,,,,,,,,,,images/exp1b_trial_19_colour1_distractors4_l.png,l,1,021,001,2021-04-22_17h53.14.222,searchDisc4,2020.2.10,Win32,60,,,space,0.664285,1,1,0.73194,,0,318,318,133,1,1b,19,1,4,
,,,,,,,,,,,,,,,,,,,,,,,,,,images/exp2b_trial_59_colour1_distractors19_l.png,l,1,021,001,2021-04-22_17h53.14.222,searchDisc4,2020.2.10,Win32,60,,,space,0.47299,1,1,0.626965,,0,319,319,401,1,2b,59,1,19,
,,,,,,,,,,,,,,,,,,,,,,,,,,images/exp2c_trial_49_colour2_distractors43_r.png,r,2,021,001,2021-04-22_17h53.14.222,searchDisc4,2020.2.10,Win32,60,,,space,0.499835,2,1,0.73169,,0,320,320,505,1,2c,49,2,43,
,,,,,,,,,,,,,,,,,,,,,,,,,,images/exp2b_trial_113_colour0_distractors0_l.png,l,1,021,001,2021-04-22_17h53.14.222,searchDisc4,2020.2.10,Win32,60,,,space,0.45255,1,1,0.48406,,0,321,321,455,1,2b,113,0,0,
,,,,,,,,,,,,,,,,,,,,,,,,,,images/exp2b_trial_78_colour1_distractors9_r.png,r,2,021,001,2021-04-22_17h53.14.222,searchDisc4,2020.2.10,Win32,60,,,space,0.345435,2,1,0.63632,,0,322,322,420,1,2b,78,1,9,
,,,,,,,,,,,,,,,,,,,,,,,,,,images/exp1b_trial_37_colour0_distractors0_l.png,l,1,021,001,2021-04-22_17h53.14.222,searchDisc4,2020.2.10,Win32,60,,,space,0.382045,1,1,0.5718,,0,323,323,151,1,1b,37,0,0,
,,,,,,,,,,,,,,,,,,,,,,,,,,images/exp2b_trial_83_colour2_distractors4_r.png,r,2,021,001,2021-04-22_17h53.14.222,searchDisc4,2020.2.10,Win32,60,,,space,1.44048,2,1,0.50339,,0,324,324,425,1,2b,83,2,4,
,,,,,,,,,,,,,,,,,,,,,,,,,,images/exp1a_trial_78_colour1_distractors9_r.png,r,2,021,001,2021-04-22_17h53.14.222,searchDisc4,2020.2.10,Win32,60,,,space,0.43354,2,1,0.61298,,0,325,325,78,1,1a,78,1,9,
,,,,,,,,,,,,,,,,,,,,,,,,,,images/exp1b_trial_106_colour3_distractors1_l.png,l,1,021,001,2021-04-22_17h53.14.222,searchDisc4,2020.2.10,Win32,60,,,space,0.43024,1,1,0.57111,,0,326,326,220,1,1b,106,3,1,
,,,,,,,,,,,,,,,,,,,,,,,,,,images/exp1a_trial_8_colour2_distractors9_r.png,r,2,021,001,2021-04-22_17h53.14.222,searchDisc4,2020.2.10,Win32,60,,,space,0.475575,2,1,1.09087,,0,327,327,8,1,1a,8,2,9,
,,,,,,,,,,,,,,,,,,,,,,,,,,images/exp1a_trial_93_colour3_distractors43_r.png,r,2,021,001,2021-04-22_17h53.14.222,searchDisc4,2020.2.10,Win32,60,,,space,0.519775,2,1,0.994565,,0,328,328,93,1,1a,93,3,43,
,,,,,,,,,,,,,,,,,,,,,,,,,,images/exp1a_trial_76_colour1_distractors1_r.png,r,2,021,001,2021-04-22_17h53.14.222,searchDisc4,2020.2.10,Win32,60,,,space,0.51219,1,0,0.78329,,0,329,329,76,1,1a,76,1,1,
,,,,,,,,,,,,,,,,,,,,,,,,,,images/exp1b_trial_30_colour3_distractors1_l.png,l,1,021,001,2021-04-22_17h53.14.222,searchDisc4,2020.2.10,Win32,60,,,space,0.582755,1,1,0.625645,,0,330,330,144,1,1b,30,3,1,
,,,,,,,,,,,,,,,,,,,,,,,,,,images/exp2c_trial_30_colour3_distractors1_l.png,l,1,021,001,2021-04-22_17h53.14.222,searchDisc4,2020.2.10,Win32,60,,,space,0.544045,1,1,0.64755,,0,331,331,486,1,2c,30,3,1,
,,,,,,,,,,,,,,,,,,,,,,,,,,images/exp2c_trial_111_colour3_distractors43_l.png,l,1,021,001,2021-04-22_17h53.14.222,searchDisc4,2020.2.10,Win32,60,,,space,0.51822,1,1,0.700335,,0,332,332,567,1,2c,111,3,43,
,,,,,,,,,,,,,,,,,,,,,,,,,,images/exp2b_trial_25_colour2_distractors4_l.png,l,1,021,001,2021-04-22_17h53.14.222,searchDisc4,2020.2.10,Win32,60,,,space,0.51461,1,1,0.55417,,0,333,333,367,1,2b,25,2,4,
,,,,,,,,,,,,,,,,,,,,,,,,,,images/exp1a_trial_77_colour1_distractors4_r.png,r,2,021,001,2021-04-22_17h53.14.222,searchDisc4,2020.2.10,Win32,60,,,space,0.69517,2,1,0.56125,,0,334,334,77,1,1a,77,1,4,
,,,,,,,,,,,,,,,,,,,,,,,,,,images/exp2c_trial_26_colour2_distractors9_l.png,l,1,021,001,2021-04-22_17h53.14.222,searchDisc4,2020.2.10,Win32,60,,,space,0.761485,1,1,0.75841,,0,335,335,482,1,2c,26,2,9,
,,,,,,,,,,,,,,,,,,,,,,,,,,images/exp1b_trial_60_colour1_distractors31_l.png,l,1,021,001,2021-04-22_17h53.14.222,searchDisc4,2020.2.10,Win32,60,,,space,0.415915,1,1,0.83335,,0,336,336,174,1,1b,60,1,31,
,,,,,,,,,,,,,,,,,,,,,,,,,,images/exp2a_trial_11_colour2_distractors43_r.png,r,2,021,001,2021-04-22_17h53.14.222,searchDisc4,2020.2.10,Win32,60,,,space,0.414165,2,1,0.49612,,0,337,337,239,1,2a,11,2,43,
,,,,,,,,,,,,,,,,,,,,,,,,,,images/exp2a_trial_79_colour1_distractors19_r.png,r,2,021,001,2021-04-22_17h53.14.222,searchDisc4,2020.2.10,Win32,60,,,space,0.410205,2,1,0.68152,,0,338,338,307,1,2a,79,1,19,
,,,,,,,,,,,,,,,,,,,,,,,,,,images/exp2a_trial_39_colour1_distractors4_r.png,r,2,021,001,2021-04-22_17h53.14.222,searchDisc4,2020.2.10,Win32,60,,,space,0.415495,2,1,0.743445,,0,339,339,267,1,2a,39,1,4,
,,,,,,,,,,,,,,,,,,,,,,,,,,images/exp1b_trial_21_colour1_distractors19_l.png,l,1,021,001,2021-04-22_17h53.14.222,searchDisc4,2020.2.10,Win32,60,,,space,0.362285,1,1,0.75156,,0,340,340,135,1,1b,21,1,19,
,,,,,,,,,,,,,,,,,,,,,,,,,,images/exp2c_trial_32_colour3_distractors9_l.png,l,1,021,001,2021-04-22_17h53.14.222,searchDisc4,2020.2.10,Win32,60,,,space,0.41456,1,1,0.668465,,0,341,341,488,1,2c,32,3,9,
,,,,,,,,,,,,,,,,,,,,,,,,,,images/exp2c_trial_62_colour2_distractors1_l.png,l,1,021,001,2021-04-22_17h53.14.222,searchDisc4,2020.2.10,Win32,60,,,space,0.562745,1,1,0.51791,,0,342,342,518,1,2c,62,2,1,
,,,,,,,,,,,,,,,,,,,,,,,,,,images/exp1b_trial_82_colour2_distractors1_r.png,r,2,021,001,2021-04-22_17h53.14.222,searchDisc4,2020.2.10,Win32,60,,,space,0.52782,2,1,0.45228,,0,343,343,196,1,1b,82,2,1,
,,,,,,,,,,,,,,,,,,,,,,,,,,images/exp2c_trial_11_colour2_distractors43_r.png,r,2,021,001,2021-04-22_17h53.14.222,searchDisc4,2020.2.10,Win32,60,,,space,0.490065,2,1,0.57132,,0,344,344,467,1,2c,11,2,43,
,,,,,,,,,,,,,,,,,,,,,,,,,,images/exp2a_trial_44_colour2_distractors1_r.png,r,2,021,001,2021-04-22_17h53.14.222,searchDisc4,2020.2.10,Win32,60,,,space,0.459755,2,1,0.535845,,0,345,345,272,1,2a,44,2,1,
,,,,,,,,,,,,,,,,,,,,,,,,,,images/exp2b_trial_66_colour2_distractors31_l.png,l,1,021,001,2021-04-22_17h53.14.222,searchDisc4,2020.2.10,Win32,60,,,space,0.485135,1,1,0.4759,,0,346,346,408,1,2b,66,2,31,
,,,,,,,,,,,,,,,,,,,,,,,,,,images/exp2c_trial_4_colour1_distractors31_r.png,r,2,021,001,2021-04-22_17h53.14.222,searchDisc4,2020.2.10,Win32,60,,,space,0.49015,2,1,0.424575,,0,347,347,460,1,2c,4,1,31,
,,,,,,,,,,,,,,,,,,,,,,,,,,images/exp2b_trial_45_colour2_distractors4_r.png,r,2,021,001,2021-04-22_17h53.14.222,searchDisc4,2020.2.10,Win32,60,,,space,0.453515,1,0,0.415455,,0,348,348,387,1,2b,45,2,4,
,,,,,,,,,,,,,,,,,,,,,,,,,,images/exp2b_trial_107_colour3_distractors4_l.png,l,1,021,001,2021-04-22_17h53.14.222,searchDisc4,2020.2.10,Win32,60,,,space,0.64962,1,1,0.549315,,0,349,349,449,1,2b,107,3,4,
,,,,,,,,,,,,,,,,,,,,,,,,,,images/exp2a_trial_10_colour2_distractors31_r.png,r,2,021,001,2021-04-22_17h53.14.222,searchDisc4,2020.2.10,Win32,60,,,space,0.465285,2,1,0.45165,,0,350,350,238,1,2a,10,2,31,
,,,,,,,,,,,,,,,,,,,,,,,,,,images/exp2a_trial_70_colour3_distractors9_l.png,l,1,021,001,2021-04-22_17h53.14.222,searchDisc4,2020.2.10,Win32,60,,,space,0.475175,1,1,0.438935,,0,351,351,298,1,2a,70,3,9,
,,,,,,,,,,,,,,,,,,,,,,,,,,images/exp2c_trial_60_colour1_distractors31_l.png,l,1,021,001,2021-04-22_17h53.14.222,searchDisc4,2020.2.10,Win32,60,,,space,0.454995,2,0,0.5762,,0,352,352,516,1,2c,60,1,31,
,,,,,,,,,,,,,,,,,,,,,,,,,,images/exp1a_trial_87_colour2_distractors43_r.png,r,2,021,001,2021-04-22_17h53.14.222,searchDisc4,2020.2.10,Win32,60,,,space,0.446035,2,1,0.9868,,0,353,353,87,1,1a,87,2,43,
,,,,,,,,,,,,,,,,,,,,,,,,,,images/exp2c_trial_81_colour1_distractors43_r.png,r,2,021,001,2021-04-22_17h53.14.222,searchDisc4,2020.2.10,Win32,60,,,space,0.277195,2,1,0.589855,,0,354,354,537,1,2c,81,1,43,
,,,,,,,,,,,,,,,,,,,,,,,,,,images/exp1b_trial_49_colour2_distractors43_r.png,r,2,021,001,2021-04-22_17h53.14.222,searchDisc4,2020.2.10,Win32,60,,,space,0.80454,2,1,0.69448,,0,355,355,163,1,1b,49,2,43,
,,,,,,,,,,,,,,,,,,,,,,,,,,images/exp2b_trial_18_colour1_distractors1_l.png,l,1,021,001,2021-04-22_17h53.14.222,searchDisc4,2020.2.10,Win32,60,,,space,0.349785,1,1,0.593045,,0,356,356,360,1,2b,18,1,1,
,,,,,,,,,,,,,,,,,,,,,,,,,,images/exp2c_trial_85_colour2_distractors19_r.png,r,2,021,001,2021-04-22_17h53.14.222,searchDisc4,2020.2.10,Win32,60,,,space,0.400185,2,1,0.62155,,0,357,357,541,1,2c,85,2,19,
,,,,,,,,,,,,,,,,,,,,,,,,,,images/exp1b_trial_35_colour3_distractors43_l.png,l,1,021,001,2021-04-22_17h53.14.222,searchDisc4,2020.2.10,Win32,60,,,space,0.38775,1,1,1.61307,,0,358,358,149,1,1b,35,3,43,
,,,,,,,,,,,,,,,,,,,,,,,,,,images/exp2c_trial_87_colour2_distractors43_r.png,r,2,021,001,2021-04-22_17h53.14.222,searchDisc4,2020.2.10,Win32,60,,,space,0.401315,2,1,0.577945,space,0,359,359,543,1,2c,87,2,43,17.032085
,,,,,,,,,,,,,,,,,,,,,,,,,,images/exp2b_trial_74_colour0_distractors0_r.png,r,2,021,001,2021-04-22_17h53.14.222,searchDisc4,2020.2.10,Win32,60,,,space,1.033175,2,1,0.451835,,0,360,360,416,1,2b,74,0,0,
,,,,,,,,,,,,,,,,,,,,,,,,,,images/exp2b_trial_112_colour0_distractors0_r.png,r,2,021,001,2021-04-22_17h53.14.222,searchDisc4,2020.2.10,Win32,60,,,space,0.47327,2,1,0.43187,,0,361,361,454,1,2b,112,0,0,
,,,,,,,,,,,,,,,,,,,,,,,,,,images/exp2a_trial_77_colour1_distractors4_r.png,r,2,021,001,2021-04-22_17h53.14.222,searchDisc4,2020.2.10,Win32,60,,,space,0.52982,2,1,0.588595,,0,362,362,305,1,2a,77,1,4,
,,,,,,,,,,,,,,,,,,,,,,,,,,images/exp1b_trial_67_colour2_distractors43_l.png,l,1,021,001,2021-04-22_17h53.14.222,searchDisc4,2020.2.10,Win32,60,,,space,0.44627,1,1,1.329265,,0,363,363,181,1,1b,67,2,43,
,,,,,,,,,,,,,,,,,,,,,,,,,,images/exp2c_trial_0_colour1_distractors1_r.png,r,2,021,001,2021-04-22_17h53.14.222,searchDisc4,2020.2.10,Win32,60,,,space,0.425215,2,1,0.50256,,0,364,364,456,1,2c,0,1,1,
,,,,,,,,,,,,,,,,,,,,,,,,,,images/exp1a_trial_6_colour2_distractors1_r.png,r,2,021,001,2021-04-22_17h53.14.222,searchDisc4,2020.2.10,Win32,60,,,space,0.58947,2,1,0.912845,,0,365,365,6,1,1a,6,2,1,
,,,,,,,,,,,,,,,,,,,,,,,,,,images/exp1b_trial_22_colour1_distractors31_l.png,l,1,021,001,2021-04-22_17h53.14.222,searchDisc4,2020.2.10,Win32,60,,,space,0.467095,1,1,1.055855,,0,366,366,136,1,1b,22,1,31,
,,,,,,,,,,,,,,,,,,,,,,,,,,images/exp2a_trial_81_colour1_distractors43_r.png,r,2,021,001,2021-04-22_17h53.14.222,searchDisc4,2020.2.10,Win32,60,,,space,0.386905,2,1,0.636895,,0,367,367,309,1,2a,81,1,43,
,,,,,,,,,,,,,,,,,,,,,,,,,,images/exp2c_trial_53_colour3_distractors19_r.png,r,2,021,001,2021-04-22_17h53.14.222,searchDisc4,2020.2.10,Win32,60,,,space,0.350235,2,1,0.583645,,0,368,368,509,1,2c,53,3,19,
,,,,,,,,,,,,,,,,,,,,,,,,,,images/exp2c_trial_102_colour2_distractors9_l.png,l,1,021,001,2021-04-22_17h53.14.222,searchDisc4,2020.2.10,Win32,60,,,space,0.366805,1,1,0.668525,,0,369,369,558,1,2c,102,2,9,
,,,,,,,,,,,,,,,,,,,,,,,,,,images/exp1a_trial_65_colour2_distractors19_l.png,l,1,021,001,2021-04-22_17h53.14.222,searchDisc4,2020.2.10,Win32,60,,,space,0.38459,2,0,0.57398,,0,370,370,65,1,1a,65,2,19,
,,,,,,,,,,,,,,,,,,,,,,,,,,images/exp2b_trial_2_colour1_distractors9_r.png,r,2,021,001,2021-04-22_17h53.14.222,searchDisc4,2020.2.10,Win32,60,,,space,0.565865,2,1,0.622105,,0,371,371,344,1,2b,2,1,9,
,,,,,,,,,,,,,,,,,,,,,,,,,,images/exp1a_trial_21_colour1_distractors19_l.png,l,1,021,001,2021-04-22_17h53.14.222,searchDisc4,2020.2.10,Win32,60,,,space,0.29264,1,1,0.521575,,0,372,372,21,1,1a,21,1,19,
,,,,,,,,,,,,,,,,,,,,,,,,,,images/exp1a_trial_57_colour1_distractors4_l.png,l,1,021,001,2021-04-22_17h53.14.222,searchDisc4,2020.2.10,Win32,60,,,space,0.29088,1,1,0.730875,,0,373,373,57,1,1a,57,1,4,
,,,,,,,,,,,,,,,,,,,,,,,,,,images/exp2c_trial_109_colour3_distractors19_l.png,l,1,021,001,2021-04-22_17h53.14.222,searchDisc4,2020.2.10,Win32,60,,,space,0.28332,1,1,0.79395,,0,374,374,565,1,2c,109,3,19,
,,,,,,,,,,,,,,,,,,,,,,,,,,images/exp1b_trial_53_colour3_distractors19_r.png,r,2,021,001,2021-04-22_17h53.14.222,searchDisc4,2020.2.10,Win32,60,,,space,0.36417,2,1,1.912295,,0,375,375,167,1,1b,53,3,19,
,,,,,,,,,,,,,,,,,,,,,,,,,,images/exp2a_trial_84_colour2_distractors9_r.png,r,2,021,001,2021-04-22_17h53.14.222,searchDisc4,2020.2.10,Win32,60,,,space,0.316355,2,1,0.717945,,0,376,376,312,1,2a,84,2,9,
,,,,,,,,,,,,,,,,,,,,,,,,,,images/exp1a_trial_61_colour1_distractors43_l.png,l,1,021,001,2021-04-22_17h53.14.222,searchDisc4,2020.2.10,Win32,60,,,space,0.33358,2,0,0.542715,,0,377,377,61,1,1a,61,1,43,
,,,,,,,,,,,,,,,,,,,,,,,,,,images/exp2c_trial_76_colour1_distractors1_r.png,r,2,021,001,2021-04-22_17h53.14.222,searchDisc4,2020.2.10,Win32,60,,,space,0.420075,2,1,0.50358,,0,378,378,532,1,2c,76,1,1,
,,,,,,,,,,,,,,,,,,,,,,,,,,images/exp1b_trial_3_colour1_distractors19_r.png,r,2,021,001,2021-04-22_17h53.14.222,searchDisc4,2020.2.10,Win32,60,,,space,0.33102,2,1,0.944865,,0,379,379,117,1,1b,3,1,19,
,,,,,,,,,,,,,,,,,,,,,,,,,,images/exp2a_trial_74_colour0_distractors0_r.png,r,2,021,001,2021-04-22_17h53.14.222,searchDisc4,2020.2.10,Win32,60,,,space,0.296585,2,1,0.526225,,0,380,380,302,1,2a,74,0,0,
,,,,,,,,,,,,,,,,,,,,,,,,,,images/exp1a_trial_94_colour1_distractors1_l.png,l,1,021,001,2021-04-22_17h53.14.222,searchDisc4,2020.2.10,Win32,60,,,space,0.28734,1,1,0.64454,,0,381,381,94,1,1a,94,1,1,
,,,,,,,,,,,,,,,,,,,,,,,,,,images/exp2b_trial_50_colour3_distractors1_r.png,r,2,021,001,2021-04-22_17h53.14.222,searchDisc4,2020.2.10,Win32,60,,,space,0.26669,2,1,0.80343,,0,382,382,392,1,2b,50,3,1,
,,,,,,,,,,,,,,,,,,,,,,,,,,images/exp1b_trial_2_colour1_distractors9_r.png,r,2,021,001,2021-04-22_17h53.14.222,searchDisc4,2020.2.10,Win32,60,,,space,0.26677,2,1,0.543365,,0,383,383,116,1,1b,2,1,9,
,,,,,,,,,,,,,,,,,,,,,,,,,,images/exp2b_trial_30_colour3_distractors1_l.png,l,1,021,001,2021-04-22_17h53.14.222,searchDisc4,2020.2.10,Win32,60,,,space,0.26268,1,1,0.691545,,0,384,384,372,1,2b,30,3,1,
,,,,,,,,,,,,,,,,,,,,,,,,,,images/exp2c_trial_63_colour2_distractors4_l.png,l,1,021,001,2021-04-22_17h53.14.222,searchDisc4,2020.2.10,Win32,60,,,space,0.269525,1,1,0.60402,,0,385,385,519,1,2c,63,2,4,
,,,,,,,,,,,,,,,,,,,,,,,,,,images/exp1b_trial_90_colour3_distractors9_r.png,r,2,021,001,2021-04-22_17h53.14.222,searchDisc4,2020.2.10,Win32,60,,,space,0.37415,2,1,0.98863,,0,386,386,204,1,1b,90,3,9,
,,,,,,,,,,,,,,,,,,,,,,,,,,images/exp2a_trial_32_colour3_distractors9_l.png,l,1,021,001,2021-04-22_17h53.14.222,searchDisc4,2020.2.10,Win32,60,,,space,0.38021,1,1,0.504935,,0,387,387,260,1,2a,32,3,9,
,,,,,,,,,,,,,,,,,,,,,,,,,,images/exp2b_trial_103_colour2_distractors19_l.png,l,1,021,001,2021-04-22_17h53.14.222,searchDisc4,2020.2.10,Win32,60,,,space,0.3307,1,1,0.733305,,0,388,388,445,1,2b,103,2,19,
,,,,,,,,,,,,,,,,,,,,,,,,,,images/exp2a_trial_72_colour3_distractors31_l.png,l,1,021,001,2021-04-22_17h53.14.222,searchDisc4,2020.2.10,Win32,60,,,space,0.385755,1,1,0.63592,,0,389,389,300,1,2a,72,3,31,
,,,,,,,,,,,,,,,,,,,,,,,,,,images/exp1a_trial_98_colour1_distractors31_l.png,l,1,021,001,2021-04-22_17h53.14.222,searchDisc4,2020.2.10,Win32,60,,,space,0.35639,1,1,0.761235,,0,390,390,98,1,1a,98,1,31,
,,,,,,,,,,,,,,,,,,,,,,,,,,images/exp2a_trial_99_colour1_distractors43_l.png,l,1,021,001,2021-04-22_17h53.14.222,searchDisc4,2020.2.10,Win32,60,,,space,0.36848,1,1,0.531005,,0,391,391,327,1,2a,99,1,43,
,,,,,,,,,,,,,,,,,,,,,,,,,,images/exp1b_trial_20_colour1_distractors9_l.png,l,1,021,001,2021-04-22_17h53.14.222,searchDisc4,2020.2.10,Win32,60,,,space,0.396905,1,1,0.56925,,0,392,392,134,1,1b,20,1,9,
,,,,,,,,,,,,,,,,,,,,,,,,,,images/exp2b_trial_68_colour3_distractors1_l.png,l,1,021,001,2021-04-22_17h53.14.222,searchDisc4,2020.2.10,Win32,60,,,space,0.35043,1,1,0.87003,,0,393,393,410,1,2b,68,3,1,
,,,,,,,,,,,,,,,,,,,,,,,,,,images/exp1a_trial_56_colour1_distractors1_l.png,l,1,021,001,2021-04-22_17h53.14.222,searchDisc4,2020.2.10,Win32,60,,,space,0.55501,1,1,1.058925,,0,394,394,56,1,1a,56,1,1,
,,,,,,,,,,,,,,,,,,,,,,,,,,images/exp2b_trial_43_colour1_distractors43_r.png,r,2,021,001,2021-04-22_17h53.14.222,searchDisc4,2020.2.10,Win32,60,,,space,0.419375,2,1,0.803315,,0,395,395,385,1,2b,43,1,43,
,,,,,,,,,,,,,,,,,,,,,,,,,,images/exp1a_trial_80_colour1_distractors31_r.png,r,2,021,001,2021-04-22_17h53.14.222,searchDisc4,2020.2.10,Win32,60,,,space,0.58147,2,1,0.698905,,0,396,396,80,1,1a,80,1,31,
,,,,,,,,,,,,,,,,,,,,,,,,,,images/exp2c_trial_89_colour3_distractors4_r.png,r,2,021,001,2021-04-22_17h53.14.222,searchDisc4,2020.2.10,Win32,60,,,space,0.42134,2,1,0.485485,,0,397,397,545,1,2c,89,3,4,
,,,,,,,,,,,,,,,,,,,,,,,,,,images/exp2c_trial_2_colour1_distractors9_r.png,r,2,021,001,2021-04-22_17h53.14.222,searchDisc4,2020.2.10,Win32,60,,,space,0.5125,2,1,0.477095,,0,398,398,458,1,2c,2,1,9,
,,,,,,,,,,,,,,,,,,,,,,,,,,images/exp2a_trial_68_colour3_distractors1_l.png,l,1,021,001,2021-04-22_17h53.14.222,searchDisc4,2020.2.10,Win32,60,,,space,0.45261,1,1,0.47617,,0,399,399,296,1,2a,68,3,1,
,,,,,,,,,,,,,,,,,,,,,,,,,,images/exp2a_trial_4_colour1_distractors31_r.png,r,2,021,001,2021-04-22_17h53.14.222,searchDisc4,2020.2.10,Win32,60,,,space,0.432715,2,1,0.73342,,0,400,400,232,1,2a,4,1,31,
,,,,,,,,,,,,,,,,,,,,,,,,,,images/exp1b_trial_85_colour2_distractors19_r.png,r,2,021,001,2021-04-22_17h53.14.222,searchDisc4,2020.2.10,Win32,60,,,space,0.357025,2,1,0.78397,,0,401,401,199,1,1b,85,2,19,
,,,,,,,,,,,,,,,,,,,,,,,,,,images/exp2b_trial_100_colour2_distractors1_l.png,l,1,021,001,2021-04-22_17h53.14.222,searchDisc4,2020.2.10,Win32,60,,,space,0.312235,1,1,0.51959,,0,402,402,442,1,2b,100,2,1,
,,,,,,,,,,,,,,,,,,,,,,,,,,images/exp2b_trial_48_colour2_distractors31_r.png,r,2,021,001,2021-04-22_17h53.14.222,searchDisc4,2020.2.10,Win32,60,,,space,0.35254,2,1,0.544005,,0,403,403,390,1,2b,48,2,31,
,,,,,,,,,,,,,,,,,,,,,,,,,,images/exp1b_trial_83_colour2_distractors4_r.png,r,2,021,001,2021-04-22_17h53.14.222,searchDisc4,2020.2.10,Win32,60,,,space,0.455105,2,1,0.82171,,0,404,404,197,1,1b,83,2,4,
,,,,,,,,,,,,,,,,,,,,,,,,,,images/exp2b_trial_36_colour0_distractors0_r.png,r,2,021,001,2021-04-22_17h53.14.222,searchDisc4,2020.2.10,Win32,60,,,space,0.30049,2,1,0.53522,,0,405,405,378,1,2b,36,0,0,
,,,,,,,,,,,,,,,,,,,,,,,,,,images/exp2b_trial_15_colour3_distractors19_r.png,r,2,021,001,2021-04-22_17h53.14.222,searchDisc4,2020.2.10,Win32,60,,,space,0.338935,2,1,0.702735,,0,406,406,357,1,2b,15,3,19,
,,,,,,,,,,,,,,,,,,,,,,,,,,images/exp1b_trial_77_colour1_distractors4_r.png,r,2,021,001,2021-04-22_17h53.14.222,searchDisc4,2020.2.10,Win32,60,,,space,0.31811,2,1,0.713825,,0,407,407,191,1,1b,77,1,4,
,,,,,,,,,,,,,,,,,,,,,,,,,,images/exp2a_trial_50_colour3_distractors1_r.png,r,2,021,001,2021-04-22_17h53.14.222,searchDisc4,2020.2.10,Win32,60,,,space,0.43934,2,1,1.06365,,0,408,408,278,1,2a,50,3,1,
,,,,,,,,,,,,,,,,,,,,,,,,,,images/exp2a_trial_90_colour3_distractors9_r.png,r,2,021,001,2021-04-22_17h53.14.222,searchDisc4,2020.2.10,Win32,60,,,space,0.398665,2,1,0.508295,,0,409,409,318,1,2a,90,3,9,
,,,,,,,,,,,,,,,,,,,,,,,,,,images/exp2c_trial_97_colour1_distractors19_l.png,l,1,021,001,2021-04-22_17h53.14.222,searchDisc4,2020.2.10,Win32,60,,,space,0.434275,1,1,0.488975,,0,410,410,553,1,2c,97,1,19,
,,,,,,,,,,,,,,,,,,,,,,,,,,images/exp2a_trial_73_colour3_distractors43_l.png,l,1,021,001,2021-04-22_17h53.14.222,searchDisc4,2020.2.10,Win32,60,,,space,0.430215,2,0,0.5681,,0,411,411,301,1,2a,73,3,43,
,,,,,,,,,,,,,,,,,,,,,,,,,,images/exp1a_trial_103_colour2_distractors19_l.png,l,1,021,001,2021-04-22_17h53.14.222,searchDisc4,2020.2.10,Win32,60,,,space,0.563995,1,1,0.73866,,0,412,412,103,1,1a,103,2,19,
,,,,,,,,,,,,,,,,,,,,,,,,,,images/exp1a_trial_26_colour2_distractors9_l.png,l,1,021,001,2021-04-22_17h53.14.222,searchDisc4,2020.2.10,Win32,60,,,space,0.317125,1,1,0.62288,,0,413,413,26,1,1a,26,2,9,
,,,,,,,,,,,,,,,,,,,,,,,,,,images/exp2b_trial_6_colour2_distractors1_r.png,r,2,021,001,2021-04-22_17h53.14.222,searchDisc4,2020.2.10,Win32,60,,,space,0.300015,2,1,0.550685,,0,414,414,348,1,2b,6,2,1,
,,,,,,,,,,,,,,,,,,,,,,,,,,images/exp2b_trial_29_colour2_distractors43_l.png,l,1,021,001,2021-04-22_17h53.14.222,searchDisc4,2020.2.10,Win32,60,,,space,0.264355,1,1,0.53584,,0,415,415,371,1,2b,29,2,43,
,,,,,,,,,,,,,,,,,,,,,,,,,,images/exp2a_trial_96_colour1_distractors9_l.png,l,1,021,001,2021-04-22_17h53.14.222,searchDisc4,2020.2.10,Win32,60,,,space,0.370945,1,1,0.613175,,0,416,416,324,1,2a,96,1,9,
,,,,,,,,,,,,,,,,,,,,,,,,,,images/exp2b_trial_87_colour2_distractors43_r.png,r,2,021,001,2021-04-22_17h53.14.222,searchDisc4,2020.2.10,Win32,60,,,space,0.36267,2,1,0.69332,,0,417,417,429,1,2b,87,2,43,
,,,,,,,,,,,,,,,,,,,,,,,,,,images/exp2a_trial_86_colour2_distractors31_r.png,r,2,021,001,2021-04-22_17h53.14.222,searchDisc4,2020.2.10,Win32,60,,,space,0.568425,2,1,0.627415,,0,418,418,314,1,2a,86,2,31,
,,,,,,,,,,,,,,,,,,,,,,,,,,images/exp2c_trial_55_colour3_distractors43_r.png,r,2,021,001,2021-04-22_17h53.14.222,searchDisc4,2020.2.10,Win32,60,,,space,0.389465,2,1,1.028475,space,0,419,419,511,1,2c,55,3,43,6.617095
,,,,,,,,,,,,,,,,,,,,,,,,,,images/exp2b_trial_111_colour3_distractors43_l.png,l,1,021,001,2021-04-22_17h53.14.222,searchDisc4,2020.2.10,Win32,60,,,space,1.000325,1,1,0.624465,,0,420,420,453,1,2b,111,3,43,
,,,,,,,,,,,,,,,,,,,,,,,,,,images/exp2a_trial_16_colour3_distractors31_r.png,r,2,021,001,2021-04-22_17h53.14.222,searchDisc4,2020.2.10,Win32,60,,,space,0.667035,1,0,0.520205,,0,421,421,244,1,2a,16,3,31,
,,,,,,,,,,,,,,,,,,,,,,,,,,images/exp1b_trial_66_colour2_distractors31_l.png,l,1,021,001,2021-04-22_17h53.14.222,searchDisc4,2020.2.10,Win32,60,,,space,0.49991,1,1,1.76415,,0,422,422,180,1,1b,66,2,31,
,,,,,,,,,,,,,,,,,,,,,,,,,,images/exp1b_trial_28_colour2_distractors31_l.png,l,1,021,001,2021-04-22_17h53.14.222,searchDisc4,2020.2.10,Win32,60,,,space,0.753545,1,1,0.84877,,0,423,423,142,1,1b,28,2,31,
,,,,,,,,,,,,,,,,,,,,,,,,,,images/exp1a_trial_68_colour3_distractors1_l.png,l,1,021,001,2021-04-22_17h53.14.222,searchDisc4,2020.2.10,Win32,60,,,space,0.278195,1,1,1.035975,,0,424,424,68,1,1a,68,3,1,
,,,,,,,,,,,,,,,,,,,,,,,,,,images/exp2b_trial_98_colour1_distractors31_l.png,l,1,021,001,2021-04-22_17h53.14.222,searchDisc4,2020.2.10,Win32,60,,,space,0.23879,1,1,0.556585,,0,425,425,440,1,2b,98,1,31,
,,,,,,,,,,,,,,,,,,,,,,,,,,images/exp1b_trial_107_colour3_distractors4_l.png,l,1,021,001,2021-04-22_17h53.14.222,searchDisc4,2020.2.10,Win32,60,,,space,0.30646,1,1,1.00427,,0,426,426,221,1,1b,107,3,4,
,,,,,,,,,,,,,,,,,,,,,,,,,,images/exp2a_trial_49_colour2_distractors43_r.png,r,2,021,001,2021-04-22_17h53.14.222,searchDisc4,2020.2.10,Win32,60,,,space,0.39862,2,1,0.555745,,0,427,427,277,1,2a,49,2,43,
,,,,,,,,,,,,,,,,,,,,,,,,,,images/exp2b_trial_94_colour1_distractors1_l.png,l,1,021,001,2021-04-22_17h53.14.222,searchDisc4,2020.2.10,Win32,60,,,space,0.35785,1,1,0.58636,,0,428,428,436,1,2b,94,1,1,
,,,,,,,,,,,,,,,,,,,,,,,,,,images/exp1b_trial_63_colour2_distractors4_l.png,l,1,021,001,2021-04-22_17h53.14.222,searchDisc4,2020.2.10,Win32,60,,,space,0.36684,1,1,0.702435,,0,429,429,177,1,1b,63,2,4,
,,,,,,,,,,,,,,,,,,,,,,,,,,images/exp1b_trial_98_colour1_distractors31_l.png,l,1,021,001,2021-04-22_17h53.14.222,searchDisc4,2020.2.10,Win32,60,,,space,0.39415,1,1,1.00066,,0,430,430,212,1,1b,98,1,31,
,,,,,,,,,,,,,,,,,,,,,,,,,,images/exp2a_trial_22_colour1_distractors31_l.png,l,1,021,001,2021-04-22_17h53.14.222,searchDisc4,2020.2.10,Win32,60,,,space,0.36613,1,1,0.556315,,0,431,431,250,1,2a,22,1,31,
,,,,,,,,,,,,,,,,,,,,,,,,,,images/exp2a_trial_58_colour1_distractors9_l.png,l,1,021,001,2021-04-22_17h53.14.222,searchDisc4,2020.2.10,Win32,60,,,space,0.50014,1,1,0.543465,,0,432,432,286,1,2a,58,1,9,
,,,,,,,,,,,,,,,,,,,,,,,,,,images/exp2c_trial_104_colour2_distractors31_l.png,l,1,021,001,2021-04-22_17h53.14.222,searchDisc4,2020.2.10,Win32,60,,,space,0.423645,1,1,0.50864,,0,433,433,560,1,2c,104,2,31,
,,,,,,,,,,,,,,,,,,,,,,,,,,images/exp2a_trial_110_colour3_distractors31_l.png,l,1,021,001,2021-04-22_17h53.14.222,searchDisc4,2020.2.10,Win32,60,,,space,0.4308,1,1,0.506365,,0,434,434,338,1,2a,110,3,31,
,,,,,,,,,,,,,,,,,,,,,,,,,,images/exp1a_trial_71_colour3_distractors19_l.png,l,1,021,001,2021-04-22_17h53.14.222,searchDisc4,2020.2.10,Win32,60,,,space,0.433435,1,1,0.561175,,0,435,435,71,1,1a,71,3,19,
,,,,,,,,,,,,,,,,,,,,,,,,,,images/exp2a_trial_103_colour2_distractors19_l.png,l,1,021,001,2021-04-22_17h53.14.222,searchDisc4,2020.2.10,Win32,60,,,space,0.483485,1,1,0.617455,,0,436,436,331,1,2a,103,2,19,
,,,,,,,,,,,,,,,,,,,,,,,,,,images/exp2a_trial_3_colour1_distractors19_r.png,r,2,021,001,2021-04-22_17h53.14.222,searchDisc4,2020.2.10,Win32,60,,,space,0.583415,1,0,0.614995,,0,437,437,231,1,2a,3,1,19,
,,,,,,,,,,,,,,,,,,,,,,,,,,images/exp2a_trial_75_colour0_distractors0_l.png,l,1,021,001,2021-04-22_17h53.14.222,searchDisc4,2020.2.10,Win32,60,,,space,0.64541,1,1,0.54323,,0,438,438,303,1,2a,75,0,0,
,,,,,,,,,,,,,,,,,,,,,,,,,,images/exp2c_trial_100_colour2_distractors1_l.png,l,1,021,001,2021-04-22_17h53.14.222,searchDisc4,2020.2.10,Win32,60,,,space,0.4835,1,1,0.64586,,0,439,439,556,1,2c,100,2,1,
,,,,,,,,,,,,,,,,,,,,,,,,,,images/exp1a_trial_44_colour2_distractors1_r.png,r,2,021,001,2021-04-22_17h53.14.222,searchDisc4,2020.2.10,Win32,60,,,space,0.489615,2,1,0.52103,,0,440,440,44,1,1a,44,2,1,
,,,,,,,,,,,,,,,,,,,,,,,,,,images/exp1b_trial_17_colour3_distractors43_r.png,r,2,021,001,2021-04-22_17h53.14.222,searchDisc4,2020.2.10,Win32,60,,,space,0.47091,2,1,2.738645,,0,441,441,131,1,1b,17,3,43,
,,,,,,,,,,,,,,,,,,,,,,,,,,images/exp2a_trial_40_colour1_distractors9_r.png,r,2,021,001,2021-04-22_17h53.14.222,searchDisc4,2020.2.10,Win32,60,,,space,0.36877,2,1,2.043215,,0,442,442,268,1,2a,40,1,9,
,,,,,,,,,,,,,,,,,,,,,,,,,,images/exp1b_trial_29_colour2_distractors43_l.png,l,1,021,001,2021-04-22_17h53.14.222,searchDisc4,2020.2.10,Win32,60,,,space,0.362335,1,1,1.598665,,0,443,443,143,1,1b,29,2,43,
,,,,,,,,,,,,,,,,,,,,,,,,,,images/exp2b_trial_9_colour2_distractors19_r.png,r,2,021,001,2021-04-22_17h53.14.222,searchDisc4,2020.2.10,Win32,60,,,space,0.414625,2,1,0.48162,,0,444,444,351,1,2b,9,2,19,
,,,,,,,,,,,,,,,,,,,,,,,,,,images/exp2a_trial_82_colour2_distractors1_r.png,r,2,021,001,2021-04-22_17h53.14.222,searchDisc4,2020.2.10,Win32,60,,,space,0.474095,2,1,0.77674,,0,445,445,310,1,2a,82,2,1,
,,,,,,,,,,,,,,,,,,,,,,,,,,images/exp2b_trial_102_colour2_distractors9_l.png,l,1,021,001,2021-04-22_17h53.14.222,searchDisc4,2020.2.10,Win32,60,,,space,0.43248,1,1,0.761355,,0,446,446,444,1,2b,102,2,9,
,,,,,,,,,,,,,,,,,,,,,,,,,,images/exp1a_trial_51_colour3_distractors4_r.png,r,2,021,001,2021-04-22_17h53.14.222,searchDisc4,2020.2.10,Win32,60,,,space,0.334565,2,1,0.82663,,0,447,447,51,1,1a,51,3,4,
,,,,,,,,,,,,,,,,,,,,,,,,,,images/exp2b_trial_108_colour3_distractors9_l.png,l,1,021,001,2021-04-22_17h53.14.222,searchDisc4,2020.2.10,Win32,60,,,space,0.366405,1,1,0.67099,,0,448,448,450,1,2b,108,3,9,
,,,,,,,,,,,,,,,,,,,,,,,,,,images/exp2a_trial_85_colour2_distractors19_r.png,r,2,021,001,2021-04-22_17h53.14.222,searchDisc4,2020.2.10,Win32,60,,,space,0.399645,2,1,0.52094,,0,449,449,313,1,2a,85,2,19,
,,,,,,,,,,,,,,,,,,,,,,,,,,images/exp2b_trial_63_colour2_distractors4_l.png,l,1,021,001,2021-04-22_17h53.14.222,searchDisc4,2020.2.10,Win32,60,,,space,0.34131,1,1,0.566695,,0,450,450,405,1,2b,63,2,4,
,,,,,,,,,,,,,,,,,,,,,,,,,,images/exp1b_trial_39_colour1_distractors4_r.png,r,2,021,001,2021-04-22_17h53.14.222,searchDisc4,2020.2.10,Win32,60,,,space,0.383125,2,1,0.510585,,0,451,451,153,1,1b,39,1,4,
,,,,,,,,,,,,,,,,,,,,,,,,,,images/exp2b_trial_39_colour1_distractors4_r.png,r,2,021,001,2021-04-22_17h53.14.222,searchDisc4,2020.2.10,Win32,60,,,space,0.355965,2,1,0.501735,,0,452,452,381,1,2b,39,1,4,
,,,,,,,,,,,,,,,,,,,,,,,,,,images/exp1b_trial_15_colour3_distractors19_r.png,r,2,021,001,2021-04-22_17h53.14.222,searchDisc4,2020.2.10,Win32,60,,,space,0.381495,2,1,2.13213,,0,453,453,129,1,1b,15,3,19,
,,,,,,,,,,,,,,,,,,,,,,,,,,images/exp2c_trial_22_colour1_distractors31_l.png,l,1,021,001,2021-04-22_17h53.14.222,searchDisc4,2020.2.10,Win32,60,,,space,0.39582,1,1,0.80547,,0,454,454,478,1,2c,22,1,31,
,,,,,,,,,,,,,,,,,,,,,,,,,,images/exp2b_trial_28_colour2_distractors31_l.png,l,1,021,001,2021-04-22_17h53.14.222,searchDisc4,2020.2.10,Win32,60,,,space,0.374085,1,1,0.49649,,0,455,455,370,1,2b,28,2,31,
,,,,,,,,,,,,,,,,,,,,,,,,,,images/exp1b_trial_93_colour3_distractors43_r.png,r,2,021,001,2021-04-22_17h53.14.222,searchDisc4,2020.2.10,Win32,60,,,space,0.39996,,0,,,0,456,456,207,1,1b,93,3,43,
,,,,,,,,,,,,,,,,,,,,,,,,,,images/exp1a_trial_88_colour3_distractors1_r.png,r,2,021,001,2021-04-22_17h53.14.222,searchDisc4,2020.2.10,Win32,60,,,space,0.750025,2,1,0.546185,,0,457,457,88,1,1a,88,3,1,
,,,,,,,,,,,,,,,,,,,,,,,,,,images/exp2c_trial_24_colour2_distractors1_l.png,l,1,021,001,2021-04-22_17h53.14.222,searchDisc4,2020.2.10,Win32,60,,,space,0.48471,1,1,0.746615,,0,458,458,480,1,2c,24,2,1,
,,,,,,,,,,,,,,,,,,,,,,,,,,images/exp1a_trial_23_colour1_distractors43_l.png,l,1,021,001,2021-04-22_17h53.14.222,searchDisc4,2020.2.10,Win32,60,,,space,0.38383,1,1,0.60251,,0,459,459,23,1,1a,23,1,43,
,,,,,,,,,,,,,,,,,,,,,,,,,,images/exp2c_trial_19_colour1_distractors4_l.png,l,1,021,001,2021-04-22_17h53.14.222,searchDisc4,2020.2.10,Win32,60,,,space,0.52847,1,1,0.50138,,0,460,460,475,1,2c,19,1,4,
,,,,,,,,,,,,,,,,,,,,,,,,,,images/exp2c_trial_16_colour3_distractors31_r.png,r,2,021,001,2021-04-22_17h53.14.222,searchDisc4,2020.2.10,Win32,60,,,space,0.48101,2,1,0.596275,,0,461,461,472,1,2c,16,3,31,
,,,,,,,,,,,,,,,,,,,,,,,,,,images/exp1a_trial_85_colour2_distractors19_r.png,r,2,021,001,2021-04-22_17h53.14.222,searchDisc4,2020.2.10,Win32,60,,,space,0.41908,2,1,0.687045,,0,462,462,85,1,1a,85,2,19,
,,,,,,,,,,,,,,,,,,,,,,,,,,images/exp1a_trial_1_colour1_distractors4_r.png,r,2,021,001,2021-04-22_17h53.14.222,searchDisc4,2020.2.10,Win32,60,,,space,0.400265,2,1,0.54962,,0,463,463,1,1,1a,1,1,4,
,,,,,,,,,,,,,,,,,,,,,,,,,,images/exp2a_trial_12_colour3_distractors1_r.png,r,2,021,001,2021-04-22_17h53.14.222,searchDisc4,2020.2.10,Win32,60,,,space,0.374985,2,1,0.43244,,0,464,464,240,1,2a,12,3,1,
,,,,,,,,,,,,,,,,,,,,,,,,,,images/exp2a_trial_101_colour2_distractors4_l.png,l,1,021,001,2021-04-22_17h53.14.222,searchDisc4,2020.2.10,Win32,60,,,space,0.40492,1,1,0.641595,,0,465,465,329,1,2a,101,2,4,
,,,,,,,,,,,,,,,,,,,,,,,,,,images/exp2a_trial_107_colour3_distractors4_l.png,l,1,021,001,2021-04-22_17h53.14.222,searchDisc4,2020.2.10,Win32,60,,,space,0.35735,1,1,0.49361,,0,466,466,335,1,2a,107,3,4,
,,,,,,,,,,,,,,,,,,,,,,,,,,images/exp2c_trial_28_colour2_distractors31_l.png,l,1,021,001,2021-04-22_17h53.14.222,searchDisc4,2020.2.10,Win32,60,,,space,0.419455,1,1,0.72491,,0,467,467,484,1,2c,28,2,31,
,,,,,,,,,,,,,,,,,,,,,,,,,,images/exp1a_trial_27_colour2_distractors19_l.png,l,1,021,001,2021-04-22_17h53.14.222,searchDisc4,2020.2.10,Win32,60,,,space,0.310465,1,1,0.767615,,0,468,468,27,1,1a,27,2,19,
,,,,,,,,,,,,,,,,,,,,,,,,,,images/exp1a_trial_19_colour1_distractors4_l.png,l,1,021,001,2021-04-22_17h53.14.222,searchDisc4,2020.2.10,Win32,60,,,space,0.471005,1,1,0.726495,,0,469,469,19,1,1a,19,1,4,
,,,,,,,,,,,,,,,,,,,,,,,,,,images/exp2c_trial_106_colour3_distractors1_l.png,l,1,021,001,2021-04-22_17h53.14.222,searchDisc4,2020.2.10,Win32,60,,,space,0.437935,1,1,0.50168,,0,470,470,562,1,2c,106,3,1,
,,,,,,,,,,,,,,,,,,,,,,,,,,images/exp2c_trial_71_colour3_distractors19_l.png,l,1,021,001,2021-04-22_17h53.14.222,searchDisc4,2020.2.10,Win32,60,,,space,0.392185,1,1,0.64992,,0,471,471,527,1,2c,71,3,19,
,,,,,,,,,,,,,,,,,,,,,,,,,,images/exp2c_trial_27_colour2_distractors19_l.png,l,1,021,001,2021-04-22_17h53.14.222,searchDisc4,2020.2.10,Win32,60,,,space,0.385325,1,1,0.73835,,0,472,472,483,1,2c,27,2,19,
,,,,,,,,,,,,,,,,,,,,,,,,,,images/exp2c_trial_40_colour1_distractors9_r.png,r,2,021,001,2021-04-22_17h53.14.222,searchDisc4,2020.2.10,Win32,60,,,space,0.28366,1,0,0.39724,,0,473,473,496,1,2c,40,1,9,
,,,,,,,,,,,,,,,,,,,,,,,,,,images/exp1b_trial_27_colour2_distractors19_l.png,l,1,021,001,2021-04-22_17h53.14.222,searchDisc4,2020.2.10,Win32,60,,,space,0.594185,1,1,0.71214,,0,474,474,141,1,1b,27,2,19,
,,,,,,,,,,,,,,,,,,,,,,,,,,images/exp1b_trial_72_colour3_distractors31_l.png,l,1,021,001,2021-04-22_17h53.14.222,searchDisc4,2020.2.10,Win32,60,,,space,0.31746,1,1,1.288765,,0,475,475,186,1,1b,72,3,31,
,,,,,,,,,,,,,,,,,,,,,,,,,,images/exp1b_trial_36_colour0_distractors0_r.png,r,2,021,001,2021-04-22_17h53.14.222,searchDisc4,2020.2.10,Win32,60,,,space,0.330705,2,1,0.455585,,0,476,476,150,1,1b,36,0,0,
