X Scale,Y Scale,key_resp_10.keys,key_resp_10.rt,key_resp_11.keys,key_resp_11.rt,key_resp_12.keys,key_resp_12.rt,key_resp_13.keys,key_resp_13.rt,key_resp_5.keys,key_resp_5.rt,key_resp_8.keys,key_resp_8.rt,key_resp_6.keys,key_resp_6.rt,key_resp_7.keys,key_resp_7.rt,key_resp_4.keys,key_resp_4.corr,key_resp_4.rt,trials_2.thisRepN,trials_2.thisTrialN,trials_2.thisN,trials_2.thisIndex,trials_2.ran,ImageFile,targ_side,correctAnswer,participant,session,date,expName,psychopyVersion,OS,frameRate,key_resp_3.keys,key_resp_3.rt,key_resp_9.keys,key_resp_9.rt,key_resp_2.keys,key_resp_2.corr,key_resp_2.rt,key_resp.keys,trials.thisRepN,trials.thisTrialN,trials.thisN,trials.thisIndex,trials.ran,exp,trial,colour,distNo,key_resp.rt
19.7,19.8,space,5.887315,space,0.627285,space,2.087645,space,0.73656,space,3.15271,space,6.96027,space,2.145095,space,2.100825,2,1,0.814865,0,0,0,4,1,Practice arrays/exp1a_trial_8_colour2_distractors9_r.png,r,2,022,001,2021-04-22_19h14.55.646,searchDisc4,2020.2.10,Win32,60,,,,,,,,,,,,,,,,,,
,,,,,,,,,,,,,,,,space,0.64104,2,1,0.446185,0,1,1,1,1,Practice arrays/exp1a_trial_3_colour1_distractors19_r.png,r,2,022,001,2021-04-22_19h14.55.646,searchDisc4,2020.2.10,Win32,60,,,,,,,,,,,,,,,,,,
,,,,,,,,,,,,,,,,space,0.3029,2,1,0.81512,0,2,2,3,1,Practice arrays/exp1a_trial_7_colour2_distractors4_r.png,r,2,022,001,2021-04-22_19h14.55.646,searchDisc4,2020.2.10,Win32,60,,,,,,,,,,,,,,,,,,
,,,,,,,,,,,,,,,,space,0.43409,1,1,0.659755,0,3,3,19,1,Practice arrays/exp1a_trial_37_colour0_distractors0_l.png,l,1,022,001,2021-04-22_19h14.55.646,searchDisc4,2020.2.10,Win32,60,,,,,,,,,,,,,,,,,,
,,,,,,,,,,,,,,,,space,0.33313,1,1,0.639945,0,4,4,14,1,Practice arrays/exp1a_trial_29_colour2_distractors43_l.png,l,1,022,001,2021-04-22_19h14.55.646,searchDisc4,2020.2.10,Win32,60,,,,,,,,,,,,,,,,,,
,,,,,,,,,,,,,,,,space,0.38982,1,1,0.87316,0,5,5,10,1,Practice arrays/exp1a_trial_20_colour1_distractors9_l.png,l,1,022,001,2021-04-22_19h14.55.646,searchDisc4,2020.2.10,Win32,60,,,,,,,,,,,,,,,,,,
,,,,,,,,,,,,,,,,space,0.362265,1,1,0.566635,0,6,6,16,1,Practice arrays/exp1a_trial_33_colour3_distractors19_l.png,l,1,022,001,2021-04-22_19h14.55.646,searchDisc4,2020.2.10,Win32,60,,,,,,,,,,,,,,,,,,
,,,,,,,,,,,,,,,,space,0.381055,2,1,0.58022,0,7,7,8,1,Practice arrays/exp1a_trial_16_colour3_distractors31_r.png,r,2,022,001,2021-04-22_19h14.55.646,searchDisc4,2020.2.10,Win32,60,,,,,,,,,,,,,,,,,,
,,,,,,,,,,,,,,,,space,0.35859,1,0,1.050025,0,8,8,5,1,Practice arrays/exp1a_trial_10_colour2_distractors31_r.png,r,2,022,001,2021-04-22_19h14.55.646,searchDisc4,2020.2.10,Win32,60,,,,,,,,,,,,,,,,,,
,,,,,,,,,,,,,,,,space,0.37191,2,1,0.667885,0,9,9,0,1,Practice arrays/exp1a_trial_0_colour1_distractors1_r.png,r,2,022,001,2021-04-22_19h14.55.646,searchDisc4,2020.2.10,Win32,60,,,,,,,,,,,,,,,,,,
,,,,,,,,,,,,,,,,space,0.31242,1,1,0.507105,0,10,10,11,1,Practice arrays/exp1a_trial_21_colour1_distractors19_l.png,l,1,022,001,2021-04-22_19h14.55.646,searchDisc4,2020.2.10,Win32,60,,,,,,,,,,,,,,,,,,
,,,,,,,,,,,,,,,,space,0.237535,2,1,0.494555,0,11,11,6,1,Practice arrays/exp1a_trial_12_colour3_distractors1_r.png,r,2,022,001,2021-04-22_19h14.55.646,searchDisc4,2020.2.10,Win32,60,,,,,,,,,,,,,,,,,,
,,,,,,,,,,,,,,,,space,0.20993,2,1,0.591925,0,12,12,7,1,Practice arrays/exp1a_trial_13_colour3_distractors4_r.png,r,2,022,001,2021-04-22_19h14.55.646,searchDisc4,2020.2.10,Win32,60,,,,,,,,,,,,,,,,,,
,,,,,,,,,,,,,,,,space,0.417855,2,1,0.84222,0,13,13,2,1,Practice arrays/exp1a_trial_5_colour1_distractors43_r.png,r,2,022,001,2021-04-22_19h14.55.646,searchDisc4,2020.2.10,Win32,60,,,,,,,,,,,,,,,,,,
,,,,,,,,,,,,,,,,space,0.235275,1,1,0.73264,0,14,14,17,1,Practice arrays/exp1a_trial_35_colour3_distractors43_l.png,l,1,022,001,2021-04-22_19h14.55.646,searchDisc4,2020.2.10,Win32,60,,,,,,,,,,,,,,,,,,
,,,,,,,,,,,,,,,,space,0.346005,2,1,0.398945,0,15,15,18,1,Practice arrays/exp1a_trial_36_colour0_distractors0_r.png,r,2,022,001,2021-04-22_19h14.55.646,searchDisc4,2020.2.10,Win32,60,,,,,,,,,,,,,,,,,,
,,,,,,,,,,,,,,,,space,0.31908,1,1,0.41235,0,16,16,9,1,Practice arrays/exp1a_trial_19_colour1_distractors4_l.png,l,1,022,001,2021-04-22_19h14.55.646,searchDisc4,2020.2.10,Win32,60,,,,,,,,,,,,,,,,,,
,,,,,,,,,,,,,,,,space,0.35936,1,1,0.491635,0,17,17,12,1,Practice arrays/exp1a_trial_25_colour2_distractors4_l.png,l,1,022,001,2021-04-22_19h14.55.646,searchDisc4,2020.2.10,Win32,60,,,,,,,,,,,,,,,,,,
,,,,,,,,,,,,,,,,space,0.22907,1,1,0.680815,0,18,18,13,1,Practice arrays/exp1a_trial_28_colour2_distractors31_l.png,l,1,022,001,2021-04-22_19h14.55.646,searchDisc4,2020.2.10,Win32,60,,,,,,,,,,,,,,,,,,
,,,,,,,,,,,,,,,,space,0.236885,1,1,0.53656,0,19,19,15,1,Practice arrays/exp1a_trial_32_colour3_distractors9_l.png,l,1,022,001,2021-04-22_19h14.55.646,searchDisc4,2020.2.10,Win32,60,,,,,,,,,,,,,,,,,,
,,,,,,,,,,,,,,,,,,,,,,,,,,images/exp1b_trial_107_colour3_distractors4_l.png,l,1,022,001,2021-04-22_19h14.55.646,searchDisc4,2020.2.10,Win32,60,space,1.57816,space,1.510935,1,1,1.223335,,0,0,0,221,1,1b,107,3,4,
,,,,,,,,,,,,,,,,,,,,,,,,,,images/exp2b_trial_14_colour3_distractors9_r.png,r,2,022,001,2021-04-22_19h14.55.646,searchDisc4,2020.2.10,Win32,60,,,space,0.520335,2,1,0.54213,,0,1,1,356,1,2b,14,3,9,
,,,,,,,,,,,,,,,,,,,,,,,,,,images/exp2c_trial_97_colour1_distractors19_l.png,l,1,022,001,2021-04-22_19h14.55.646,searchDisc4,2020.2.10,Win32,60,,,space,0.386105,1,1,0.598035,,0,2,2,553,1,2c,97,1,19,
,,,,,,,,,,,,,,,,,,,,,,,,,,images/exp1a_trial_80_colour1_distractors31_r.png,r,2,022,001,2021-04-22_19h14.55.646,searchDisc4,2020.2.10,Win32,60,,,space,0.40061,2,1,0.52655,,0,3,3,80,1,1a,80,1,31,
,,,,,,,,,,,,,,,,,,,,,,,,,,images/exp2a_trial_93_colour3_distractors43_r.png,r,2,022,001,2021-04-22_19h14.55.646,searchDisc4,2020.2.10,Win32,60,,,space,0.300285,2,1,0.508555,,0,4,4,321,1,2a,93,3,43,
,,,,,,,,,,,,,,,,,,,,,,,,,,images/exp2a_trial_44_colour2_distractors1_r.png,r,2,022,001,2021-04-22_19h14.55.646,searchDisc4,2020.2.10,Win32,60,,,space,0.280565,2,1,0.566995,,0,5,5,272,1,2a,44,2,1,
,,,,,,,,,,,,,,,,,,,,,,,,,,images/exp2a_trial_104_colour2_distractors31_l.png,l,1,022,001,2021-04-22_19h14.55.646,searchDisc4,2020.2.10,Win32,60,,,space,0.30529,1,1,0.687345,,0,6,6,332,1,2a,104,2,31,
,,,,,,,,,,,,,,,,,,,,,,,,,,images/exp2c_trial_23_colour1_distractors43_l.png,l,1,022,001,2021-04-22_19h14.55.646,searchDisc4,2020.2.10,Win32,60,,,space,0.317575,1,1,0.646845,,0,7,7,479,1,2c,23,1,43,
,,,,,,,,,,,,,,,,,,,,,,,,,,images/exp2a_trial_8_colour2_distractors9_r.png,r,2,022,001,2021-04-22_19h14.55.646,searchDisc4,2020.2.10,Win32,60,,,space,0.313235,2,1,0.554985,,0,8,8,236,1,2a,8,2,9,
,,,,,,,,,,,,,,,,,,,,,,,,,,images/exp2c_trial_105_colour2_distractors43_l.png,l,1,022,001,2021-04-22_19h14.55.646,searchDisc4,2020.2.10,Win32,60,,,space,0.245445,1,1,0.675825,,0,9,9,561,1,2c,105,2,43,
,,,,,,,,,,,,,,,,,,,,,,,,,,images/exp1a_trial_92_colour3_distractors31_r.png,r,2,022,001,2021-04-22_19h14.55.646,searchDisc4,2020.2.10,Win32,60,,,space,0.300155,2,1,0.77405,,0,10,10,92,1,1a,92,3,31,
,,,,,,,,,,,,,,,,,,,,,,,,,,images/exp2b_trial_20_colour1_distractors9_l.png,l,1,022,001,2021-04-22_19h14.55.646,searchDisc4,2020.2.10,Win32,60,,,space,0.283505,1,1,0.52199,,0,11,11,362,1,2b,20,1,9,
,,,,,,,,,,,,,,,,,,,,,,,,,,images/exp1b_trial_21_colour1_distractors19_l.png,l,1,022,001,2021-04-22_19h14.55.646,searchDisc4,2020.2.10,Win32,60,,,space,0.274115,1,1,0.86783,,0,12,12,135,1,1b,21,1,19,
,,,,,,,,,,,,,,,,,,,,,,,,,,images/exp2c_trial_35_colour3_distractors43_l.png,l,1,022,001,2021-04-22_19h14.55.646,searchDisc4,2020.2.10,Win32,60,,,space,0.283015,1,1,0.61029,,0,13,13,491,1,2c,35,3,43,
,,,,,,,,,,,,,,,,,,,,,,,,,,images/exp2c_trial_25_colour2_distractors4_l.png,l,1,022,001,2021-04-22_19h14.55.646,searchDisc4,2020.2.10,Win32,60,,,space,0.30006,1,1,0.656265,,0,14,14,481,1,2c,25,2,4,
,,,,,,,,,,,,,,,,,,,,,,,,,,images/exp2a_trial_76_colour1_distractors1_r.png,r,2,022,001,2021-04-22_19h14.55.646,searchDisc4,2020.2.10,Win32,60,,,space,0.270345,2,1,0.71068,,0,15,15,304,1,2a,76,1,1,
,,,,,,,,,,,,,,,,,,,,,,,,,,images/exp1a_trial_48_colour2_distractors31_r.png,r,2,022,001,2021-04-22_19h14.55.646,searchDisc4,2020.2.10,Win32,60,,,space,0.241805,2,1,0.60241,,0,16,16,48,1,1a,48,2,31,
,,,,,,,,,,,,,,,,,,,,,,,,,,images/exp2a_trial_63_colour2_distractors4_l.png,l,1,022,001,2021-04-22_19h14.55.646,searchDisc4,2020.2.10,Win32,60,,,space,0.24994,1,1,0.558505,,0,17,17,291,1,2a,63,2,4,
,,,,,,,,,,,,,,,,,,,,,,,,,,images/exp2a_trial_101_colour2_distractors4_l.png,l,1,022,001,2021-04-22_19h14.55.646,searchDisc4,2020.2.10,Win32,60,,,space,0.20553,1,1,0.467975,,0,18,18,329,1,2a,101,2,4,
,,,,,,,,,,,,,,,,,,,,,,,,,,images/exp2a_trial_92_colour3_distractors31_r.png,r,2,022,001,2021-04-22_19h14.55.646,searchDisc4,2020.2.10,Win32,60,,,space,0.248795,2,1,0.91519,,0,19,19,320,1,2a,92,3,31,
,,,,,,,,,,,,,,,,,,,,,,,,,,images/exp1b_trial_50_colour3_distractors1_r.png,r,2,022,001,2021-04-22_19h14.55.646,searchDisc4,2020.2.10,Win32,60,,,space,0.247755,2,1,0.741125,,0,20,20,164,1,1b,50,3,1,
,,,,,,,,,,,,,,,,,,,,,,,,,,images/exp2a_trial_25_colour2_distractors4_l.png,l,1,022,001,2021-04-22_19h14.55.646,searchDisc4,2020.2.10,Win32,60,,,space,0.29721,1,1,0.55402,,0,21,21,253,1,2a,25,2,4,
,,,,,,,,,,,,,,,,,,,,,,,,,,images/exp2c_trial_81_colour1_distractors43_r.png,r,2,022,001,2021-04-22_19h14.55.646,searchDisc4,2020.2.10,Win32,60,,,space,0.292025,2,1,0.47854,,0,22,22,537,1,2c,81,1,43,
,,,,,,,,,,,,,,,,,,,,,,,,,,images/exp2c_trial_89_colour3_distractors4_r.png,r,2,022,001,2021-04-22_19h14.55.646,searchDisc4,2020.2.10,Win32,60,,,space,0.23677,2,1,0.538235,,0,23,23,545,1,2c,89,3,4,
,,,,,,,,,,,,,,,,,,,,,,,,,,images/exp1b_trial_13_colour3_distractors4_r.png,r,2,022,001,2021-04-22_19h14.55.646,searchDisc4,2020.2.10,Win32,60,,,space,0.44043,2,1,0.616105,,0,24,24,127,1,1b,13,3,4,
,,,,,,,,,,,,,,,,,,,,,,,,,,images/exp2c_trial_70_colour3_distractors9_l.png,l,1,022,001,2021-04-22_19h14.55.646,searchDisc4,2020.2.10,Win32,60,,,space,0.255875,1,1,0.66637,,0,25,25,526,1,2c,70,3,9,
,,,,,,,,,,,,,,,,,,,,,,,,,,images/exp1b_trial_79_colour1_distractors19_r.png,r,2,022,001,2021-04-22_19h14.55.646,searchDisc4,2020.2.10,Win32,60,,,space,0.290735,2,1,0.737125,,0,26,26,193,1,1b,79,1,19,
,,,,,,,,,,,,,,,,,,,,,,,,,,images/exp1a_trial_75_colour0_distractors0_l.png,l,1,022,001,2021-04-22_19h14.55.646,searchDisc4,2020.2.10,Win32,60,,,space,0.267455,1,1,0.58031,,0,27,27,75,1,1a,75,0,0,
,,,,,,,,,,,,,,,,,,,,,,,,,,images/exp2b_trial_54_colour3_distractors31_r.png,r,2,022,001,2021-04-22_19h14.55.646,searchDisc4,2020.2.10,Win32,60,,,space,0.22218,2,1,0.85912,,0,28,28,396,1,2b,54,3,31,
,,,,,,,,,,,,,,,,,,,,,,,,,,images/exp1b_trial_40_colour1_distractors9_r.png,r,2,022,001,2021-04-22_19h14.55.646,searchDisc4,2020.2.10,Win32,60,,,space,0.258965,2,1,0.66855,,0,29,29,154,1,1b,40,1,9,
,,,,,,,,,,,,,,,,,,,,,,,,,,images/exp2b_trial_48_colour2_distractors31_r.png,r,2,022,001,2021-04-22_19h14.55.646,searchDisc4,2020.2.10,Win32,60,,,space,0.281445,2,1,0.803395,,0,30,30,390,1,2b,48,2,31,
,,,,,,,,,,,,,,,,,,,,,,,,,,images/exp2c_trial_41_colour1_distractors19_r.png,r,2,022,001,2021-04-22_19h14.55.646,searchDisc4,2020.2.10,Win32,60,,,space,0.251455,2,1,0.504055,,0,31,31,497,1,2c,41,1,19,
,,,,,,,,,,,,,,,,,,,,,,,,,,images/exp2b_trial_37_colour0_distractors0_l.png,l,1,022,001,2021-04-22_19h14.55.646,searchDisc4,2020.2.10,Win32,60,,,space,0.274015,1,1,0.4344,,0,32,32,379,1,2b,37,0,0,
,,,,,,,,,,,,,,,,,,,,,,,,,,images/exp2c_trial_91_colour3_distractors19_r.png,r,2,022,001,2021-04-22_19h14.55.646,searchDisc4,2020.2.10,Win32,60,,,space,0.2931,1,0,0.35641,,0,33,33,547,1,2c,91,3,19,
,,,,,,,,,,,,,,,,,,,,,,,,,,images/exp1b_trial_112_colour0_distractors0_r.png,r,2,022,001,2021-04-22_19h14.55.646,searchDisc4,2020.2.10,Win32,60,,,space,0.41747,2,1,0.48752,,0,34,34,226,1,1b,112,0,0,
,,,,,,,,,,,,,,,,,,,,,,,,,,images/exp1a_trial_28_colour2_distractors31_l.png,l,1,022,001,2021-04-22_19h14.55.646,searchDisc4,2020.2.10,Win32,60,,,space,0.28363,1,1,0.778155,,0,35,35,28,1,1a,28,2,31,
,,,,,,,,,,,,,,,,,,,,,,,,,,images/exp2a_trial_74_colour0_distractors0_r.png,r,2,022,001,2021-04-22_19h14.55.646,searchDisc4,2020.2.10,Win32,60,,,space,0.24229,2,1,0.56502,,0,36,36,302,1,2a,74,0,0,
,,,,,,,,,,,,,,,,,,,,,,,,,,images/exp1b_trial_69_colour3_distractors4_l.png,l,1,022,001,2021-04-22_19h14.55.646,searchDisc4,2020.2.10,Win32,60,,,space,0.24915,1,1,0.871535,,0,37,37,183,1,1b,69,3,4,
,,,,,,,,,,,,,,,,,,,,,,,,,,images/exp2c_trial_56_colour1_distractors1_l.png,l,1,022,001,2021-04-22_19h14.55.646,searchDisc4,2020.2.10,Win32,60,,,space,0.24261,1,1,0.545785,,0,38,38,512,1,2c,56,1,1,
,,,,,,,,,,,,,,,,,,,,,,,,,,images/exp1b_trial_63_colour2_distractors4_l.png,l,1,022,001,2021-04-22_19h14.55.646,searchDisc4,2020.2.10,Win32,60,,,space,0.24395,1,1,0.81141,,0,39,39,177,1,1b,63,2,4,
,,,,,,,,,,,,,,,,,,,,,,,,,,images/exp1b_trial_72_colour3_distractors31_l.png,l,1,022,001,2021-04-22_19h14.55.646,searchDisc4,2020.2.10,Win32,60,,,space,0.26109,1,1,0.73598,,0,40,40,186,1,1b,72,3,31,
,,,,,,,,,,,,,,,,,,,,,,,,,,images/exp2c_trial_28_colour2_distractors31_l.png,l,1,022,001,2021-04-22_19h14.55.646,searchDisc4,2020.2.10,Win32,60,,,space,0.267315,1,1,0.616115,,0,41,41,484,1,2c,28,2,31,
,,,,,,,,,,,,,,,,,,,,,,,,,,images/exp2a_trial_31_colour3_distractors4_l.png,l,1,022,001,2021-04-22_19h14.55.646,searchDisc4,2020.2.10,Win32,60,,,space,0.228945,1,1,0.60363,,0,42,42,259,1,2a,31,3,4,
,,,,,,,,,,,,,,,,,,,,,,,,,,images/exp1a_trial_96_colour1_distractors9_l.png,l,1,022,001,2021-04-22_19h14.55.646,searchDisc4,2020.2.10,Win32,60,,,space,0.231095,1,1,0.70595,,0,43,43,96,1,1a,96,1,9,
,,,,,,,,,,,,,,,,,,,,,,,,,,images/exp2a_trial_90_colour3_distractors9_r.png,r,2,022,001,2021-04-22_19h14.55.646,searchDisc4,2020.2.10,Win32,60,,,space,0.23706,2,1,0.593705,,0,44,44,318,1,2a,90,3,9,
,,,,,,,,,,,,,,,,,,,,,,,,,,images/exp1b_trial_91_colour3_distractors19_r.png,r,2,022,001,2021-04-22_19h14.55.646,searchDisc4,2020.2.10,Win32,60,,,space,0.2814,2,1,0.7694,,0,45,45,205,1,1b,91,3,19,
,,,,,,,,,,,,,,,,,,,,,,,,,,images/exp2b_trial_92_colour3_distractors31_r.png,r,2,022,001,2021-04-22_19h14.55.646,searchDisc4,2020.2.10,Win32,60,,,space,0.287865,2,1,0.5773,,0,46,46,434,1,2b,92,3,31,
,,,,,,,,,,,,,,,,,,,,,,,,,,images/exp1b_trial_24_colour2_distractors1_l.png,l,1,022,001,2021-04-22_19h14.55.646,searchDisc4,2020.2.10,Win32,60,,,space,0.25457,1,1,1.06754,,0,47,47,138,1,1b,24,2,1,
,,,,,,,,,,,,,,,,,,,,,,,,,,images/exp1a_trial_9_colour2_distractors19_r.png,r,2,022,001,2021-04-22_19h14.55.646,searchDisc4,2020.2.10,Win32,60,,,space,0.28735,2,1,0.568475,,0,48,48,9,1,1a,9,2,19,
,,,,,,,,,,,,,,,,,,,,,,,,,,images/exp2b_trial_105_colour2_distractors43_l.png,l,1,022,001,2021-04-22_19h14.55.646,searchDisc4,2020.2.10,Win32,60,,,space,0.253245,1,1,0.56359,,0,49,49,447,1,2b,105,2,43,
,,,,,,,,,,,,,,,,,,,,,,,,,,images/exp1b_trial_26_colour2_distractors9_l.png,l,1,022,001,2021-04-22_19h14.55.646,searchDisc4,2020.2.10,Win32,60,,,space,0.272725,1,1,0.8939,,0,50,50,140,1,1b,26,2,9,
,,,,,,,,,,,,,,,,,,,,,,,,,,images/exp2b_trial_16_colour3_distractors31_r.png,r,2,022,001,2021-04-22_19h14.55.646,searchDisc4,2020.2.10,Win32,60,,,space,0.27576,2,1,0.669475,,0,51,51,358,1,2b,16,3,31,
,,,,,,,,,,,,,,,,,,,,,,,,,,images/exp2a_trial_102_colour2_distractors9_l.png,l,1,022,001,2021-04-22_19h14.55.646,searchDisc4,2020.2.10,Win32,60,,,space,0.26967,1,1,0.486475,,0,52,52,330,1,2a,102,2,9,
,,,,,,,,,,,,,,,,,,,,,,,,,,images/exp2b_trial_34_colour3_distractors31_l.png,l,1,022,001,2021-04-22_19h14.55.646,searchDisc4,2020.2.10,Win32,60,,,space,0.249615,1,1,0.499825,,0,53,53,376,1,2b,34,3,31,
,,,,,,,,,,,,,,,,,,,,,,,,,,images/exp2b_trial_13_colour3_distractors4_r.png,r,2,022,001,2021-04-22_19h14.55.646,searchDisc4,2020.2.10,Win32,60,,,space,0.232795,2,1,0.470275,,0,54,54,355,1,2b,13,3,4,
,,,,,,,,,,,,,,,,,,,,,,,,,,images/exp2c_trial_62_colour2_distractors1_l.png,l,1,022,001,2021-04-22_19h14.55.646,searchDisc4,2020.2.10,Win32,60,,,space,0.183565,1,1,0.478935,,0,55,55,518,1,2c,62,2,1,
,,,,,,,,,,,,,,,,,,,,,,,,,,images/exp2a_trial_54_colour3_distractors31_r.png,r,2,022,001,2021-04-22_19h14.55.646,searchDisc4,2020.2.10,Win32,60,,,space,0.17066,1,0,0.34745,,0,56,56,282,1,2a,54,3,31,
,,,,,,,,,,,,,,,,,,,,,,,,,,images/exp2b_trial_82_colour2_distractors1_r.png,r,2,022,001,2021-04-22_19h14.55.646,searchDisc4,2020.2.10,Win32,60,,,space,0.324115,2,1,0.44957,,0,57,57,424,1,2b,82,2,1,
,,,,,,,,,,,,,,,,,,,,,,,,,,images/exp2a_trial_0_colour1_distractors1_r.png,r,2,022,001,2021-04-22_19h14.55.646,searchDisc4,2020.2.10,Win32,60,,,space,0.229385,2,1,0.52271,,0,58,58,228,1,2a,0,1,1,
,,,,,,,,,,,,,,,,,,,,,,,,,,images/exp1b_trial_31_colour3_distractors4_l.png,l,1,022,001,2021-04-22_19h14.55.646,searchDisc4,2020.2.10,Win32,60,,,space,0.366795,1,1,0.72773,space,0,59,59,145,1,1b,31,3,4,2.81063
,,,,,,,,,,,,,,,,,,,,,,,,,,images/exp2c_trial_104_colour2_distractors31_l.png,l,1,022,001,2021-04-22_19h14.55.646,searchDisc4,2020.2.10,Win32,60,,,space,0.501135,1,1,0.585405,,0,60,60,560,1,2c,104,2,31,
,,,,,,,,,,,,,,,,,,,,,,,,,,images/exp2b_trial_18_colour1_distractors1_l.png,l,1,022,001,2021-04-22_19h14.55.646,searchDisc4,2020.2.10,Win32,60,,,space,0.34212,1,1,0.428525,,0,61,61,360,1,2b,18,1,1,
,,,,,,,,,,,,,,,,,,,,,,,,,,images/exp1b_trial_44_colour2_distractors1_r.png,r,2,022,001,2021-04-22_19h14.55.646,searchDisc4,2020.2.10,Win32,60,,,space,0.25153,2,1,0.524195,,0,62,62,158,1,1b,44,2,1,
,,,,,,,,,,,,,,,,,,,,,,,,,,images/exp2c_trial_31_colour3_distractors4_l.png,l,1,022,001,2021-04-22_19h14.55.646,searchDisc4,2020.2.10,Win32,60,,,space,0.246825,1,1,0.50453,,0,63,63,487,1,2c,31,3,4,
,,,,,,,,,,,,,,,,,,,,,,,,,,images/exp2a_trial_9_colour2_distractors19_r.png,r,2,022,001,2021-04-22_19h14.55.646,searchDisc4,2020.2.10,Win32,60,,,space,0.24369,2,1,0.49186,,0,64,64,237,1,2a,9,2,19,
,,,,,,,,,,,,,,,,,,,,,,,,,,images/exp1a_trial_11_colour2_distractors43_r.png,r,2,022,001,2021-04-22_19h14.55.646,searchDisc4,2020.2.10,Win32,60,,,space,0.237315,2,1,0.530335,,0,65,65,11,1,1a,11,2,43,
,,,,,,,,,,,,,,,,,,,,,,,,,,images/exp1b_trial_35_colour3_distractors43_l.png,l,1,022,001,2021-04-22_19h14.55.646,searchDisc4,2020.2.10,Win32,60,,,space,0.19797,1,1,1.928555,,0,66,66,149,1,1b,35,3,43,
,,,,,,,,,,,,,,,,,,,,,,,,,,images/exp1a_trial_81_colour1_distractors43_r.png,r,2,022,001,2021-04-22_19h14.55.646,searchDisc4,2020.2.10,Win32,60,,,space,0.25047,2,1,0.637845,,0,67,67,81,1,1a,81,1,43,
,,,,,,,,,,,,,,,,,,,,,,,,,,images/exp2c_trial_50_colour3_distractors1_r.png,r,2,022,001,2021-04-22_19h14.55.646,searchDisc4,2020.2.10,Win32,60,,,space,0.234945,2,1,0.525835,,0,68,68,506,1,2c,50,3,1,
,,,,,,,,,,,,,,,,,,,,,,,,,,images/exp2a_trial_3_colour1_distractors19_r.png,r,2,022,001,2021-04-22_19h14.55.646,searchDisc4,2020.2.10,Win32,60,,,space,0.296395,2,1,0.696435,,0,69,69,231,1,2a,3,1,19,
,,,,,,,,,,,,,,,,,,,,,,,,,,images/exp2c_trial_10_colour2_distractors31_r.png,r,2,022,001,2021-04-22_19h14.55.646,searchDisc4,2020.2.10,Win32,60,,,space,0.289445,2,1,0.520175,,0,70,70,466,1,2c,10,2,31,
,,,,,,,,,,,,,,,,,,,,,,,,,,images/exp2c_trial_46_colour2_distractors9_r.png,r,2,022,001,2021-04-22_19h14.55.646,searchDisc4,2020.2.10,Win32,60,,,space,0.26174,2,1,0.538245,,0,71,71,502,1,2c,46,2,9,
,,,,,,,,,,,,,,,,,,,,,,,,,,images/exp1a_trial_8_colour2_distractors9_r.png,r,2,022,001,2021-04-22_19h14.55.646,searchDisc4,2020.2.10,Win32,60,,,space,0.227555,1,0,0.50207,,0,72,72,8,1,1a,8,2,9,
,,,,,,,,,,,,,,,,,,,,,,,,,,images/exp2b_trial_79_colour1_distractors19_r.png,r,2,022,001,2021-04-22_19h14.55.646,searchDisc4,2020.2.10,Win32,60,,,space,0.34634,2,1,0.516625,,0,73,73,421,1,2b,79,1,19,
,,,,,,,,,,,,,,,,,,,,,,,,,,images/exp1a_trial_30_colour3_distractors1_l.png,l,1,022,001,2021-04-22_19h14.55.646,searchDisc4,2020.2.10,Win32,60,,,space,0.335325,1,1,0.418725,,0,74,74,30,1,1a,30,3,1,
,,,,,,,,,,,,,,,,,,,,,,,,,,images/exp1b_trial_4_colour1_distractors31_r.png,r,2,022,001,2021-04-22_19h14.55.646,searchDisc4,2020.2.10,Win32,60,,,space,0.30315,2,1,0.689715,,0,75,75,118,1,1b,4,1,31,
,,,,,,,,,,,,,,,,,,,,,,,,,,images/exp2c_trial_68_colour3_distractors1_l.png,l,1,022,001,2021-04-22_19h14.55.646,searchDisc4,2020.2.10,Win32,60,,,space,0.340775,1,1,0.49558,,0,76,76,524,1,2c,68,3,1,
,,,,,,,,,,,,,,,,,,,,,,,,,,images/exp1a_trial_78_colour1_distractors9_r.png,r,2,022,001,2021-04-22_19h14.55.646,searchDisc4,2020.2.10,Win32,60,,,space,0.287385,2,1,0.55503,,0,77,77,78,1,1a,78,1,9,
,,,,,,,,,,,,,,,,,,,,,,,,,,images/exp2a_trial_71_colour3_distractors19_l.png,l,1,022,001,2021-04-22_19h14.55.646,searchDisc4,2020.2.10,Win32,60,,,space,0.20393,1,1,0.553675,,0,78,78,299,1,2a,71,3,19,
,,,,,,,,,,,,,,,,,,,,,,,,,,images/exp1a_trial_89_colour3_distractors4_r.png,r,2,022,001,2021-04-22_19h14.55.646,searchDisc4,2020.2.10,Win32,60,,,space,0.25107,2,1,0.690795,,0,79,79,89,1,1a,89,3,4,
,,,,,,,,,,,,,,,,,,,,,,,,,,images/exp1b_trial_30_colour3_distractors1_l.png,l,1,022,001,2021-04-22_19h14.55.646,searchDisc4,2020.2.10,Win32,60,,,space,0.26177,1,1,0.548265,,0,80,80,144,1,1b,30,3,1,
,,,,,,,,,,,,,,,,,,,,,,,,,,images/exp2b_trial_90_colour3_distractors9_r.png,r,2,022,001,2021-04-22_19h14.55.646,searchDisc4,2020.2.10,Win32,60,,,space,0.232385,2,1,0.632835,,0,81,81,432,1,2b,90,3,9,
,,,,,,,,,,,,,,,,,,,,,,,,,,images/exp1b_trial_39_colour1_distractors4_r.png,r,2,022,001,2021-04-22_19h14.55.646,searchDisc4,2020.2.10,Win32,60,,,space,0.210095,2,1,0.819035,,0,82,82,153,1,1b,39,1,4,
,,,,,,,,,,,,,,,,,,,,,,,,,,images/exp2a_trial_85_colour2_distractors19_r.png,r,2,022,001,2021-04-22_19h14.55.646,searchDisc4,2020.2.10,Win32,60,,,space,0.546525,2,1,0.552825,,0,83,83,313,1,2a,85,2,19,
,,,,,,,,,,,,,,,,,,,,,,,,,,images/exp1b_trial_108_colour3_distractors9_l.png,l,1,022,001,2021-04-22_19h14.55.646,searchDisc4,2020.2.10,Win32,60,,,space,0.247015,1,1,0.645075,,0,84,84,222,1,1b,108,3,9,
,,,,,,,,,,,,,,,,,,,,,,,,,,images/exp2c_trial_75_colour0_distractors0_l.png,l,1,022,001,2021-04-22_19h14.55.646,searchDisc4,2020.2.10,Win32,60,,,space,0.26346,1,1,0.4016,,0,85,85,531,1,2c,75,0,0,
,,,,,,,,,,,,,,,,,,,,,,,,,,images/exp2a_trial_24_colour2_distractors1_l.png,l,1,022,001,2021-04-22_19h14.55.646,searchDisc4,2020.2.10,Win32,60,,,space,0.20636,1,1,0.376885,,0,86,86,252,1,2a,24,2,1,
,,,,,,,,,,,,,,,,,,,,,,,,,,images/exp2b_trial_101_colour2_distractors4_l.png,l,1,022,001,2021-04-22_19h14.55.646,searchDisc4,2020.2.10,Win32,60,,,space,0.22493,1,1,0.72151,,0,87,87,443,1,2b,101,2,4,
,,,,,,,,,,,,,,,,,,,,,,,,,,images/exp2b_trial_52_colour3_distractors9_r.png,r,2,022,001,2021-04-22_19h14.55.646,searchDisc4,2020.2.10,Win32,60,,,space,0.24459,2,1,0.70619,,0,88,88,394,1,2b,52,3,9,
,,,,,,,,,,,,,,,,,,,,,,,,,,images/exp1b_trial_45_colour2_distractors4_r.png,r,2,022,001,2021-04-22_19h14.55.646,searchDisc4,2020.2.10,Win32,60,,,space,0.26034,2,1,0.498015,,0,89,89,159,1,1b,45,2,4,
,,,,,,,,,,,,,,,,,,,,,,,,,,images/exp2b_trial_58_colour1_distractors9_l.png,l,1,022,001,2021-04-22_19h14.55.646,searchDisc4,2020.2.10,Win32,60,,,space,0.223925,1,1,0.40728,,0,90,90,400,1,2b,58,1,9,
,,,,,,,,,,,,,,,,,,,,,,,,,,images/exp1a_trial_3_colour1_distractors19_r.png,r,2,022,001,2021-04-22_19h14.55.646,searchDisc4,2020.2.10,Win32,60,,,space,0.22314,2,1,0.79213,,0,91,91,3,1,1a,3,1,19,
,,,,,,,,,,,,,,,,,,,,,,,,,,images/exp1a_trial_107_colour3_distractors4_l.png,l,1,022,001,2021-04-22_19h14.55.646,searchDisc4,2020.2.10,Win32,60,,,space,0.2293,1,1,0.42792,,0,92,92,107,1,1a,107,3,4,
,,,,,,,,,,,,,,,,,,,,,,,,,,images/exp1a_trial_20_colour1_distractors9_l.png,l,1,022,001,2021-04-22_19h14.55.646,searchDisc4,2020.2.10,Win32,60,,,space,0.24625,1,1,0.60511,,0,93,93,20,1,1a,20,1,9,
,,,,,,,,,,,,,,,,,,,,,,,,,,images/exp2a_trial_81_colour1_distractors43_r.png,r,2,022,001,2021-04-22_19h14.55.646,searchDisc4,2020.2.10,Win32,60,,,space,0.26999,2,1,0.524765,,0,94,94,309,1,2a,81,1,43,
,,,,,,,,,,,,,,,,,,,,,,,,,,images/exp2b_trial_53_colour3_distractors19_r.png,r,2,022,001,2021-04-22_19h14.55.646,searchDisc4,2020.2.10,Win32,60,,,space,0.165955,2,1,0.4881,,0,95,95,395,1,2b,53,3,19,
,,,,,,,,,,,,,,,,,,,,,,,,,,images/exp2b_trial_61_colour1_distractors43_l.png,l,1,022,001,2021-04-22_19h14.55.646,searchDisc4,2020.2.10,Win32,60,,,space,0.26252,1,1,0.551755,,0,96,96,403,1,2b,61,1,43,
,,,,,,,,,,,,,,,,,,,,,,,,,,images/exp1b_trial_34_colour3_distractors31_l.png,l,1,022,001,2021-04-22_19h14.55.646,searchDisc4,2020.2.10,Win32,60,,,space,0.214115,1,1,0.48632,,0,97,97,148,1,1b,34,3,31,
,,,,,,,,,,,,,,,,,,,,,,,,,,images/exp2b_trial_104_colour2_distractors31_l.png,l,1,022,001,2021-04-22_19h14.55.646,searchDisc4,2020.2.10,Win32,60,,,space,0.21661,1,1,0.485635,,0,98,98,446,1,2b,104,2,31,
,,,,,,,,,,,,,,,,,,,,,,,,,,images/exp1a_trial_110_colour3_distractors31_l.png,l,1,022,001,2021-04-22_19h14.55.646,searchDisc4,2020.2.10,Win32,60,,,space,0.069425,1,1,0.522105,,0,99,99,110,1,1a,110,3,31,
,,,,,,,,,,,,,,,,,,,,,,,,,,images/exp1b_trial_71_colour3_distractors19_l.png,l,1,022,001,2021-04-22_19h14.55.646,searchDisc4,2020.2.10,Win32,60,,,space,0.09576,1,1,0.96366,,0,100,100,185,1,1b,71,3,19,
,,,,,,,,,,,,,,,,,,,,,,,,,,images/exp2b_trial_3_colour1_distractors19_r.png,r,2,022,001,2021-04-22_19h14.55.646,searchDisc4,2020.2.10,Win32,60,,,space,0.131445,2,1,0.458755,,0,101,101,345,1,2b,3,1,19,
,,,,,,,,,,,,,,,,,,,,,,,,,,images/exp2a_trial_68_colour3_distractors1_l.png,l,1,022,001,2021-04-22_19h14.55.646,searchDisc4,2020.2.10,Win32,60,,,space,0.100175,1,1,0.438375,,0,102,102,296,1,2a,68,3,1,
,,,,,,,,,,,,,,,,,,,,,,,,,,images/exp2b_trial_41_colour1_distractors19_r.png,r,2,022,001,2021-04-22_19h14.55.646,searchDisc4,2020.2.10,Win32,60,,,space,0.103325,2,1,0.416785,,0,103,103,383,1,2b,41,1,19,
,,,,,,,,,,,,,,,,,,,,,,,,,,images/exp1b_trial_65_colour2_distractors19_l.png,l,1,022,001,2021-04-22_19h14.55.646,searchDisc4,2020.2.10,Win32,60,,,space,0.050845,1,1,0.754375,,0,104,104,179,1,1b,65,2,19,
,,,,,,,,,,,,,,,,,,,,,,,,,,images/exp2c_trial_63_colour2_distractors4_l.png,l,1,022,001,2021-04-22_19h14.55.646,searchDisc4,2020.2.10,Win32,60,,,space,0.063695,1,1,0.508855,,0,105,105,519,1,2c,63,2,4,
,,,,,,,,,,,,,,,,,,,,,,,,,,images/exp2a_trial_47_colour2_distractors19_r.png,r,2,022,001,2021-04-22_19h14.55.646,searchDisc4,2020.2.10,Win32,60,,,space,0.085265,2,1,0.563485,,0,106,106,275,1,2a,47,2,19,
,,,,,,,,,,,,,,,,,,,,,,,,,,images/exp2a_trial_34_colour3_distractors31_l.png,l,1,022,001,2021-04-22_19h14.55.646,searchDisc4,2020.2.10,Win32,60,,,space,0.09652,1,1,0.64688,,0,107,107,262,1,2a,34,3,31,
,,,,,,,,,,,,,,,,,,,,,,,,,,images/exp1b_trial_78_colour1_distractors9_r.png,r,2,022,001,2021-04-22_19h14.55.646,searchDisc4,2020.2.10,Win32,60,,,space,0.093615,2,1,1.069175,,0,108,108,192,1,1b,78,1,9,
,,,,,,,,,,,,,,,,,,,,,,,,,,images/exp1b_trial_43_colour1_distractors43_r.png,r,2,022,001,2021-04-22_19h14.55.646,searchDisc4,2020.2.10,Win32,60,,,space,0.053185,2,1,0.74892,,0,109,109,157,1,1b,43,1,43,
,,,,,,,,,,,,,,,,,,,,,,,,,,images/exp1b_trial_82_colour2_distractors1_r.png,r,2,022,001,2021-04-22_19h14.55.646,searchDisc4,2020.2.10,Win32,60,,,space,0.264165,2,1,0.478465,,0,110,110,196,1,1b,82,2,1,
,,,,,,,,,,,,,,,,,,,,,,,,,,images/exp1a_trial_7_colour2_distractors4_r.png,r,2,022,001,2021-04-22_19h14.55.646,searchDisc4,2020.2.10,Win32,60,,,space,0.204735,1,0,0.420515,,0,111,111,7,1,1a,7,2,4,
,,,,,,,,,,,,,,,,,,,,,,,,,,images/exp1a_trial_21_colour1_distractors19_l.png,l,1,022,001,2021-04-22_19h14.55.646,searchDisc4,2020.2.10,Win32,60,,,space,0.344745,1,1,0.54884,,0,112,112,21,1,1a,21,1,19,
,,,,,,,,,,,,,,,,,,,,,,,,,,images/exp2c_trial_37_colour0_distractors0_l.png,l,1,022,001,2021-04-22_19h14.55.646,searchDisc4,2020.2.10,Win32,60,,,space,0.233435,1,1,0.37128,,0,113,113,493,1,2c,37,0,0,
,,,,,,,,,,,,,,,,,,,,,,,,,,images/exp2a_trial_66_colour2_distractors31_l.png,l,1,022,001,2021-04-22_19h14.55.646,searchDisc4,2020.2.10,Win32,60,,,space,0.217955,2,0,0.436515,,0,114,114,294,1,2a,66,2,31,
,,,,,,,,,,,,,,,,,,,,,,,,,,images/exp1a_trial_39_colour1_distractors4_r.png,r,2,022,001,2021-04-22_19h14.55.646,searchDisc4,2020.2.10,Win32,60,,,space,0.33959,2,1,0.47937,,0,115,115,39,1,1a,39,1,4,
,,,,,,,,,,,,,,,,,,,,,,,,,,images/exp2a_trial_1_colour1_distractors4_r.png,r,2,022,001,2021-04-22_19h14.55.646,searchDisc4,2020.2.10,Win32,60,,,space,0.263575,2,1,0.86776,,0,116,116,229,1,2a,1,1,4,
,,,,,,,,,,,,,,,,,,,,,,,,,,images/exp2a_trial_94_colour1_distractors1_l.png,l,1,022,001,2021-04-22_19h14.55.646,searchDisc4,2020.2.10,Win32,60,,,space,0.229955,1,1,0.48023,,0,117,117,322,1,2a,94,1,1,
,,,,,,,,,,,,,,,,,,,,,,,,,,images/exp1b_trial_87_colour2_distractors43_r.png,r,2,022,001,2021-04-22_19h14.55.646,searchDisc4,2020.2.10,Win32,60,,,space,0.318305,1,0,0.65382,,0,118,118,201,1,1b,87,2,43,
,,,,,,,,,,,,,,,,,,,,,,,,,,images/exp1a_trial_73_colour3_distractors43_l.png,l,1,022,001,2021-04-22_19h14.55.646,searchDisc4,2020.2.10,Win32,60,,,space,0.41488,1,1,0.616055,space,0,119,119,73,1,1a,73,3,43,0.24275
,,,,,,,,,,,,,,,,,,,,,,,,,,images/exp2b_trial_46_colour2_distractors9_r.png,r,2,022,001,2021-04-22_19h14.55.646,searchDisc4,2020.2.10,Win32,60,,,space,0.486195,2,1,0.581255,,0,120,120,388,1,2b,46,2,9,
,,,,,,,,,,,,,,,,,,,,,,,,,,images/exp2b_trial_69_colour3_distractors4_l.png,l,1,022,001,2021-04-22_19h14.55.646,searchDisc4,2020.2.10,Win32,60,,,space,0.279025,1,1,1.02395,,0,121,121,411,1,2b,69,3,4,
,,,,,,,,,,,,,,,,,,,,,,,,,,images/exp1b_trial_109_colour3_distractors19_l.png,l,1,022,001,2021-04-22_19h14.55.646,searchDisc4,2020.2.10,Win32,60,,,space,0.271605,1,1,0.82176,,0,122,122,223,1,1b,109,3,19,
,,,,,,,,,,,,,,,,,,,,,,,,,,images/exp2a_trial_29_colour2_distractors43_l.png,l,1,022,001,2021-04-22_19h14.55.646,searchDisc4,2020.2.10,Win32,60,,,space,0.26999,1,1,0.47697,,0,123,123,257,1,2a,29,2,43,
,,,,,,,,,,,,,,,,,,,,,,,,,,images/exp2a_trial_11_colour2_distractors43_r.png,r,2,022,001,2021-04-22_19h14.55.646,searchDisc4,2020.2.10,Win32,60,,,space,0.270275,2,1,0.979365,,0,124,124,239,1,2a,11,2,43,
,,,,,,,,,,,,,,,,,,,,,,,,,,images/exp2c_trial_108_colour3_distractors9_l.png,l,1,022,001,2021-04-22_19h14.55.646,searchDisc4,2020.2.10,Win32,60,,,space,0.252585,1,1,0.938465,,0,125,125,564,1,2c,108,3,9,
,,,,,,,,,,,,,,,,,,,,,,,,,,images/exp2c_trial_39_colour1_distractors4_r.png,r,2,022,001,2021-04-22_19h14.55.646,searchDisc4,2020.2.10,Win32,60,,,space,0.291455,2,1,0.636555,,0,126,126,495,1,2c,39,1,4,
,,,,,,,,,,,,,,,,,,,,,,,,,,images/exp2a_trial_88_colour3_distractors1_r.png,r,2,022,001,2021-04-22_19h14.55.646,searchDisc4,2020.2.10,Win32,60,,,space,0.230675,2,1,0.5536,,0,127,127,316,1,2a,88,3,1,
,,,,,,,,,,,,,,,,,,,,,,,,,,images/exp2c_trial_84_colour2_distractors9_r.png,r,2,022,001,2021-04-22_19h14.55.646,searchDisc4,2020.2.10,Win32,60,,,space,0.247315,2,1,0.607675,,0,128,128,540,1,2c,84,2,9,
,,,,,,,,,,,,,,,,,,,,,,,,,,images/exp1b_trial_104_colour2_distractors31_l.png,l,1,022,001,2021-04-22_19h14.55.646,searchDisc4,2020.2.10,Win32,60,,,space,0.267475,1,1,0.7051,,0,129,129,218,1,1b,104,2,31,
,,,,,,,,,,,,,,,,,,,,,,,,,,images/exp2b_trial_70_colour3_distractors9_l.png,l,1,022,001,2021-04-22_19h14.55.646,searchDisc4,2020.2.10,Win32,60,,,space,0.258635,1,1,0.653865,,0,130,130,412,1,2b,70,3,9,
,,,,,,,,,,,,,,,,,,,,,,,,,,images/exp1b_trial_3_colour1_distractors19_r.png,r,2,022,001,2021-04-22_19h14.55.646,searchDisc4,2020.2.10,Win32,60,,,space,0.253595,2,1,0.651165,,0,131,131,117,1,1b,3,1,19,
,,,,,,,,,,,,,,,,,,,,,,,,,,images/exp2a_trial_98_colour1_distractors31_l.png,l,1,022,001,2021-04-22_19h14.55.646,searchDisc4,2020.2.10,Win32,60,,,space,0.25975,1,1,0.60265,,0,132,132,326,1,2a,98,1,31,
,,,,,,,,,,,,,,,,,,,,,,,,,,images/exp1b_trial_101_colour2_distractors4_l.png,l,1,022,001,2021-04-22_19h14.55.646,searchDisc4,2020.2.10,Win32,60,,,space,0.24828,1,1,0.629045,,0,133,133,215,1,1b,101,2,4,
,,,,,,,,,,,,,,,,,,,,,,,,,,images/exp2b_trial_98_colour1_distractors31_l.png,l,1,022,001,2021-04-22_19h14.55.646,searchDisc4,2020.2.10,Win32,60,,,space,0.279345,1,1,0.519645,,0,134,134,440,1,2b,98,1,31,
,,,,,,,,,,,,,,,,,,,,,,,,,,images/exp2a_trial_84_colour2_distractors9_r.png,r,2,022,001,2021-04-22_19h14.55.646,searchDisc4,2020.2.10,Win32,60,,,space,0.1978,2,1,0.47518,,0,135,135,312,1,2a,84,2,9,
,,,,,,,,,,,,,,,,,,,,,,,,,,images/exp1b_trial_52_colour3_distractors9_r.png,r,2,022,001,2021-04-22_19h14.55.646,searchDisc4,2020.2.10,Win32,60,,,space,0.171565,2,1,0.55564,,0,136,136,166,1,1b,52,3,9,
,,,,,,,,,,,,,,,,,,,,,,,,,,images/exp2a_trial_96_colour1_distractors9_l.png,l,1,022,001,2021-04-22_19h14.55.646,searchDisc4,2020.2.10,Win32,60,,,space,0.19361,1,1,0.430915,,0,137,137,324,1,2a,96,1,9,
,,,,,,,,,,,,,,,,,,,,,,,,,,images/exp1b_trial_83_colour2_distractors4_r.png,r,2,022,001,2021-04-22_19h14.55.646,searchDisc4,2020.2.10,Win32,60,,,space,0.232405,2,1,0.52809,,0,138,138,197,1,1b,83,2,4,
,,,,,,,,,,,,,,,,,,,,,,,,,,images/exp1a_trial_24_colour2_distractors1_l.png,l,1,022,001,2021-04-22_19h14.55.646,searchDisc4,2020.2.10,Win32,60,,,space,0.202545,1,1,0.6782,,0,139,139,24,1,1a,24,2,1,
,,,,,,,,,,,,,,,,,,,,,,,,,,images/exp1a_trial_44_colour2_distractors1_r.png,r,2,022,001,2021-04-22_19h14.55.646,searchDisc4,2020.2.10,Win32,60,,,space,0.30944,2,1,0.89136,,0,140,140,44,1,1a,44,2,1,
,,,,,,,,,,,,,,,,,,,,,,,,,,images/exp2c_trial_53_colour3_distractors19_r.png,r,2,022,001,2021-04-22_19h14.55.646,searchDisc4,2020.2.10,Win32,60,,,space,0.249515,2,1,0.58762,,0,141,141,509,1,2c,53,3,19,
,,,,,,,,,,,,,,,,,,,,,,,,,,images/exp2b_trial_2_colour1_distractors9_r.png,r,2,022,001,2021-04-22_19h14.55.646,searchDisc4,2020.2.10,Win32,60,,,space,0.16759,2,1,0.40708,,0,142,142,344,1,2b,2,1,9,
,,,,,,,,,,,,,,,,,,,,,,,,,,images/exp1a_trial_102_colour2_distractors9_l.png,l,1,022,001,2021-04-22_19h14.55.646,searchDisc4,2020.2.10,Win32,60,,,space,0.32038,1,1,0.554745,,0,143,143,102,1,1a,102,2,9,
,,,,,,,,,,,,,,,,,,,,,,,,,,images/exp1a_trial_26_colour2_distractors9_l.png,l,1,022,001,2021-04-22_19h14.55.646,searchDisc4,2020.2.10,Win32,60,,,space,0.289815,1,1,0.522635,,0,144,144,26,1,1a,26,2,9,
,,,,,,,,,,,,,,,,,,,,,,,,,,images/exp1a_trial_62_colour2_distractors1_l.png,l,1,022,001,2021-04-22_19h14.55.646,searchDisc4,2020.2.10,Win32,60,,,space,0.214015,1,1,0.426095,,0,145,145,62,1,1a,62,2,1,
,,,,,,,,,,,,,,,,,,,,,,,,,,images/exp2c_trial_33_colour3_distractors19_l.png,l,1,022,001,2021-04-22_19h14.55.646,searchDisc4,2020.2.10,Win32,60,,,space,0.168895,1,1,0.38604,,0,146,146,489,1,2c,33,3,19,
,,,,,,,,,,,,,,,,,,,,,,,,,,images/exp1a_trial_46_colour2_distractors9_r.png,r,2,022,001,2021-04-22_19h14.55.646,searchDisc4,2020.2.10,Win32,60,,,space,0.153765,2,1,0.57,,0,147,147,46,1,1a,46,2,9,
,,,,,,,,,,,,,,,,,,,,,,,,,,images/exp1a_trial_55_colour3_distractors43_r.png,r,2,022,001,2021-04-22_19h14.55.646,searchDisc4,2020.2.10,Win32,60,,,space,0.09922,2,1,0.526465,,0,148,148,55,1,1a,55,3,43,
,,,,,,,,,,,,,,,,,,,,,,,,,,images/exp2c_trial_21_colour1_distractors19_l.png,l,1,022,001,2021-04-22_19h14.55.646,searchDisc4,2020.2.10,Win32,60,,,space,0.05806,1,1,0.91602,,0,149,149,477,1,2c,21,1,19,
,,,,,,,,,,,,,,,,,,,,,,,,,,images/exp1a_trial_52_colour3_distractors9_r.png,r,2,022,001,2021-04-22_19h14.55.646,searchDisc4,2020.2.10,Win32,60,,,space,0.268025,2,1,0.59996,,0,150,150,52,1,1a,52,3,9,
,,,,,,,,,,,,,,,,,,,,,,,,,,images/exp2a_trial_111_colour3_distractors43_l.png,l,1,022,001,2021-04-22_19h14.55.646,searchDisc4,2020.2.10,Win32,60,,,space,0.22882,1,1,0.485105,,0,151,151,339,1,2a,111,3,43,
,,,,,,,,,,,,,,,,,,,,,,,,,,images/exp1a_trial_90_colour3_distractors9_r.png,r,2,022,001,2021-04-22_19h14.55.646,searchDisc4,2020.2.10,Win32,60,,,space,0.208055,1,0,0.42181,,0,152,152,90,1,1a,90,3,9,
,,,,,,,,,,,,,,,,,,,,,,,,,,images/exp1a_trial_76_colour1_distractors1_r.png,r,2,022,001,2021-04-22_19h14.55.646,searchDisc4,2020.2.10,Win32,60,,,space,0.29069,1,0,0.439945,,0,153,153,76,1,1a,76,1,1,
,,,,,,,,,,,,,,,,,,,,,,,,,,images/exp2a_trial_22_colour1_distractors31_l.png,l,1,022,001,2021-04-22_19h14.55.646,searchDisc4,2020.2.10,Win32,60,,,space,0.267905,1,1,0.489705,,0,154,154,250,1,2a,22,1,31,
,,,,,,,,,,,,,,,,,,,,,,,,,,images/exp2a_trial_4_colour1_distractors31_r.png,r,2,022,001,2021-04-22_19h14.55.646,searchDisc4,2020.2.10,Win32,60,,,space,0.21882,2,1,0.59157,,0,155,155,232,1,2a,4,1,31,
,,,,,,,,,,,,,,,,,,,,,,,,,,images/exp2b_trial_103_colour2_distractors19_l.png,l,1,022,001,2021-04-22_19h14.55.646,searchDisc4,2020.2.10,Win32,60,,,space,0.248805,1,1,0.531695,,0,156,156,445,1,2b,103,2,19,
,,,,,,,,,,,,,,,,,,,,,,,,,,images/exp2c_trial_102_colour2_distractors9_l.png,l,1,022,001,2021-04-22_19h14.55.646,searchDisc4,2020.2.10,Win32,60,,,space,0.242985,1,1,0.65575,,0,157,157,558,1,2c,102,2,9,
,,,,,,,,,,,,,,,,,,,,,,,,,,images/exp2a_trial_18_colour1_distractors1_l.png,l,1,022,001,2021-04-22_19h14.55.646,searchDisc4,2020.2.10,Win32,60,,,space,0.229085,1,1,0.40956,,0,158,158,246,1,2a,18,1,1,
,,,,,,,,,,,,,,,,,,,,,,,,,,images/exp1a_trial_2_colour1_distractors9_r.png,r,2,022,001,2021-04-22_19h14.55.646,searchDisc4,2020.2.10,Win32,60,,,space,0.2463,2,1,0.437045,,0,159,159,2,1,1a,2,1,9,
,,,,,,,,,,,,,,,,,,,,,,,,,,images/exp1b_trial_46_colour2_distractors9_r.png,r,2,022,001,2021-04-22_19h14.55.646,searchDisc4,2020.2.10,Win32,60,,,space,0.315925,2,1,0.690125,,0,160,160,160,1,1b,46,2,9,
,,,,,,,,,,,,,,,,,,,,,,,,,,images/exp1a_trial_103_colour2_distractors19_l.png,l,1,022,001,2021-04-22_19h14.55.646,searchDisc4,2020.2.10,Win32,60,,,space,0.248165,1,1,0.541975,,0,161,161,103,1,1a,103,2,19,
,,,,,,,,,,,,,,,,,,,,,,,,,,images/exp2b_trial_33_colour3_distractors19_l.png,l,1,022,001,2021-04-22_19h14.55.646,searchDisc4,2020.2.10,Win32,60,,,space,0.285905,1,1,0.5148,,0,162,162,375,1,2b,33,3,19,
,,,,,,,,,,,,,,,,,,,,,,,,,,images/exp1b_trial_84_colour2_distractors9_r.png,r,2,022,001,2021-04-22_19h14.55.646,searchDisc4,2020.2.10,Win32,60,,,space,0.29021,2,1,0.79296,,0,163,163,198,1,1b,84,2,9,
,,,,,,,,,,,,,,,,,,,,,,,,,,images/exp1b_trial_59_colour1_distractors19_l.png,l,1,022,001,2021-04-22_19h14.55.646,searchDisc4,2020.2.10,Win32,60,,,space,0.260175,1,1,0.55471,,0,164,164,173,1,1b,59,1,19,
,,,,,,,,,,,,,,,,,,,,,,,,,,images/exp1b_trial_76_colour1_distractors1_r.png,r,2,022,001,2021-04-22_19h14.55.646,searchDisc4,2020.2.10,Win32,60,,,space,0.28536,2,1,0.58498,,0,165,165,190,1,1b,76,1,1,
,,,,,,,,,,,,,,,,,,,,,,,,,,images/exp2c_trial_82_colour2_distractors1_r.png,r,2,022,001,2021-04-22_19h14.55.646,searchDisc4,2020.2.10,Win32,60,,,space,0.23907,2,1,0.650555,,0,166,166,538,1,2c,82,2,1,
,,,,,,,,,,,,,,,,,,,,,,,,,,images/exp2c_trial_100_colour2_distractors1_l.png,l,1,022,001,2021-04-22_19h14.55.646,searchDisc4,2020.2.10,Win32,60,,,space,0.302015,1,1,0.63927,,0,167,167,556,1,2c,100,2,1,
,,,,,,,,,,,,,,,,,,,,,,,,,,images/exp2c_trial_54_colour3_distractors31_r.png,r,2,022,001,2021-04-22_19h14.55.646,searchDisc4,2020.2.10,Win32,60,,,space,0.260325,2,1,0.68802,,0,168,168,510,1,2c,54,3,31,
,,,,,,,,,,,,,,,,,,,,,,,,,,images/exp2b_trial_22_colour1_distractors31_l.png,l,1,022,001,2021-04-22_19h14.55.646,searchDisc4,2020.2.10,Win32,60,,,space,0.18389,1,1,0.654355,,0,169,169,364,1,2b,22,1,31,
,,,,,,,,,,,,,,,,,,,,,,,,,,images/exp1a_trial_45_colour2_distractors4_r.png,r,2,022,001,2021-04-22_19h14.55.646,searchDisc4,2020.2.10,Win32,60,,,space,0.23328,2,1,0.648205,,0,170,170,45,1,1a,45,2,4,
,,,,,,,,,,,,,,,,,,,,,,,,,,images/exp2c_trial_73_colour3_distractors43_l.png,l,1,022,001,2021-04-22_19h14.55.646,searchDisc4,2020.2.10,Win32,60,,,space,0.23853,1,1,0.642975,,0,171,171,529,1,2c,73,3,43,
,,,,,,,,,,,,,,,,,,,,,,,,,,images/exp2b_trial_27_colour2_distractors19_l.png,l,1,022,001,2021-04-22_19h14.55.646,searchDisc4,2020.2.10,Win32,60,,,space,0.2132,1,1,0.527335,,0,172,172,369,1,2b,27,2,19,
,,,,,,,,,,,,,,,,,,,,,,,,,,images/exp1a_trial_67_colour2_distractors43_l.png,l,1,022,001,2021-04-22_19h14.55.646,searchDisc4,2020.2.10,Win32,60,,,space,0.235295,1,1,3.55197,,0,173,173,67,1,1a,67,2,43,
,,,,,,,,,,,,,,,,,,,,,,,,,,images/exp1b_trial_15_colour3_distractors19_r.png,r,2,022,001,2021-04-22_19h14.55.646,searchDisc4,2020.2.10,Win32,60,,,space,0.292595,2,1,0.691885,,0,174,174,129,1,1b,15,3,19,
,,,,,,,,,,,,,,,,,,,,,,,,,,images/exp2c_trial_18_colour1_distractors1_l.png,l,1,022,001,2021-04-22_19h14.55.646,searchDisc4,2020.2.10,Win32,60,,,space,0.22831,1,1,0.43138,,0,175,175,474,1,2c,18,1,1,
,,,,,,,,,,,,,,,,,,,,,,,,,,images/exp1b_trial_7_colour2_distractors4_r.png,r,2,022,001,2021-04-22_19h14.55.646,searchDisc4,2020.2.10,Win32,60,,,space,0.220035,2,1,0.697865,,0,176,176,121,1,1b,7,2,4,
,,,,,,,,,,,,,,,,,,,,,,,,,,images/exp1a_trial_53_colour3_distractors19_r.png,r,2,022,001,2021-04-22_19h14.55.646,searchDisc4,2020.2.10,Win32,60,,,space,0.15229,2,1,0.5098,,0,177,177,53,1,1a,53,3,19,
,,,,,,,,,,,,,,,,,,,,,,,,,,images/exp2c_trial_34_colour3_distractors31_l.png,l,1,022,001,2021-04-22_19h14.55.646,searchDisc4,2020.2.10,Win32,60,,,space,0.11719,1,1,0.46854,,0,178,178,490,1,2c,34,3,31,
,,,,,,,,,,,,,,,,,,,,,,,,,,images/exp2c_trial_95_colour1_distractors4_l.png,l,1,022,001,2021-04-22_19h14.55.646,searchDisc4,2020.2.10,Win32,60,,,space,0.155885,1,1,0.60839,space,0,179,179,551,1,2c,95,1,4,0.177575
,,,,,,,,,,,,,,,,,,,,,,,,,,images/exp1a_trial_63_colour2_distractors4_l.png,l,1,022,001,2021-04-22_19h14.55.646,searchDisc4,2020.2.10,Win32,60,,,space,0.61763,2,0,0.52113,,0,180,180,63,1,1a,63,2,4,
,,,,,,,,,,,,,,,,,,,,,,,,,,images/exp2a_trial_35_colour3_distractors43_l.png,l,1,022,001,2021-04-22_19h14.55.646,searchDisc4,2020.2.10,Win32,60,,,space,0.258975,1,1,0.619905,,0,181,181,263,1,2a,35,3,43,
,,,,,,,,,,,,,,,,,,,,,,,,,,images/exp1b_trial_28_colour2_distractors31_l.png,l,1,022,001,2021-04-22_19h14.55.646,searchDisc4,2020.2.10,Win32,60,,,space,0.225265,1,1,0.590925,,0,182,182,142,1,1b,28,2,31,
,,,,,,,,,,,,,,,,,,,,,,,,,,images/exp2c_trial_67_colour2_distractors43_l.png,l,1,022,001,2021-04-22_19h14.55.646,searchDisc4,2020.2.10,Win32,60,,,space,0.25144,1,1,0.691845,,0,183,183,523,1,2c,67,2,43,
,,,,,,,,,,,,,,,,,,,,,,,,,,images/exp2b_trial_44_colour2_distractors1_r.png,r,2,022,001,2021-04-22_19h14.55.646,searchDisc4,2020.2.10,Win32,60,,,space,0.229385,2,1,0.52581,,0,184,184,386,1,2b,44,2,1,
,,,,,,,,,,,,,,,,,,,,,,,,,,images/exp1a_trial_43_colour1_distractors43_r.png,r,2,022,001,2021-04-22_19h14.55.646,searchDisc4,2020.2.10,Win32,60,,,space,0.2355,2,1,0.57754,,0,185,185,43,1,1a,43,1,43,
,,,,,,,,,,,,,,,,,,,,,,,,,,images/exp1b_trial_90_colour3_distractors9_r.png,r,2,022,001,2021-04-22_19h14.55.646,searchDisc4,2020.2.10,Win32,60,,,space,0.204295,2,1,0.549475,,0,186,186,204,1,1b,90,3,9,
,,,,,,,,,,,,,,,,,,,,,,,,,,images/exp1a_trial_33_colour3_distractors19_l.png,l,1,022,001,2021-04-22_19h14.55.646,searchDisc4,2020.2.10,Win32,60,,,space,0.232015,1,1,0.45605,,0,187,187,33,1,1a,33,3,19,
,,,,,,,,,,,,,,,,,,,,,,,,,,images/exp2c_trial_51_colour3_distractors4_r.png,r,2,022,001,2021-04-22_19h14.55.646,searchDisc4,2020.2.10,Win32,60,,,space,0.233635,1,0,0.4241,,0,188,188,507,1,2c,51,3,4,
,,,,,,,,,,,,,,,,,,,,,,,,,,images/exp2a_trial_17_colour3_distractors43_r.png,r,2,022,001,2021-04-22_19h14.55.646,searchDisc4,2020.2.10,Win32,60,,,space,0.27587,2,1,0.67506,,0,189,189,245,1,2a,17,3,43,
,,,,,,,,,,,,,,,,,,,,,,,,,,images/exp2b_trial_67_colour2_distractors43_l.png,l,1,022,001,2021-04-22_19h14.55.646,searchDisc4,2020.2.10,Win32,60,,,space,0.22684,1,1,0.508545,,0,190,190,409,1,2b,67,2,43,
,,,,,,,,,,,,,,,,,,,,,,,,,,images/exp2c_trial_59_colour1_distractors19_l.png,l,1,022,001,2021-04-22_19h14.55.646,searchDisc4,2020.2.10,Win32,60,,,space,0.1895,1,1,0.44846,,0,191,191,515,1,2c,59,1,19,
,,,,,,,,,,,,,,,,,,,,,,,,,,images/exp2c_trial_103_colour2_distractors19_l.png,l,1,022,001,2021-04-22_19h14.55.646,searchDisc4,2020.2.10,Win32,60,,,space,0.283585,1,1,0.470195,,0,192,192,559,1,2c,103,2,19,
,,,,,,,,,,,,,,,,,,,,,,,,,,images/exp1a_trial_87_colour2_distractors43_r.png,r,2,022,001,2021-04-22_19h14.55.646,searchDisc4,2020.2.10,Win32,60,,,space,0.226545,2,1,0.9367,,0,193,193,87,1,1a,87,2,43,
,,,,,,,,,,,,,,,,,,,,,,,,,,images/exp2c_trial_30_colour3_distractors1_l.png,l,1,022,001,2021-04-22_19h14.55.646,searchDisc4,2020.2.10,Win32,60,,,space,0.23458,1,1,1.181785,,0,194,194,486,1,2c,30,3,1,
,,,,,,,,,,,,,,,,,,,,,,,,,,images/exp1b_trial_74_colour0_distractors0_r.png,r,2,022,001,2021-04-22_19h14.55.646,searchDisc4,2020.2.10,Win32,60,,,space,0.24685,2,1,0.529005,,0,195,195,188,1,1b,74,0,0,
,,,,,,,,,,,,,,,,,,,,,,,,,,images/exp2b_trial_10_colour2_distractors31_r.png,r,2,022,001,2021-04-22_19h14.55.646,searchDisc4,2020.2.10,Win32,60,,,space,0.25337,2,1,0.554735,,0,196,196,352,1,2b,10,2,31,
,,,,,,,,,,,,,,,,,,,,,,,,,,images/exp2c_trial_94_colour1_distractors1_l.png,l,1,022,001,2021-04-22_19h14.55.646,searchDisc4,2020.2.10,Win32,60,,,space,0.230705,1,1,0.50134,,0,197,197,550,1,2c,94,1,1,
,,,,,,,,,,,,,,,,,,,,,,,,,,images/exp1a_trial_15_colour3_distractors19_r.png,r,2,022,001,2021-04-22_19h14.55.646,searchDisc4,2020.2.10,Win32,60,,,space,0.234565,2,1,0.585745,,0,198,198,15,1,1a,15,3,19,
,,,,,,,,,,,,,,,,,,,,,,,,,,images/exp1b_trial_53_colour3_distractors19_r.png,r,2,022,001,2021-04-22_19h14.55.646,searchDisc4,2020.2.10,Win32,60,,,space,0.2099,2,1,1.322495,,0,199,199,167,1,1b,53,3,19,
,,,,,,,,,,,,,,,,,,,,,,,,,,images/exp2b_trial_96_colour1_distractors9_l.png,l,1,022,001,2021-04-22_19h14.55.646,searchDisc4,2020.2.10,Win32,60,,,space,0.240025,1,1,0.53338,,0,200,200,438,1,2b,96,1,9,
,,,,,,,,,,,,,,,,,,,,,,,,,,images/exp1a_trial_111_colour3_distractors43_l.png,l,1,022,001,2021-04-22_19h14.55.646,searchDisc4,2020.2.10,Win32,60,,,space,0.24675,1,1,0.492815,,0,201,201,111,1,1a,111,3,43,
,,,,,,,,,,,,,,,,,,,,,,,,,,images/exp2b_trial_80_colour1_distractors31_r.png,r,2,022,001,2021-04-22_19h14.55.646,searchDisc4,2020.2.10,Win32,60,,,space,0.25496,2,1,0.5406,,0,202,202,422,1,2b,80,1,31,
,,,,,,,,,,,,,,,,,,,,,,,,,,images/exp2c_trial_11_colour2_distractors43_r.png,r,2,022,001,2021-04-22_19h14.55.646,searchDisc4,2020.2.10,Win32,60,,,space,0.242375,2,1,0.65389,,0,203,203,467,1,2c,11,2,43,
,,,,,,,,,,,,,,,,,,,,,,,,,,images/exp1a_trial_1_colour1_distractors4_r.png,r,2,022,001,2021-04-22_19h14.55.646,searchDisc4,2020.2.10,Win32,60,,,space,0.19409,2,1,0.482595,,0,204,204,1,1,1a,1,1,4,
,,,,,,,,,,,,,,,,,,,,,,,,,,images/exp1b_trial_25_colour2_distractors4_l.png,l,1,022,001,2021-04-22_19h14.55.646,searchDisc4,2020.2.10,Win32,60,,,space,0.297055,1,1,0.626835,,0,205,205,139,1,1b,25,2,4,
,,,,,,,,,,,,,,,,,,,,,,,,,,images/exp2a_trial_89_colour3_distractors4_r.png,r,2,022,001,2021-04-22_19h14.55.646,searchDisc4,2020.2.10,Win32,60,,,space,0.247705,2,1,0.72322,,0,206,206,317,1,2a,89,3,4,
,,,,,,,,,,,,,,,,,,,,,,,,,,images/exp1b_trial_102_colour2_distractors9_l.png,l,1,022,001,2021-04-22_19h14.55.646,searchDisc4,2020.2.10,Win32,60,,,space,0.198725,1,1,0.55998,,0,207,207,216,1,1b,102,2,9,
,,,,,,,,,,,,,,,,,,,,,,,,,,images/exp1a_trial_0_colour1_distractors1_r.png,r,2,022,001,2021-04-22_19h14.55.646,searchDisc4,2020.2.10,Win32,60,,,space,0.26546,2,1,0.721955,,0,208,208,0,1,1a,0,1,1,
,,,,,,,,,,,,,,,,,,,,,,,,,,images/exp1b_trial_5_colour1_distractors43_r.png,r,2,022,001,2021-04-22_19h14.55.646,searchDisc4,2020.2.10,Win32,60,,,space,0.217745,2,1,0.688225,,0,209,209,119,1,1b,5,1,43,
,,,,,,,,,,,,,,,,,,,,,,,,,,images/exp2a_trial_38_colour1_distractors1_r.png,r,2,022,001,2021-04-22_19h14.55.646,searchDisc4,2020.2.10,Win32,60,,,space,0.28845,2,1,0.41008,,0,210,210,266,1,2a,38,1,1,
,,,,,,,,,,,,,,,,,,,,,,,,,,images/exp2b_trial_50_colour3_distractors1_r.png,r,2,022,001,2021-04-22_19h14.55.646,searchDisc4,2020.2.10,Win32,60,,,space,0.25399,2,1,0.405075,,0,211,211,392,1,2b,50,3,1,
,,,,,,,,,,,,,,,,,,,,,,,,,,images/exp1a_trial_104_colour2_distractors31_l.png,l,1,022,001,2021-04-22_19h14.55.646,searchDisc4,2020.2.10,Win32,60,,,space,0.215785,1,1,0.634595,,0,212,212,104,1,1a,104,2,31,
,,,,,,,,,,,,,,,,,,,,,,,,,,images/exp1a_trial_49_colour2_distractors43_r.png,r,2,022,001,2021-04-22_19h14.55.646,searchDisc4,2020.2.10,Win32,60,,,space,0.252725,2,1,0.631515,,0,213,213,49,1,1a,49,2,43,
,,,,,,,,,,,,,,,,,,,,,,,,,,images/exp2c_trial_96_colour1_distractors9_l.png,l,1,022,001,2021-04-22_19h14.55.646,searchDisc4,2020.2.10,Win32,60,,,space,0.24378,1,1,0.450145,,0,214,214,552,1,2c,96,1,9,
,,,,,,,,,,,,,,,,,,,,,,,,,,images/exp2c_trial_52_colour3_distractors9_r.png,r,2,022,001,2021-04-22_19h14.55.646,searchDisc4,2020.2.10,Win32,60,,,space,0.267285,2,1,0.49672,,0,215,215,508,1,2c,52,3,9,
,,,,,,,,,,,,,,,,,,,,,,,,,,images/exp2a_trial_26_colour2_distractors9_l.png,l,1,022,001,2021-04-22_19h14.55.646,searchDisc4,2020.2.10,Win32,60,,,space,0.17329,1,1,0.482025,,0,216,216,254,1,2a,26,2,9,
,,,,,,,,,,,,,,,,,,,,,,,,,,images/exp2b_trial_75_colour0_distractors0_l.png,l,1,022,001,2021-04-22_19h14.55.646,searchDisc4,2020.2.10,Win32,60,,,space,0.18391,1,1,0.44016,,0,217,217,417,1,2b,75,0,0,
,,,,,,,,,,,,,,,,,,,,,,,,,,images/exp2c_trial_109_colour3_distractors19_l.png,l,1,022,001,2021-04-22_19h14.55.646,searchDisc4,2020.2.10,Win32,60,,,space,0.226635,1,1,0.5679,,0,218,218,565,1,2c,109,3,19,
,,,,,,,,,,,,,,,,,,,,,,,,,,images/exp1b_trial_41_colour1_distractors19_r.png,r,2,022,001,2021-04-22_19h14.55.646,searchDisc4,2020.2.10,Win32,60,,,space,0.19583,2,1,0.611925,,0,219,219,155,1,1b,41,1,19,
,,,,,,,,,,,,,,,,,,,,,,,,,,images/exp2b_trial_29_colour2_distractors43_l.png,l,1,022,001,2021-04-22_19h14.55.646,searchDisc4,2020.2.10,Win32,60,,,space,0.2059,1,1,0.5007,,0,220,220,371,1,2b,29,2,43,
,,,,,,,,,,,,,,,,,,,,,,,,,,images/exp2c_trial_69_colour3_distractors4_l.png,l,1,022,001,2021-04-22_19h14.55.646,searchDisc4,2020.2.10,Win32,60,,,space,0.214965,1,1,0.530435,,0,221,221,525,1,2c,69,3,4,
,,,,,,,,,,,,,,,,,,,,,,,,,,images/exp2c_trial_40_colour1_distractors9_r.png,r,2,022,001,2021-04-22_19h14.55.646,searchDisc4,2020.2.10,Win32,60,,,space,0.30501,2,1,0.45982,,0,222,222,496,1,2c,40,1,9,
,,,,,,,,,,,,,,,,,,,,,,,,,,images/exp2b_trial_86_colour2_distractors31_r.png,r,2,022,001,2021-04-22_19h14.55.646,searchDisc4,2020.2.10,Win32,60,,,space,0.24674,2,1,0.41706,,0,223,223,428,1,2b,86,2,31,
,,,,,,,,,,,,,,,,,,,,,,,,,,images/exp1b_trial_98_colour1_distractors31_l.png,l,1,022,001,2021-04-22_19h14.55.646,searchDisc4,2020.2.10,Win32,60,,,space,0.290955,1,1,0.81623,,0,224,224,212,1,1b,98,1,31,
,,,,,,,,,,,,,,,,,,,,,,,,,,images/exp2a_trial_53_colour3_distractors19_r.png,r,2,022,001,2021-04-22_19h14.55.646,searchDisc4,2020.2.10,Win32,60,,,space,0.333155,2,1,0.56927,,0,225,225,281,1,2a,53,3,19,
,,,,,,,,,,,,,,,,,,,,,,,,,,images/exp1b_trial_23_colour1_distractors43_l.png,l,1,022,001,2021-04-22_19h14.55.646,searchDisc4,2020.2.10,Win32,60,,,space,0.215135,1,1,1.484125,,0,226,226,137,1,1b,23,1,43,
,,,,,,,,,,,,,,,,,,,,,,,,,,images/exp2a_trial_79_colour1_distractors19_r.png,r,2,022,001,2021-04-22_19h14.55.646,searchDisc4,2020.2.10,Win32,60,,,space,0.30402,2,1,0.56269,,0,227,227,307,1,2a,79,1,19,
,,,,,,,,,,,,,,,,,,,,,,,,,,images/exp1b_trial_77_colour1_distractors4_r.png,r,2,022,001,2021-04-22_19h14.55.646,searchDisc4,2020.2.10,Win32,60,,,space,0.209355,2,1,0.476835,,0,228,228,191,1,1b,77,1,4,
,,,,,,,,,,,,,,,,,,,,,,,,,,images/exp1a_trial_65_colour2_distractors19_l.png,l,1,022,001,2021-04-22_19h14.55.646,searchDisc4,2020.2.10,Win32,60,,,space,0.23402,1,1,0.901175,,0,229,229,65,1,1a,65,2,19,
,,,,,,,,,,,,,,,,,,,,,,,,,,images/exp1a_trial_25_colour2_distractors4_l.png,l,1,022,001,2021-04-22_19h14.55.646,searchDisc4,2020.2.10,Win32,60,,,space,0.25861,1,1,1.025965,,0,230,230,25,1,1a,25,2,4,
,,,,,,,,,,,,,,,,,,,,,,,,,,images/exp2a_trial_30_colour3_distractors1_l.png,l,1,022,001,2021-04-22_19h14.55.646,searchDisc4,2020.2.10,Win32,60,,,space,0.247945,1,1,0.67302,,0,231,231,258,1,2a,30,3,1,
,,,,,,,,,,,,,,,,,,,,,,,,,,images/exp1b_trial_33_colour3_distractors19_l.png,l,1,022,001,2021-04-22_19h14.55.646,searchDisc4,2020.2.10,Win32,60,,,space,0.23828,1,1,1.05035,,0,232,232,147,1,1b,33,3,19,
,,,,,,,,,,,,,,,,,,,,,,,,,,images/exp2b_trial_39_colour1_distractors4_r.png,r,2,022,001,2021-04-22_19h14.55.646,searchDisc4,2020.2.10,Win32,60,,,space,0.320925,2,1,0.505805,,0,233,233,381,1,2b,39,1,4,
,,,,,,,,,,,,,,,,,,,,,,,,,,images/exp1a_trial_112_colour0_distractors0_r.png,r,2,022,001,2021-04-22_19h14.55.646,searchDisc4,2020.2.10,Win32,60,,,space,0.252415,2,1,0.541425,,0,234,234,112,1,1a,112,0,0,
,,,,,,,,,,,,,,,,,,,,,,,,,,images/exp2b_trial_97_colour1_distractors19_l.png,l,1,022,001,2021-04-22_19h14.55.646,searchDisc4,2020.2.10,Win32,60,,,space,0.25311,1,1,0.566165,,0,235,235,439,1,2b,97,1,19,
,,,,,,,,,,,,,,,,,,,,,,,,,,images/exp1b_trial_66_colour2_distractors31_l.png,l,1,022,001,2021-04-22_19h14.55.646,searchDisc4,2020.2.10,Win32,60,,,space,0.253625,1,1,0.56496,,0,236,236,180,1,1b,66,2,31,
,,,,,,,,,,,,,,,,,,,,,,,,,,images/exp1a_trial_101_colour2_distractors4_l.png,l,1,022,001,2021-04-22_19h14.55.646,searchDisc4,2020.2.10,Win32,60,,,space,0.25156,1,1,0.576665,,0,237,237,101,1,1a,101,2,4,
,,,,,,,,,,,,,,,,,,,,,,,,,,images/exp1a_trial_14_colour3_distractors9_r.png,r,2,022,001,2021-04-22_19h14.55.646,searchDisc4,2020.2.10,Win32,60,,,space,0.24839,2,1,0.485895,,0,238,238,14,1,1a,14,3,9,
,,,,,,,,,,,,,,,,,,,,,,,,,,images/exp2a_trial_95_colour1_distractors4_l.png,l,1,022,001,2021-04-22_19h14.55.646,searchDisc4,2020.2.10,Win32,60,,,space,0.2419,1,1,0.573735,space,0,239,239,323,1,2a,95,1,4,0.23012
,,,,,,,,,,,,,,,,,,,,,,,,,,images/exp2b_trial_0_colour1_distractors1_r.png,r,2,022,001,2021-04-22_19h14.55.646,searchDisc4,2020.2.10,Win32,60,,,space,0.500815,2,1,0.60798,,0,240,240,342,1,2b,0,1,1,
,,,,,,,,,,,,,,,,,,,,,,,,,,images/exp2a_trial_43_colour1_distractors43_r.png,r,2,022,001,2021-04-22_19h14.55.646,searchDisc4,2020.2.10,Win32,60,,,space,0.25249,2,1,0.441445,,0,241,241,271,1,2a,43,1,43,
,,,,,,,,,,,,,,,,,,,,,,,,,,images/exp2a_trial_46_colour2_distractors9_r.png,r,2,022,001,2021-04-22_19h14.55.646,searchDisc4,2020.2.10,Win32,60,,,space,0.19898,2,1,0.39124,,0,242,242,274,1,2a,46,2,9,
,,,,,,,,,,,,,,,,,,,,,,,,,,images/exp1a_trial_31_colour3_distractors4_l.png,l,1,022,001,2021-04-22_19h14.55.646,searchDisc4,2020.2.10,Win32,60,,,space,0.174875,2,0,0.395655,,0,243,243,31,1,1a,31,3,4,
,,,,,,,,,,,,,,,,,,,,,,,,,,images/exp1b_trial_48_colour2_distractors31_r.png,r,2,022,001,2021-04-22_19h14.55.646,searchDisc4,2020.2.10,Win32,60,,,space,0.23976,2,1,0.64757,,0,244,244,162,1,1b,48,2,31,
,,,,,,,,,,,,,,,,,,,,,,,,,,images/exp2b_trial_45_colour2_distractors4_r.png,r,2,022,001,2021-04-22_19h14.55.646,searchDisc4,2020.2.10,Win32,60,,,space,0.21968,2,1,0.5593,,0,245,245,387,1,2b,45,2,4,
,,,,,,,,,,,,,,,,,,,,,,,,,,images/exp1b_trial_1_colour1_distractors4_r.png,r,2,022,001,2021-04-22_19h14.55.646,searchDisc4,2020.2.10,Win32,60,,,space,0.21115,2,1,0.460385,,0,246,246,115,1,1b,1,1,4,
,,,,,,,,,,,,,,,,,,,,,,,,,,images/exp1a_trial_95_colour1_distractors4_l.png,l,1,022,001,2021-04-22_19h14.55.646,searchDisc4,2020.2.10,Win32,60,,,space,0.245495,1,1,0.5273,,0,247,247,95,1,1a,95,1,4,
,,,,,,,,,,,,,,,,,,,,,,,,,,images/exp2c_trial_2_colour1_distractors9_r.png,r,2,022,001,2021-04-22_19h14.55.646,searchDisc4,2020.2.10,Win32,60,,,space,0.22814,2,1,0.668235,,0,248,248,458,1,2c,2,1,9,
,,,,,,,,,,,,,,,,,,,,,,,,,,images/exp1a_trial_113_colour0_distractors0_l.png,l,1,022,001,2021-04-22_19h14.55.646,searchDisc4,2020.2.10,Win32,60,,,space,0.265185,1,1,0.429415,,0,249,249,113,1,1a,113,0,0,
,,,,,,,,,,,,,,,,,,,,,,,,,,images/exp2c_trial_4_colour1_distractors31_r.png,r,2,022,001,2021-04-22_19h14.55.646,searchDisc4,2020.2.10,Win32,60,,,space,0.256205,2,1,0.544245,,0,250,250,460,1,2c,4,1,31,
,,,,,,,,,,,,,,,,,,,,,,,,,,images/exp1a_trial_93_colour3_distractors43_r.png,r,2,022,001,2021-04-22_19h14.55.646,searchDisc4,2020.2.10,Win32,60,,,space,0.13269,2,1,0.60568,,0,251,251,93,1,1a,93,3,43,
,,,,,,,,,,,,,,,,,,,,,,,,,,images/exp1a_trial_6_colour2_distractors1_r.png,r,2,022,001,2021-04-22_19h14.55.646,searchDisc4,2020.2.10,Win32,60,,,space,0.06277,2,1,0.49285,,0,252,252,6,1,1a,6,2,1,
,,,,,,,,,,,,,,,,,,,,,,,,,,images/exp2a_trial_73_colour3_distractors43_l.png,l,1,022,001,2021-04-22_19h14.55.646,searchDisc4,2020.2.10,Win32,60,,,space,0.06725,1,1,0.5232,,0,253,253,301,1,2a,73,3,43,
,,,,,,,,,,,,,,,,,,,,,,,,,,images/exp2c_trial_98_colour1_distractors31_l.png,l,1,022,001,2021-04-22_19h14.55.646,searchDisc4,2020.2.10,Win32,60,,,space,0.15011,1,1,0.5411,,0,254,254,554,1,2c,98,1,31,
,,,,,,,,,,,,,,,,,,,,,,,,,,images/exp1b_trial_94_colour1_distractors1_l.png,l,1,022,001,2021-04-22_19h14.55.646,searchDisc4,2020.2.10,Win32,60,,,space,0.09629,1,1,0.697475,,0,255,255,208,1,1b,94,1,1,
,,,,,,,,,,,,,,,,,,,,,,,,,,images/exp2b_trial_108_colour3_distractors9_l.png,l,1,022,001,2021-04-22_19h14.55.646,searchDisc4,2020.2.10,Win32,60,,,space,0.253135,1,1,0.63834,,0,256,256,450,1,2b,108,3,9,
,,,,,,,,,,,,,,,,,,,,,,,,,,images/exp2a_trial_57_colour1_distractors4_l.png,l,1,022,001,2021-04-22_19h14.55.646,searchDisc4,2020.2.10,Win32,60,,,space,0.22806,1,1,0.567635,,0,257,257,285,1,2a,57,1,4,
,,,,,,,,,,,,,,,,,,,,,,,,,,images/exp2c_trial_19_colour1_distractors4_l.png,l,1,022,001,2021-04-22_19h14.55.646,searchDisc4,2020.2.10,Win32,60,,,space,0.23643,1,1,0.528675,,0,258,258,475,1,2c,19,1,4,
,,,,,,,,,,,,,,,,,,,,,,,,,,images/exp2b_trial_42_colour1_distractors31_r.png,r,2,022,001,2021-04-22_19h14.55.646,searchDisc4,2020.2.10,Win32,60,,,space,0.26603,2,1,0.54029,,0,259,259,384,1,2b,42,1,31,
,,,,,,,,,,,,,,,,,,,,,,,,,,images/exp1a_trial_32_colour3_distractors9_l.png,l,1,022,001,2021-04-22_19h14.55.646,searchDisc4,2020.2.10,Win32,60,,,space,0.250305,1,1,0.57617,,0,260,260,32,1,1a,32,3,9,
,,,,,,,,,,,,,,,,,,,,,,,,,,images/exp1a_trial_34_colour3_distractors31_l.png,l,1,022,001,2021-04-22_19h14.55.646,searchDisc4,2020.2.10,Win32,60,,,space,0.285095,2,0,1.43979,,0,261,261,34,1,1a,34,3,31,
,,,,,,,,,,,,,,,,,,,,,,,,,,images/exp2a_trial_51_colour3_distractors4_r.png,r,2,022,001,2021-04-22_19h14.55.646,searchDisc4,2020.2.10,Win32,60,,,space,0.2669,2,1,0.54005,,0,262,262,279,1,2a,51,3,4,
,,,,,,,,,,,,,,,,,,,,,,,,,,images/exp2a_trial_16_colour3_distractors31_r.png,r,2,022,001,2021-04-22_19h14.55.646,searchDisc4,2020.2.10,Win32,60,,,space,0.22894,2,1,0.54313,,0,263,263,244,1,2a,16,3,31,
,,,,,,,,,,,,,,,,,,,,,,,,,,images/exp2a_trial_12_colour3_distractors1_r.png,r,2,022,001,2021-04-22_19h14.55.646,searchDisc4,2020.2.10,Win32,60,,,space,0.19876,2,1,0.46955,,0,264,264,240,1,2a,12,3,1,
,,,,,,,,,,,,,,,,,,,,,,,,,,images/exp2a_trial_72_colour3_distractors31_l.png,l,1,022,001,2021-04-22_19h14.55.646,searchDisc4,2020.2.10,Win32,60,,,space,0.29031,1,1,0.49241,,0,265,265,300,1,2a,72,3,31,
,,,,,,,,,,,,,,,,,,,,,,,,,,images/exp2c_trial_57_colour1_distractors4_l.png,l,1,022,001,2021-04-22_19h14.55.646,searchDisc4,2020.2.10,Win32,60,,,space,0.26342,1,1,0.353385,,0,266,266,513,1,2c,57,1,4,
,,,,,,,,,,,,,,,,,,,,,,,,,,images/exp2a_trial_49_colour2_distractors43_r.png,r,2,022,001,2021-04-22_19h14.55.646,searchDisc4,2020.2.10,Win32,60,,,space,0.257835,2,1,0.588905,,0,267,267,277,1,2a,49,2,43,
,,,,,,,,,,,,,,,,,,,,,,,,,,images/exp1a_trial_47_colour2_distractors19_r.png,r,2,022,001,2021-04-22_19h14.55.646,searchDisc4,2020.2.10,Win32,60,,,space,0.233145,2,1,1.11964,,0,268,268,47,1,1a,47,2,19,
,,,,,,,,,,,,,,,,,,,,,,,,,,images/exp2b_trial_112_colour0_distractors0_r.png,r,2,022,001,2021-04-22_19h14.55.646,searchDisc4,2020.2.10,Win32,60,,,space,0.25635,2,1,0.479305,,0,269,269,454,1,2b,112,0,0,
,,,,,,,,,,,,,,,,,,,,,,,,,,images/exp1b_trial_12_colour3_distractors1_r.png,r,2,022,001,2021-04-22_19h14.55.646,searchDisc4,2020.2.10,Win32,60,,,space,0.252655,2,1,1.371,,0,270,270,126,1,1b,12,3,1,
,,,,,,,,,,,,,,,,,,,,,,,,,,images/exp2b_trial_93_colour3_distractors43_r.png,r,2,022,001,2021-04-22_19h14.55.646,searchDisc4,2020.2.10,Win32,60,,,space,0.32016,2,1,0.752645,,0,271,271,435,1,2b,93,3,43,
,,,,,,,,,,,,,,,,,,,,,,,,,,images/exp2c_trial_86_colour2_distractors31_r.png,r,2,022,001,2021-04-22_19h14.55.646,searchDisc4,2020.2.10,Win32,60,,,space,0.20348,2,1,0.894745,,0,272,272,542,1,2c,86,2,31,
,,,,,,,,,,,,,,,,,,,,,,,,,,images/exp2a_trial_21_colour1_distractors19_l.png,l,1,022,001,2021-04-22_19h14.55.646,searchDisc4,2020.2.10,Win32,60,,,space,0.2291,1,1,0.58034,,0,273,273,249,1,2a,21,1,19,
,,,,,,,,,,,,,,,,,,,,,,,,,,images/exp1b_trial_106_colour3_distractors1_l.png,l,1,022,001,2021-04-22_19h14.55.646,searchDisc4,2020.2.10,Win32,60,,,space,0.227985,1,1,0.84881,,0,274,274,220,1,1b,106,3,1,
,,,,,,,,,,,,,,,,,,,,,,,,,,images/exp2c_trial_72_colour3_distractors31_l.png,l,1,022,001,2021-04-22_19h14.55.646,searchDisc4,2020.2.10,Win32,60,,,space,0.269305,1,1,0.50271,,0,275,275,528,1,2c,72,3,31,
,,,,,,,,,,,,,,,,,,,,,,,,,,images/exp2b_trial_12_colour3_distractors1_r.png,r,2,022,001,2021-04-22_19h14.55.646,searchDisc4,2020.2.10,Win32,60,,,space,0.24081,2,1,0.855355,,0,276,276,354,1,2b,12,3,1,
,,,,,,,,,,,,,,,,,,,,,,,,,,images/exp2a_trial_50_colour3_distractors1_r.png,r,2,022,001,2021-04-22_19h14.55.646,searchDisc4,2020.2.10,Win32,60,,,space,0.32924,2,1,0.46244,,0,277,277,278,1,2a,50,3,1,
,,,,,,,,,,,,,,,,,,,,,,,,,,images/exp2b_trial_11_colour2_distractors43_r.png,r,2,022,001,2021-04-22_19h14.55.646,searchDisc4,2020.2.10,Win32,60,,,space,0.228315,2,1,0.519515,,0,278,278,353,1,2b,11,2,43,
,,,,,,,,,,,,,,,,,,,,,,,,,,images/exp2b_trial_51_colour3_distractors4_r.png,r,2,022,001,2021-04-22_19h14.55.646,searchDisc4,2020.2.10,Win32,60,,,space,0.21218,2,1,0.69599,,0,279,279,393,1,2b,51,3,4,
,,,,,,,,,,,,,,,,,,,,,,,,,,images/exp2b_trial_106_colour3_distractors1_l.png,l,1,022,001,2021-04-22_19h14.55.646,searchDisc4,2020.2.10,Win32,60,,,space,0.294325,1,1,1.31675,,0,280,280,448,1,2b,106,3,1,
,,,,,,,,,,,,,,,,,,,,,,,,,,images/exp2b_trial_60_colour1_distractors31_l.png,l,1,022,001,2021-04-22_19h14.55.646,searchDisc4,2020.2.10,Win32,60,,,space,0.260435,1,1,0.496965,,0,281,281,402,1,2b,60,1,31,
,,,,,,,,,,,,,,,,,,,,,,,,,,images/exp1a_trial_71_colour3_distractors19_l.png,l,1,022,001,2021-04-22_19h14.55.646,searchDisc4,2020.2.10,Win32,60,,,space,0.220615,1,1,0.74324,,0,282,282,71,1,1a,71,3,19,
,,,,,,,,,,,,,,,,,,,,,,,,,,images/exp2b_trial_9_colour2_distractors19_r.png,r,2,022,001,2021-04-22_19h14.55.646,searchDisc4,2020.2.10,Win32,60,,,space,0.287525,2,1,0.47978,,0,283,283,351,1,2b,9,2,19,
,,,,,,,,,,,,,,,,,,,,,,,,,,images/exp2c_trial_48_colour2_distractors31_r.png,r,2,022,001,2021-04-22_19h14.55.646,searchDisc4,2020.2.10,Win32,60,,,space,0.230865,2,1,0.518965,,0,284,284,504,1,2c,48,2,31,
,,,,,,,,,,,,,,,,,,,,,,,,,,images/exp1b_trial_70_colour3_distractors9_l.png,l,1,022,001,2021-04-22_19h14.55.646,searchDisc4,2020.2.10,Win32,60,,,space,0.3238,1,1,0.6191,,0,285,285,184,1,1b,70,3,9,
,,,,,,,,,,,,,,,,,,,,,,,,,,images/exp1a_trial_36_colour0_distractors0_r.png,r,2,022,001,2021-04-22_19h14.55.646,searchDisc4,2020.2.10,Win32,60,,,space,0.250265,2,1,0.577355,,0,286,286,36,1,1a,36,0,0,
,,,,,,,,,,,,,,,,,,,,,,,,,,images/exp2a_trial_33_colour3_distractors19_l.png,l,1,022,001,2021-04-22_19h14.55.646,searchDisc4,2020.2.10,Win32,60,,,space,0.21283,1,1,0.534045,,0,287,287,261,1,2a,33,3,19,
,,,,,,,,,,,,,,,,,,,,,,,,,,images/exp1b_trial_22_colour1_distractors31_l.png,l,1,022,001,2021-04-22_19h14.55.646,searchDisc4,2020.2.10,Win32,60,,,space,0.181985,1,1,0.96864,,0,288,288,136,1,1b,22,1,31,
,,,,,,,,,,,,,,,,,,,,,,,,,,images/exp2a_trial_37_colour0_distractors0_l.png,l,1,022,001,2021-04-22_19h14.55.646,searchDisc4,2020.2.10,Win32,60,,,space,0.24467,1,1,0.41456,,0,289,289,265,1,2a,37,0,0,
,,,,,,,,,,,,,,,,,,,,,,,,,,images/exp1b_trial_110_colour3_distractors31_l.png,l,1,022,001,2021-04-22_19h14.55.646,searchDisc4,2020.2.10,Win32,60,,,space,0.2228,1,1,2.1848,,0,290,290,224,1,1b,110,3,31,
,,,,,,,,,,,,,,,,,,,,,,,,,,images/exp2c_trial_90_colour3_distractors9_r.png,r,2,022,001,2021-04-22_19h14.55.646,searchDisc4,2020.2.10,Win32,60,,,space,0.21221,2,1,0.89741,,0,291,291,546,1,2c,90,3,9,
,,,,,,,,,,,,,,,,,,,,,,,,,,images/exp2c_trial_64_colour2_distractors9_l.png,l,1,022,001,2021-04-22_19h14.55.646,searchDisc4,2020.2.10,Win32,60,,,space,0.205795,1,1,0.833535,,0,292,292,520,1,2c,64,2,9,
,,,,,,,,,,,,,,,,,,,,,,,,,,images/exp2a_trial_70_colour3_distractors9_l.png,l,1,022,001,2021-04-22_19h14.55.646,searchDisc4,2020.2.10,Win32,60,,,space,0.29653,1,1,0.542625,,0,293,293,298,1,2a,70,3,9,
,,,,,,,,,,,,,,,,,,,,,,,,,,images/exp2b_trial_59_colour1_distractors19_l.png,l,1,022,001,2021-04-22_19h14.55.646,searchDisc4,2020.2.10,Win32,60,,,space,0.1744,1,1,0.42381,,0,294,294,401,1,2b,59,1,19,
,,,,,,,,,,,,,,,,,,,,,,,,,,images/exp2c_trial_74_colour0_distractors0_r.png,r,2,022,001,2021-04-22_19h14.55.646,searchDisc4,2020.2.10,Win32,60,,,space,0.194825,2,1,0.38814,,0,295,295,530,1,2c,74,0,0,
,,,,,,,,,,,,,,,,,,,,,,,,,,images/exp2b_trial_109_colour3_distractors19_l.png,l,1,022,001,2021-04-22_19h14.55.646,searchDisc4,2020.2.10,Win32,60,,,space,0.186265,1,1,0.488605,,0,296,296,451,1,2b,109,3,19,
,,,,,,,,,,,,,,,,,,,,,,,,,,images/exp2c_trial_24_colour2_distractors1_l.png,l,1,022,001,2021-04-22_19h14.55.646,searchDisc4,2020.2.10,Win32,60,,,space,0.20691,1,1,0.4074,,0,297,297,480,1,2c,24,2,1,
,,,,,,,,,,,,,,,,,,,,,,,,,,images/exp2a_trial_77_colour1_distractors4_r.png,r,2,022,001,2021-04-22_19h14.55.646,searchDisc4,2020.2.10,Win32,60,,,space,0.200305,2,1,0.532305,,0,298,298,305,1,2a,77,1,4,
,,,,,,,,,,,,,,,,,,,,,,,,,,images/exp1b_trial_2_colour1_distractors9_r.png,r,2,022,001,2021-04-22_19h14.55.646,searchDisc4,2020.2.10,Win32,60,,,space,0.18696,2,1,0.67215,space,0,299,299,116,1,1b,2,1,9,0.11684
,,,,,,,,,,,,,,,,,,,,,,,,,,images/exp2a_trial_27_colour2_distractors19_l.png,l,1,022,001,2021-04-22_19h14.55.646,searchDisc4,2020.2.10,Win32,60,,,space,0.48381,1,1,0.67729,,0,300,300,255,1,2a,27,2,19,
,,,,,,,,,,,,,,,,,,,,,,,,,,images/exp1a_trial_82_colour2_distractors1_r.png,r,2,022,001,2021-04-22_19h14.55.646,searchDisc4,2020.2.10,Win32,60,,,space,0.24539,2,1,0.59832,,0,301,301,82,1,1a,82,2,1,
,,,,,,,,,,,,,,,,,,,,,,,,,,images/exp2c_trial_85_colour2_distractors19_r.png,r,2,022,001,2021-04-22_19h14.55.646,searchDisc4,2020.2.10,Win32,60,,,space,0.21702,2,1,0.44787,,0,302,302,541,1,2c,85,2,19,
,,,,,,,,,,,,,,,,,,,,,,,,,,images/exp1a_trial_86_colour2_distractors31_r.png,r,2,022,001,2021-04-22_19h14.55.646,searchDisc4,2020.2.10,Win32,60,,,space,0.20132,1,0,0.44828,,0,303,303,86,1,1a,86,2,31,
,,,,,,,,,,,,,,,,,,,,,,,,,,images/exp1a_trial_57_colour1_distractors4_l.png,l,1,022,001,2021-04-22_19h14.55.646,searchDisc4,2020.2.10,Win32,60,,,space,0.34706,1,1,0.575405,,0,304,304,57,1,1a,57,1,4,
,,,,,,,,,,,,,,,,,,,,,,,,,,images/exp2a_trial_78_colour1_distractors9_r.png,r,2,022,001,2021-04-22_19h14.55.646,searchDisc4,2020.2.10,Win32,60,,,space,0.300675,2,1,0.57506,,0,305,305,306,1,2a,78,1,9,
,,,,,,,,,,,,,,,,,,,,,,,,,,images/exp2c_trial_79_colour1_distractors19_r.png,r,2,022,001,2021-04-22_19h14.55.646,searchDisc4,2020.2.10,Win32,60,,,space,0.233735,2,1,0.474995,,0,306,306,535,1,2c,79,1,19,
,,,,,,,,,,,,,,,,,,,,,,,,,,images/exp1b_trial_42_colour1_distractors31_r.png,r,2,022,001,2021-04-22_19h14.55.646,searchDisc4,2020.2.10,Win32,60,,,space,0.199625,2,1,0.50702,,0,307,307,156,1,1b,42,1,31,
,,,,,,,,,,,,,,,,,,,,,,,,,,images/exp2c_trial_9_colour2_distractors19_r.png,r,2,022,001,2021-04-22_19h14.55.646,searchDisc4,2020.2.10,Win32,60,,,space,0.28405,2,1,0.418395,,0,308,308,465,1,2c,9,2,19,
,,,,,,,,,,,,,,,,,,,,,,,,,,images/exp2a_trial_100_colour2_distractors1_l.png,l,1,022,001,2021-04-22_19h14.55.646,searchDisc4,2020.2.10,Win32,60,,,space,0.173995,1,1,0.376015,,0,309,309,328,1,2a,100,2,1,
,,,,,,,,,,,,,,,,,,,,,,,,,,images/exp2b_trial_94_colour1_distractors1_l.png,l,1,022,001,2021-04-22_19h14.55.646,searchDisc4,2020.2.10,Win32,60,,,space,0.224555,1,1,0.39056,,0,310,310,436,1,2b,94,1,1,
,,,,,,,,,,,,,,,,,,,,,,,,,,images/exp2a_trial_106_colour3_distractors1_l.png,l,1,022,001,2021-04-22_19h14.55.646,searchDisc4,2020.2.10,Win32,60,,,space,0.22585,1,1,0.40453,,0,311,311,334,1,2a,106,3,1,
,,,,,,,,,,,,,,,,,,,,,,,,,,images/exp2a_trial_86_colour2_distractors31_r.png,r,2,022,001,2021-04-22_19h14.55.646,searchDisc4,2020.2.10,Win32,60,,,space,0.16692,2,1,0.68881,,0,312,312,314,1,2a,86,2,31,
,,,,,,,,,,,,,,,,,,,,,,,,,,images/exp1b_trial_73_colour3_distractors43_l.png,l,1,022,001,2021-04-22_19h14.55.646,searchDisc4,2020.2.10,Win32,60,,,space,0.23218,1,1,1.29632,,0,313,313,187,1,1b,73,3,43,
,,,,,,,,,,,,,,,,,,,,,,,,,,images/exp2b_trial_56_colour1_distractors1_l.png,l,1,022,001,2021-04-22_19h14.55.646,searchDisc4,2020.2.10,Win32,60,,,space,0.251915,1,1,0.481485,,0,314,314,398,1,2b,56,1,1,
,,,,,,,,,,,,,,,,,,,,,,,,,,images/exp1b_trial_36_colour0_distractors0_r.png,r,2,022,001,2021-04-22_19h14.55.646,searchDisc4,2020.2.10,Win32,60,,,space,0.232325,2,1,0.486515,,0,315,315,150,1,1b,36,0,0,
,,,,,,,,,,,,,,,,,,,,,,,,,,images/exp2c_trial_1_colour1_distractors4_r.png,r,2,022,001,2021-04-22_19h14.55.646,searchDisc4,2020.2.10,Win32,60,,,space,0.16333,2,1,0.447405,,0,316,316,457,1,2c,1,1,4,
,,,,,,,,,,,,,,,,,,,,,,,,,,images/exp2c_trial_55_colour3_distractors43_r.png,r,2,022,001,2021-04-22_19h14.55.646,searchDisc4,2020.2.10,Win32,60,,,space,0.197035,2,1,0.616215,,0,317,317,511,1,2c,55,3,43,
,,,,,,,,,,,,,,,,,,,,,,,,,,images/exp2b_trial_32_colour3_distractors9_l.png,l,1,022,001,2021-04-22_19h14.55.646,searchDisc4,2020.2.10,Win32,60,,,space,0.209125,1,1,0.716175,,0,318,318,374,1,2b,32,3,9,
,,,,,,,,,,,,,,,,,,,,,,,,,,images/exp2b_trial_21_colour1_distractors19_l.png,l,1,022,001,2021-04-22_19h14.55.646,searchDisc4,2020.2.10,Win32,60,,,space,0.20271,1,1,0.58868,,0,319,319,363,1,2b,21,1,19,
,,,,,,,,,,,,,,,,,,,,,,,,,,images/exp2b_trial_26_colour2_distractors9_l.png,l,1,022,001,2021-04-22_19h14.55.646,searchDisc4,2020.2.10,Win32,60,,,space,0.198535,1,1,0.570465,,0,320,320,368,1,2b,26,2,9,
,,,,,,,,,,,,,,,,,,,,,,,,,,images/exp2b_trial_110_colour3_distractors31_l.png,l,1,022,001,2021-04-22_19h14.55.646,searchDisc4,2020.2.10,Win32,60,,,space,0.23296,1,1,0.55273,,0,321,321,452,1,2b,110,3,31,
,,,,,,,,,,,,,,,,,,,,,,,,,,images/exp1a_trial_35_colour3_distractors43_l.png,l,1,022,001,2021-04-22_19h14.55.646,searchDisc4,2020.2.10,Win32,60,,,space,0.21785,1,1,0.34853,,0,322,322,35,1,1a,35,3,43,
,,,,,,,,,,,,,,,,,,,,,,,,,,images/exp1b_trial_64_colour2_distractors9_l.png,l,1,022,001,2021-04-22_19h14.55.646,searchDisc4,2020.2.10,Win32,60,,,space,0.170145,1,1,0.61444,,0,323,323,178,1,1b,64,2,9,
,,,,,,,,,,,,,,,,,,,,,,,,,,images/exp2a_trial_91_colour3_distractors19_r.png,r,2,022,001,2021-04-22_19h14.55.646,searchDisc4,2020.2.10,Win32,60,,,space,0.09848,2,1,0.5014,,0,324,324,319,1,2a,91,3,19,
,,,,,,,,,,,,,,,,,,,,,,,,,,images/exp2c_trial_17_colour3_distractors43_r.png,r,2,022,001,2021-04-22_19h14.55.646,searchDisc4,2020.2.10,Win32,60,,,space,0.138815,2,1,0.497805,,0,325,325,473,1,2c,17,3,43,
,,,,,,,,,,,,,,,,,,,,,,,,,,images/exp2a_trial_108_colour3_distractors9_l.png,l,1,022,001,2021-04-22_19h14.55.646,searchDisc4,2020.2.10,Win32,60,,,space,0.113195,2,0,0.409125,,0,326,326,336,1,2a,108,3,9,
,,,,,,,,,,,,,,,,,,,,,,,,,,images/exp2b_trial_63_colour2_distractors4_l.png,l,1,022,001,2021-04-22_19h14.55.646,searchDisc4,2020.2.10,Win32,60,,,space,0.448015,1,1,0.68257,,0,327,327,405,1,2b,63,2,4,
,,,,,,,,,,,,,,,,,,,,,,,,,,images/exp1a_trial_69_colour3_distractors4_l.png,l,1,022,001,2021-04-22_19h14.55.646,searchDisc4,2020.2.10,Win32,60,,,space,0.21552,1,1,0.536105,,0,328,328,69,1,1a,69,3,4,
,,,,,,,,,,,,,,,,,,,,,,,,,,images/exp2b_trial_81_colour1_distractors43_r.png,r,2,022,001,2021-04-22_19h14.55.646,searchDisc4,2020.2.10,Win32,60,,,space,0.207405,2,1,0.53995,,0,329,329,423,1,2b,81,1,43,
,,,,,,,,,,,,,,,,,,,,,,,,,,images/exp1b_trial_8_colour2_distractors9_r.png,r,2,022,001,2021-04-22_19h14.55.646,searchDisc4,2020.2.10,Win32,60,,,space,0.18951,2,1,0.57873,,0,330,330,122,1,1b,8,2,9,
,,,,,,,,,,,,,,,,,,,,,,,,,,images/exp2a_trial_64_colour2_distractors9_l.png,l,1,022,001,2021-04-22_19h14.55.646,searchDisc4,2020.2.10,Win32,60,,,space,0.173435,1,1,0.511835,,0,331,331,292,1,2a,64,2,9,
,,,,,,,,,,,,,,,,,,,,,,,,,,images/exp1b_trial_16_colour3_distractors31_r.png,r,2,022,001,2021-04-22_19h14.55.646,searchDisc4,2020.2.10,Win32,60,,,space,0.16173,2,1,0.962075,,0,332,332,130,1,1b,16,3,31,
,,,,,,,,,,,,,,,,,,,,,,,,,,images/exp1b_trial_99_colour1_distractors43_l.png,l,1,022,001,2021-04-22_19h14.55.646,searchDisc4,2020.2.10,Win32,60,,,space,0.199875,1,1,0.54512,,0,333,333,213,1,1b,99,1,43,
,,,,,,,,,,,,,,,,,,,,,,,,,,images/exp1a_trial_108_colour3_distractors9_l.png,l,1,022,001,2021-04-22_19h14.55.646,searchDisc4,2020.2.10,Win32,60,,,space,0.17906,1,1,0.54262,,0,334,334,108,1,1a,108,3,9,
,,,,,,,,,,,,,,,,,,,,,,,,,,images/exp2a_trial_109_colour3_distractors19_l.png,l,1,022,001,2021-04-22_19h14.55.646,searchDisc4,2020.2.10,Win32,60,,,space,0.19098,1,1,0.453715,,0,335,335,337,1,2a,109,3,19,
,,,,,,,,,,,,,,,,,,,,,,,,,,images/exp1a_trial_4_colour1_distractors31_r.png,r,2,022,001,2021-04-22_19h14.55.646,searchDisc4,2020.2.10,Win32,60,,,space,0.12613,2,1,0.437135,,0,336,336,4,1,1a,4,1,31,
,,,,,,,,,,,,,,,,,,,,,,,,,,images/exp1a_trial_12_colour3_distractors1_r.png,r,2,022,001,2021-04-22_19h14.55.646,searchDisc4,2020.2.10,Win32,60,,,space,0.20135,2,1,0.62826,,0,337,337,12,1,1a,12,3,1,
,,,,,,,,,,,,,,,,,,,,,,,,,,images/exp1b_trial_95_colour1_distractors4_l.png,l,1,022,001,2021-04-22_19h14.55.646,searchDisc4,2020.2.10,Win32,60,,,space,0.131465,1,1,0.652775,,0,338,338,209,1,1b,95,1,4,
,,,,,,,,,,,,,,,,,,,,,,,,,,images/exp1b_trial_54_colour3_distractors31_r.png,r,2,022,001,2021-04-22_19h14.55.646,searchDisc4,2020.2.10,Win32,60,,,space,0.17774,2,1,1.275985,,0,339,339,168,1,1b,54,3,31,
,,,,,,,,,,,,,,,,,,,,,,,,,,images/exp2c_trial_66_colour2_distractors31_l.png,l,1,022,001,2021-04-22_19h14.55.646,searchDisc4,2020.2.10,Win32,60,,,space,0.285635,1,1,0.487535,,0,340,340,522,1,2c,66,2,31,
,,,,,,,,,,,,,,,,,,,,,,,,,,images/exp1b_trial_51_colour3_distractors4_r.png,r,2,022,001,2021-04-22_19h14.55.646,searchDisc4,2020.2.10,Win32,60,,,space,0.203495,2,1,0.79896,,0,341,341,165,1,1b,51,3,4,
,,,,,,,,,,,,,,,,,,,,,,,,,,images/exp1b_trial_55_colour3_distractors43_r.png,r,2,022,001,2021-04-22_19h14.55.646,searchDisc4,2020.2.10,Win32,60,,,space,0.1664,2,1,1.403815,,0,342,342,169,1,1b,55,3,43,
,,,,,,,,,,,,,,,,,,,,,,,,,,images/exp1b_trial_97_colour1_distractors19_l.png,l,1,022,001,2021-04-22_19h14.55.646,searchDisc4,2020.2.10,Win32,60,,,space,0.19238,1,1,0.517605,,0,343,343,211,1,1b,97,1,19,
,,,,,,,,,,,,,,,,,,,,,,,,,,images/exp1a_trial_85_colour2_distractors19_r.png,r,2,022,001,2021-04-22_19h14.55.646,searchDisc4,2020.2.10,Win32,60,,,space,0.25231,2,1,0.842065,,0,344,344,85,1,1a,85,2,19,
,,,,,,,,,,,,,,,,,,,,,,,,,,images/exp2b_trial_23_colour1_distractors43_l.png,l,1,022,001,2021-04-22_19h14.55.646,searchDisc4,2020.2.10,Win32,60,,,space,0.20758,1,1,0.602135,,0,345,345,365,1,2b,23,1,43,
,,,,,,,,,,,,,,,,,,,,,,,,,,images/exp2b_trial_107_colour3_distractors4_l.png,l,1,022,001,2021-04-22_19h14.55.646,searchDisc4,2020.2.10,Win32,60,,,space,0.29789,1,1,0.91068,,0,346,346,449,1,2b,107,3,4,
,,,,,,,,,,,,,,,,,,,,,,,,,,images/exp1b_trial_6_colour2_distractors1_r.png,r,2,022,001,2021-04-22_19h14.55.646,searchDisc4,2020.2.10,Win32,60,,,space,0.17962,2,1,0.614435,,0,347,347,120,1,1b,6,2,1,
,,,,,,,,,,,,,,,,,,,,,,,,,,images/exp1a_trial_70_colour3_distractors9_l.png,l,1,022,001,2021-04-22_19h14.55.646,searchDisc4,2020.2.10,Win32,60,,,space,0.147815,1,1,0.512945,,0,348,348,70,1,1a,70,3,9,
,,,,,,,,,,,,,,,,,,,,,,,,,,images/exp2a_trial_52_colour3_distractors9_r.png,r,2,022,001,2021-04-22_19h14.55.646,searchDisc4,2020.2.10,Win32,60,,,space,0.135115,2,1,0.457425,,0,349,349,280,1,2a,52,3,9,
,,,,,,,,,,,,,,,,,,,,,,,,,,images/exp1a_trial_13_colour3_distractors4_r.png,r,2,022,001,2021-04-22_19h14.55.646,searchDisc4,2020.2.10,Win32,60,,,space,0.133545,2,1,0.42632,,0,350,350,13,1,1a,13,3,4,
,,,,,,,,,,,,,,,,,,,,,,,,,,images/exp2a_trial_10_colour2_distractors31_r.png,r,2,022,001,2021-04-22_19h14.55.646,searchDisc4,2020.2.10,Win32,60,,,space,0.10828,2,1,0.46185,,0,351,351,238,1,2a,10,2,31,
,,,,,,,,,,,,,,,,,,,,,,,,,,images/exp1a_trial_40_colour1_distractors9_r.png,r,2,022,001,2021-04-22_19h14.55.646,searchDisc4,2020.2.10,Win32,60,,,space,0.1424,2,1,0.60198,,0,352,352,40,1,1a,40,1,9,
,,,,,,,,,,,,,,,,,,,,,,,,,,images/exp2a_trial_82_colour2_distractors1_r.png,r,2,022,001,2021-04-22_19h14.55.646,searchDisc4,2020.2.10,Win32,60,,,space,0.12883,2,1,0.440175,,0,353,353,310,1,2a,82,2,1,
,,,,,,,,,,,,,,,,,,,,,,,,,,images/exp1a_trial_100_colour2_distractors1_l.png,l,1,022,001,2021-04-22_19h14.55.646,searchDisc4,2020.2.10,Win32,60,,,space,0.11159,2,0,0.41988,,0,354,354,100,1,1a,100,2,1,
,,,,,,,,,,,,,,,,,,,,,,,,,,images/exp1a_trial_22_colour1_distractors31_l.png,l,1,022,001,2021-04-22_19h14.55.646,searchDisc4,2020.2.10,Win32,60,,,space,0.2523,1,1,0.560415,,0,355,355,22,1,1a,22,1,31,
,,,,,,,,,,,,,,,,,,,,,,,,,,images/exp2a_trial_28_colour2_distractors31_l.png,l,1,022,001,2021-04-22_19h14.55.646,searchDisc4,2020.2.10,Win32,60,,,space,0.149915,1,1,0.41472,,0,356,356,256,1,2a,28,2,31,
,,,,,,,,,,,,,,,,,,,,,,,,,,images/exp2a_trial_19_colour1_distractors4_l.png,l,1,022,001,2021-04-22_19h14.55.646,searchDisc4,2020.2.10,Win32,60,,,space,0.108395,1,1,0.396765,,0,357,357,247,1,2a,19,1,4,
,,,,,,,,,,,,,,,,,,,,,,,,,,images/exp1b_trial_92_colour3_distractors31_r.png,r,2,022,001,2021-04-22_19h14.55.646,searchDisc4,2020.2.10,Win32,60,,,space,0.07815,2,1,0.558155,,0,358,358,206,1,1b,92,3,31,
,,,,,,,,,,,,,,,,,,,,,,,,,,images/exp2c_trial_5_colour1_distractors43_r.png,r,2,022,001,2021-04-22_19h14.55.646,searchDisc4,2020.2.10,Win32,60,,,space,0.12045,2,1,0.65803,space,0,359,359,461,1,2c,5,1,43,0.061605
,,,,,,,,,,,,,,,,,,,,,,,,,,images/exp2b_trial_83_colour2_distractors4_r.png,r,2,022,001,2021-04-22_19h14.55.646,searchDisc4,2020.2.10,Win32,60,,,space,0.69528,2,1,0.49056,,0,360,360,425,1,2b,83,2,4,
,,,,,,,,,,,,,,,,,,,,,,,,,,images/exp2b_trial_4_colour1_distractors31_r.png,r,2,022,001,2021-04-22_19h14.55.646,searchDisc4,2020.2.10,Win32,60,,,space,0.070375,2,1,0.436155,,0,361,361,346,1,2b,4,1,31,
,,,,,,,,,,,,,,,,,,,,,,,,,,images/exp1b_trial_9_colour2_distractors19_r.png,r,2,022,001,2021-04-22_19h14.55.646,searchDisc4,2020.2.10,Win32,60,,,space,0.04654,2,1,0.773455,,0,362,362,123,1,1b,9,2,19,
,,,,,,,,,,,,,,,,,,,,,,,,,,images/exp2a_trial_105_colour2_distractors43_l.png,l,1,022,001,2021-04-22_19h14.55.646,searchDisc4,2020.2.10,Win32,60,,,space,0.038025,1,1,0.70383,,0,363,363,333,1,2a,105,2,43,
,,,,,,,,,,,,,,,,,,,,,,,,,,images/exp2b_trial_77_colour1_distractors4_r.png,r,2,022,001,2021-04-22_19h14.55.646,searchDisc4,2020.2.10,Win32,60,,,space,0.095065,2,1,0.5933,,0,364,364,419,1,2b,77,1,4,
,,,,,,,,,,,,,,,,,,,,,,,,,,images/exp1b_trial_17_colour3_distractors43_r.png,r,2,022,001,2021-04-22_19h14.55.646,searchDisc4,2020.2.10,Win32,60,,,space,0.118335,2,1,0.91873,,0,365,365,131,1,1b,17,3,43,
,,,,,,,,,,,,,,,,,,,,,,,,,,images/exp2b_trial_36_colour0_distractors0_r.png,r,2,022,001,2021-04-22_19h14.55.646,searchDisc4,2020.2.10,Win32,60,,,space,0.11376,2,1,0.442285,,0,366,366,378,1,2b,36,0,0,
,,,,,,,,,,,,,,,,,,,,,,,,,,images/exp2a_trial_6_colour2_distractors1_r.png,r,2,022,001,2021-04-22_19h14.55.646,searchDisc4,2020.2.10,Win32,60,,,space,0.05907,2,1,0.42021,,0,367,367,234,1,2a,6,2,1,
,,,,,,,,,,,,,,,,,,,,,,,,,,images/exp1b_trial_96_colour1_distractors9_l.png,l,1,022,001,2021-04-22_19h14.55.646,searchDisc4,2020.2.10,Win32,60,,,space,0.04646,1,1,0.598725,,0,368,368,210,1,1b,96,1,9,
,,,,,,,,,,,,,,,,,,,,,,,,,,images/exp2b_trial_40_colour1_distractors9_r.png,r,2,022,001,2021-04-22_19h14.55.646,searchDisc4,2020.2.10,Win32,60,,,space,0.044615,2,1,0.831675,,0,369,369,382,1,2b,40,1,9,
,,,,,,,,,,,,,,,,,,,,,,,,,,images/exp1b_trial_14_colour3_distractors9_r.png,r,2,022,001,2021-04-22_19h14.55.646,searchDisc4,2020.2.10,Win32,60,,,space,0.108135,2,1,1.39858,,0,370,370,128,1,1b,14,3,9,
,,,,,,,,,,,,,,,,,,,,,,,,,,images/exp2b_trial_64_colour2_distractors9_l.png,l,1,022,001,2021-04-22_19h14.55.646,searchDisc4,2020.2.10,Win32,60,,,space,0.34982,1,1,0.59564,,0,371,371,406,1,2b,64,2,9,
,,,,,,,,,,,,,,,,,,,,,,,,,,images/exp1b_trial_32_colour3_distractors9_l.png,l,1,022,001,2021-04-22_19h14.55.646,searchDisc4,2020.2.10,Win32,60,,,space,0.27619,1,1,1.25508,,0,372,372,146,1,1b,32,3,9,
,,,,,,,,,,,,,,,,,,,,,,,,,,images/exp2a_trial_7_colour2_distractors4_r.png,r,2,022,001,2021-04-22_19h14.55.646,searchDisc4,2020.2.10,Win32,60,,,space,0.23421,2,1,0.67476,,0,373,373,235,1,2a,7,2,4,
,,,,,,,,,,,,,,,,,,,,,,,,,,images/exp2a_trial_55_colour3_distractors43_r.png,r,2,022,001,2021-04-22_19h14.55.646,searchDisc4,2020.2.10,Win32,60,,,space,0.20627,2,1,0.60304,,0,374,374,283,1,2a,55,3,43,
,,,,,,,,,,,,,,,,,,,,,,,,,,images/exp2b_trial_30_colour3_distractors1_l.png,l,1,022,001,2021-04-22_19h14.55.646,searchDisc4,2020.2.10,Win32,60,,,space,0.23808,1,1,0.84495,,0,375,375,372,1,2b,30,3,1,
,,,,,,,,,,,,,,,,,,,,,,,,,,images/exp1b_trial_29_colour2_distractors43_l.png,l,1,022,001,2021-04-22_19h14.55.646,searchDisc4,2020.2.10,Win32,60,,,space,0.222755,1,1,0.68701,,0,376,376,143,1,1b,29,2,43,
,,,,,,,,,,,,,,,,,,,,,,,,,,images/exp2c_trial_7_colour2_distractors4_r.png,r,2,022,001,2021-04-22_19h14.55.646,searchDisc4,2020.2.10,Win32,60,,,space,0.216915,2,1,0.69418,,0,377,377,463,1,2c,7,2,4,
,,,,,,,,,,,,,,,,,,,,,,,,,,images/exp2a_trial_56_colour1_distractors1_l.png,l,1,022,001,2021-04-22_19h14.55.646,searchDisc4,2020.2.10,Win32,60,,,space,0.194335,1,1,0.64591,,0,378,378,284,1,2a,56,1,1,
,,,,,,,,,,,,,,,,,,,,,,,,,,images/exp2b_trial_99_colour1_distractors43_l.png,l,1,022,001,2021-04-22_19h14.55.646,searchDisc4,2020.2.10,Win32,60,,,space,0.1835,1,1,0.542805,,0,379,379,441,1,2b,99,1,43,
,,,,,,,,,,,,,,,,,,,,,,,,,,images/exp1b_trial_27_colour2_distractors19_l.png,l,1,022,001,2021-04-22_19h14.55.646,searchDisc4,2020.2.10,Win32,60,,,space,0.23363,1,1,0.51032,,0,380,380,141,1,1b,27,2,19,
,,,,,,,,,,,,,,,,,,,,,,,,,,images/exp2c_trial_60_colour1_distractors31_l.png,l,1,022,001,2021-04-22_19h14.55.646,searchDisc4,2020.2.10,Win32,60,,,space,0.107165,1,1,0.51204,,0,381,381,516,1,2c,60,1,31,
,,,,,,,,,,,,,,,,,,,,,,,,,,images/exp1a_trial_42_colour1_distractors31_r.png,r,2,022,001,2021-04-22_19h14.55.646,searchDisc4,2020.2.10,Win32,60,,,space,0.103595,2,1,0.61874,,0,382,382,42,1,1a,42,1,31,
,,,,,,,,,,,,,,,,,,,,,,,,,,images/exp2c_trial_107_colour3_distractors4_l.png,l,1,022,001,2021-04-22_19h14.55.646,searchDisc4,2020.2.10,Win32,60,,,space,0.14091,1,1,0.613265,,0,383,383,563,1,2c,107,3,4,
,,,,,,,,,,,,,,,,,,,,,,,,,,images/exp2c_trial_92_colour3_distractors31_r.png,r,2,022,001,2021-04-22_19h14.55.646,searchDisc4,2020.2.10,Win32,60,,,space,0.12757,2,1,0.648215,,0,384,384,548,1,2c,92,3,31,
,,,,,,,,,,,,,,,,,,,,,,,,,,images/exp1b_trial_47_colour2_distractors19_r.png,r,2,022,001,2021-04-22_19h14.55.646,searchDisc4,2020.2.10,Win32,60,,,space,0.109225,2,1,0.84981,,0,385,385,161,1,1b,47,2,19,
,,,,,,,,,,,,,,,,,,,,,,,,,,images/exp1a_trial_98_colour1_distractors31_l.png,l,1,022,001,2021-04-22_19h14.55.646,searchDisc4,2020.2.10,Win32,60,,,space,0.085405,1,1,0.565635,,0,386,386,98,1,1a,98,1,31,
,,,,,,,,,,,,,,,,,,,,,,,,,,images/exp1b_trial_89_colour3_distractors4_r.png,r,2,022,001,2021-04-22_19h14.55.646,searchDisc4,2020.2.10,Win32,60,,,space,0.11588,2,1,0.743945,,0,387,387,203,1,1b,89,3,4,
,,,,,,,,,,,,,,,,,,,,,,,,,,images/exp1a_trial_27_colour2_distractors19_l.png,l,1,022,001,2021-04-22_19h14.55.646,searchDisc4,2020.2.10,Win32,60,,,space,0.17153,1,1,0.68143,,0,388,388,27,1,1a,27,2,19,
,,,,,,,,,,,,,,,,,,,,,,,,,,images/exp2a_trial_61_colour1_distractors43_l.png,l,1,022,001,2021-04-22_19h14.55.646,searchDisc4,2020.2.10,Win32,60,,,space,0.166835,1,1,0.6482,,0,389,389,289,1,2a,61,1,43,
,,,,,,,,,,,,,,,,,,,,,,,,,,images/exp1a_trial_68_colour3_distractors1_l.png,l,1,022,001,2021-04-22_19h14.55.646,searchDisc4,2020.2.10,Win32,60,,,space,0.21693,1,1,0.560875,,0,390,390,68,1,1a,68,3,1,
,,,,,,,,,,,,,,,,,,,,,,,,,,images/exp2c_trial_45_colour2_distractors4_r.png,r,2,022,001,2021-04-22_19h14.55.646,searchDisc4,2020.2.10,Win32,60,,,space,0.166935,2,1,0.50409,,0,391,391,501,1,2c,45,2,4,
,,,,,,,,,,,,,,,,,,,,,,,,,,images/exp2b_trial_85_colour2_distractors19_r.png,r,2,022,001,2021-04-22_19h14.55.646,searchDisc4,2020.2.10,Win32,60,,,space,0.135375,2,1,0.45659,,0,392,392,427,1,2b,85,2,19,
,,,,,,,,,,,,,,,,,,,,,,,,,,images/exp2c_trial_88_colour3_distractors1_r.png,r,2,022,001,2021-04-22_19h14.55.646,searchDisc4,2020.2.10,Win32,60,,,space,0.17441,2,1,0.48891,,0,393,393,544,1,2c,88,3,1,
,,,,,,,,,,,,,,,,,,,,,,,,,,images/exp1a_trial_109_colour3_distractors19_l.png,l,1,022,001,2021-04-22_19h14.55.646,searchDisc4,2020.2.10,Win32,60,,,space,0.16681,1,1,0.792925,,0,394,394,109,1,1a,109,3,19,
,,,,,,,,,,,,,,,,,,,,,,,,,,images/exp2c_trial_20_colour1_distractors9_l.png,l,1,022,001,2021-04-22_19h14.55.646,searchDisc4,2020.2.10,Win32,60,,,space,0.250235,1,1,0.42636,,0,395,395,476,1,2c,20,1,9,
,,,,,,,,,,,,,,,,,,,,,,,,,,images/exp2c_trial_112_colour0_distractors0_r.png,r,2,022,001,2021-04-22_19h14.55.646,searchDisc4,2020.2.10,Win32,60,,,space,0.23361,2,1,0.472695,,0,396,396,568,1,2c,112,0,0,
,,,,,,,,,,,,,,,,,,,,,,,,,,images/exp2c_trial_43_colour1_distractors43_r.png,r,2,022,001,2021-04-22_19h14.55.646,searchDisc4,2020.2.10,Win32,60,,,space,0.20002,2,1,0.44079,,0,397,397,499,1,2c,43,1,43,
,,,,,,,,,,,,,,,,,,,,,,,,,,images/exp1a_trial_16_colour3_distractors31_r.png,r,2,022,001,2021-04-22_19h14.55.646,searchDisc4,2020.2.10,Win32,60,,,space,0.11695,2,1,1.02558,,0,398,398,16,1,1a,16,3,31,
,,,,,,,,,,,,,,,,,,,,,,,,,,images/exp1b_trial_10_colour2_distractors31_r.png,r,2,022,001,2021-04-22_19h14.55.646,searchDisc4,2020.2.10,Win32,60,,,space,0.15019,2,1,0.681995,,0,399,399,124,1,1b,10,2,31,
,,,,,,,,,,,,,,,,,,,,,,,,,,images/exp1a_trial_41_colour1_distractors19_r.png,r,2,022,001,2021-04-22_19h14.55.646,searchDisc4,2020.2.10,Win32,60,,,space,0.250125,2,1,0.459195,,0,400,400,41,1,1a,41,1,19,
,,,,,,,,,,,,,,,,,,,,,,,,,,images/exp2b_trial_91_colour3_distractors19_r.png,r,2,022,001,2021-04-22_19h14.55.646,searchDisc4,2020.2.10,Win32,60,,,space,0.183585,2,1,0.527105,,0,401,401,433,1,2b,91,3,19,
,,,,,,,,,,,,,,,,,,,,,,,,,,images/exp2b_trial_66_colour2_distractors31_l.png,l,1,022,001,2021-04-22_19h14.55.646,searchDisc4,2020.2.10,Win32,60,,,space,0.21672,2,0,0.456695,,0,402,402,408,1,2b,66,2,31,
,,,,,,,,,,,,,,,,,,,,,,,,,,images/exp2a_trial_112_colour0_distractors0_r.png,r,2,022,001,2021-04-22_19h14.55.646,searchDisc4,2020.2.10,Win32,60,,,space,0.2466,2,1,0.349625,,0,403,403,340,1,2a,112,0,0,
,,,,,,,,,,,,,,,,,,,,,,,,,,images/exp2c_trial_22_colour1_distractors31_l.png,l,1,022,001,2021-04-22_19h14.55.646,searchDisc4,2020.2.10,Win32,60,,,space,0.218185,1,1,0.567075,,0,404,404,478,1,2c,22,1,31,
,,,,,,,,,,,,,,,,,,,,,,,,,,images/exp2b_trial_43_colour1_distractors43_r.png,r,2,022,001,2021-04-22_19h14.55.646,searchDisc4,2020.2.10,Win32,60,,,space,0.20131,2,1,0.66437,,0,405,405,385,1,2b,43,1,43,
,,,,,,,,,,,,,,,,,,,,,,,,,,images/exp1b_trial_111_colour3_distractors43_l.png,l,1,022,001,2021-04-22_19h14.55.646,searchDisc4,2020.2.10,Win32,60,,,space,0.17503,1,1,0.91162,,0,406,406,225,1,1b,111,3,43,
,,,,,,,,,,,,,,,,,,,,,,,,,,images/exp1a_trial_58_colour1_distractors9_l.png,l,1,022,001,2021-04-22_19h14.55.646,searchDisc4,2020.2.10,Win32,60,,,space,0.252295,1,1,0.52946,,0,407,407,58,1,1a,58,1,9,
,,,,,,,,,,,,,,,,,,,,,,,,,,images/exp1a_trial_97_colour1_distractors19_l.png,l,1,022,001,2021-04-22_19h14.55.646,searchDisc4,2020.2.10,Win32,60,,,space,0.21895,1,1,0.56888,,0,408,408,97,1,1a,97,1,19,
,,,,,,,,,,,,,,,,,,,,,,,,,,images/exp2c_trial_14_colour3_distractors9_r.png,r,2,022,001,2021-04-22_19h14.55.646,searchDisc4,2020.2.10,Win32,60,,,space,0.1963,2,1,0.62457,,0,409,409,470,1,2c,14,3,9,
,,,,,,,,,,,,,,,,,,,,,,,,,,images/exp2c_trial_76_colour1_distractors1_r.png,r,2,022,001,2021-04-22_19h14.55.646,searchDisc4,2020.2.10,Win32,60,,,space,0.163695,2,1,0.36993,,0,410,410,532,1,2c,76,1,1,
,,,,,,,,,,,,,,,,,,,,,,,,,,images/exp2c_trial_99_colour1_distractors43_l.png,l,1,022,001,2021-04-22_19h14.55.646,searchDisc4,2020.2.10,Win32,60,,,space,0.22487,2,0,0.35827,,0,411,411,555,1,2c,99,1,43,
,,,,,,,,,,,,,,,,,,,,,,,,,,images/exp2c_trial_15_colour3_distractors19_r.png,r,2,022,001,2021-04-22_19h14.55.646,searchDisc4,2020.2.10,Win32,60,,,space,0.25525,2,1,0.35398,,0,412,412,471,1,2c,15,3,19,
,,,,,,,,,,,,,,,,,,,,,,,,,,images/exp1a_trial_61_colour1_distractors43_l.png,l,1,022,001,2021-04-22_19h14.55.646,searchDisc4,2020.2.10,Win32,60,,,space,0.20384,2,0,0.39786,,0,413,413,61,1,1a,61,1,43,
,,,,,,,,,,,,,,,,,,,,,,,,,,images/exp2c_trial_27_colour2_distractors19_l.png,l,1,022,001,2021-04-22_19h14.55.646,searchDisc4,2020.2.10,Win32,60,,,space,0.31064,1,1,0.679445,,0,414,414,483,1,2c,27,2,19,
,,,,,,,,,,,,,,,,,,,,,,,,,,images/exp2b_trial_35_colour3_distractors43_l.png,l,1,022,001,2021-04-22_19h14.55.646,searchDisc4,2020.2.10,Win32,60,,,space,0.33495,1,1,0.45687,,0,415,415,377,1,2b,35,3,43,
,,,,,,,,,,,,,,,,,,,,,,,,,,images/exp2c_trial_106_colour3_distractors1_l.png,l,1,022,001,2021-04-22_19h14.55.646,searchDisc4,2020.2.10,Win32,60,,,space,0.212835,1,1,0.719335,,0,416,416,562,1,2c,106,3,1,
,,,,,,,,,,,,,,,,,,,,,,,,,,images/exp2b_trial_25_colour2_distractors4_l.png,l,1,022,001,2021-04-22_19h14.55.646,searchDisc4,2020.2.10,Win32,60,,,space,0.20658,1,1,0.434305,,0,417,417,367,1,2b,25,2,4,
,,,,,,,,,,,,,,,,,,,,,,,,,,images/exp1b_trial_86_colour2_distractors31_r.png,r,2,022,001,2021-04-22_19h14.55.646,searchDisc4,2020.2.10,Win32,60,,,space,0.132705,2,1,0.60975,,0,418,418,200,1,1b,86,2,31,
,,,,,,,,,,,,,,,,,,,,,,,,,,images/exp2a_trial_99_colour1_distractors43_l.png,l,1,022,001,2021-04-22_19h14.55.646,searchDisc4,2020.2.10,Win32,60,,,space,0.18927,1,1,0.555225,space,0,419,419,327,1,2a,99,1,43,0.15747
,,,,,,,,,,,,,,,,,,,,,,,,,,images/exp2a_trial_41_colour1_distractors19_r.png,r,2,022,001,2021-04-22_19h14.55.646,searchDisc4,2020.2.10,Win32,60,,,space,0.48711,2,1,0.536695,,0,420,420,269,1,2a,41,1,19,
,,,,,,,,,,,,,,,,,,,,,,,,,,images/exp1b_trial_11_colour2_distractors43_r.png,r,2,022,001,2021-04-22_19h14.55.646,searchDisc4,2020.2.10,Win32,60,,,space,0.13366,2,1,0.514875,,0,421,421,125,1,1b,11,2,43,
,,,,,,,,,,,,,,,,,,,,,,,,,,images/exp1b_trial_49_colour2_distractors43_r.png,r,2,022,001,2021-04-22_19h14.55.646,searchDisc4,2020.2.10,Win32,60,,,space,0.20027,2,1,0.860795,,0,422,422,163,1,1b,49,2,43,
,,,,,,,,,,,,,,,,,,,,,,,,,,images/exp1b_trial_85_colour2_distractors19_r.png,r,2,022,001,2021-04-22_19h14.55.646,searchDisc4,2020.2.10,Win32,60,,,space,0.116885,2,1,0.811025,,0,423,423,199,1,1b,85,2,19,
,,,,,,,,,,,,,,,,,,,,,,,,,,images/exp1b_trial_105_colour2_distractors43_l.png,l,1,022,001,2021-04-22_19h14.55.646,searchDisc4,2020.2.10,Win32,60,,,space,0.116385,1,1,0.78919,,0,424,424,219,1,1b,105,2,43,
,,,,,,,,,,,,,,,,,,,,,,,,,,images/exp2b_trial_71_colour3_distractors19_l.png,l,1,022,001,2021-04-22_19h14.55.646,searchDisc4,2020.2.10,Win32,60,,,space,0.266905,1,1,0.57273,,0,425,425,413,1,2b,71,3,19,
,,,,,,,,,,,,,,,,,,,,,,,,,,images/exp2a_trial_83_colour2_distractors4_r.png,r,2,022,001,2021-04-22_19h14.55.646,searchDisc4,2020.2.10,Win32,60,,,space,0.16738,2,1,0.569945,,0,426,426,311,1,2a,83,2,4,
,,,,,,,,,,,,,,,,,,,,,,,,,,images/exp2b_trial_88_colour3_distractors1_r.png,r,2,022,001,2021-04-22_19h14.55.646,searchDisc4,2020.2.10,Win32,60,,,space,0.130895,2,1,0.5153,,0,427,427,430,1,2b,88,3,1,
,,,,,,,,,,,,,,,,,,,,,,,,,,images/exp2c_trial_32_colour3_distractors9_l.png,l,1,022,001,2021-04-22_19h14.55.646,searchDisc4,2020.2.10,Win32,60,,,space,0.05806,1,1,0.503225,,0,428,428,488,1,2c,32,3,9,
,,,,,,,,,,,,,,,,,,,,,,,,,,images/exp2a_trial_110_colour3_distractors31_l.png,l,1,022,001,2021-04-22_19h14.55.646,searchDisc4,2020.2.10,Win32,60,,,space,0.153125,1,1,0.6723,,0,429,429,338,1,2a,110,3,31,
,,,,,,,,,,,,,,,,,,,,,,,,,,images/exp1a_trial_50_colour3_distractors1_r.png,r,2,022,001,2021-04-22_19h14.55.646,searchDisc4,2020.2.10,Win32,60,,,space,0.136105,2,1,0.58306,,0,430,430,50,1,1a,50,3,1,
,,,,,,,,,,,,,,,,,,,,,,,,,,images/exp2b_trial_95_colour1_distractors4_l.png,l,1,022,001,2021-04-22_19h14.55.646,searchDisc4,2020.2.10,Win32,60,,,space,0.06637,1,1,0.598815,,0,431,431,437,1,2b,95,1,4,
,,,,,,,,,,,,,,,,,,,,,,,,,,images/exp2c_trial_65_colour2_distractors19_l.png,l,1,022,001,2021-04-22_19h14.55.646,searchDisc4,2020.2.10,Win32,60,,,space,0.103125,1,1,0.55363,,0,432,432,521,1,2c,65,2,19,
,,,,,,,,,,,,,,,,,,,,,,,,,,images/exp2c_trial_87_colour2_distractors43_r.png,r,2,022,001,2021-04-22_19h14.55.646,searchDisc4,2020.2.10,Win32,60,,,space,0.128215,2,1,0.55389,,0,433,433,543,1,2c,87,2,43,
,,,,,,,,,,,,,,,,,,,,,,,,,,images/exp2b_trial_89_colour3_distractors4_r.png,r,2,022,001,2021-04-22_19h14.55.646,searchDisc4,2020.2.10,Win32,60,,,space,0.066055,2,1,0.64223,,0,434,434,431,1,2b,89,3,4,
,,,,,,,,,,,,,,,,,,,,,,,,,,images/exp2b_trial_65_colour2_distractors19_l.png,l,1,022,001,2021-04-22_19h14.55.646,searchDisc4,2020.2.10,Win32,60,,,space,0.08349,1,1,0.576105,,0,435,435,407,1,2b,65,2,19,
,,,,,,,,,,,,,,,,,,,,,,,,,,images/exp2a_trial_75_colour0_distractors0_l.png,l,1,022,001,2021-04-22_19h14.55.646,searchDisc4,2020.2.10,Win32,60,,,space,0.1004,1,1,0.48048,,0,436,436,303,1,2a,75,0,0,
,,,,,,,,,,,,,,,,,,,,,,,,,,images/exp2c_trial_36_colour0_distractors0_r.png,r,2,022,001,2021-04-22_19h14.55.646,searchDisc4,2020.2.10,Win32,60,,,space,0.090655,2,1,0.58869,,0,437,437,492,1,2c,36,0,0,
,,,,,,,,,,,,,,,,,,,,,,,,,,images/exp2a_trial_2_colour1_distractors9_r.png,r,2,022,001,2021-04-22_19h14.55.646,searchDisc4,2020.2.10,Win32,60,,,space,0.13291,2,1,0.493535,,0,438,438,230,1,2a,2,1,9,
,,,,,,,,,,,,,,,,,,,,,,,,,,images/exp1b_trial_60_colour1_distractors31_l.png,l,1,022,001,2021-04-22_19h14.55.646,searchDisc4,2020.2.10,Win32,60,,,space,0.100105,1,1,0.70947,,0,439,439,174,1,1b,60,1,31,
,,,,,,,,,,,,,,,,,,,,,,,,,,images/exp1b_trial_113_colour0_distractors0_l.png,l,1,022,001,2021-04-22_19h14.55.646,searchDisc4,2020.2.10,Win32,60,,,space,0.16817,1,1,0.44355,,0,440,440,227,1,1b,113,0,0,
,,,,,,,,,,,,,,,,,,,,,,,,,,images/exp2a_trial_67_colour2_distractors43_l.png,l,1,022,001,2021-04-22_19h14.55.646,searchDisc4,2020.2.10,Win32,60,,,space,0.192505,1,1,0.761415,,0,441,441,295,1,2a,67,2,43,
,,,,,,,,,,,,,,,,,,,,,,,,,,images/exp1a_trial_23_colour1_distractors43_l.png,l,1,022,001,2021-04-22_19h14.55.646,searchDisc4,2020.2.10,Win32,60,,,space,0.132655,1,1,0.575585,,0,442,442,23,1,1a,23,1,43,
,,,,,,,,,,,,,,,,,,,,,,,,,,images/exp1b_trial_58_colour1_distractors9_l.png,l,1,022,001,2021-04-22_19h14.55.646,searchDisc4,2020.2.10,Win32,60,,,space,0.16745,1,1,0.654655,,0,443,443,172,1,1b,58,1,9,
,,,,,,,,,,,,,,,,,,,,,,,,,,images/exp2b_trial_19_colour1_distractors4_l.png,l,1,022,001,2021-04-22_19h14.55.646,searchDisc4,2020.2.10,Win32,60,,,space,0.218475,1,1,0.432255,,0,444,444,361,1,2b,19,1,4,
,,,,,,,,,,,,,,,,,,,,,,,,,,images/exp2a_trial_58_colour1_distractors9_l.png,l,1,022,001,2021-04-22_19h14.55.646,searchDisc4,2020.2.10,Win32,60,,,space,0.182775,1,1,0.55753,,0,445,445,286,1,2a,58,1,9,
,,,,,,,,,,,,,,,,,,,,,,,,,,images/exp2a_trial_5_colour1_distractors43_r.png,r,2,022,001,2021-04-22_19h14.55.646,searchDisc4,2020.2.10,Win32,60,,,space,0.177245,2,1,0.564145,,0,446,446,233,1,2a,5,1,43,
,,,,,,,,,,,,,,,,,,,,,,,,,,images/exp2b_trial_6_colour2_distractors1_r.png,r,2,022,001,2021-04-22_19h14.55.646,searchDisc4,2020.2.10,Win32,60,,,space,0.24727,2,1,0.404105,,0,447,447,348,1,2b,6,2,1,
,,,,,,,,,,,,,,,,,,,,,,,,,,images/exp2b_trial_74_colour0_distractors0_r.png,r,2,022,001,2021-04-22_19h14.55.646,searchDisc4,2020.2.10,Win32,60,,,space,0.194595,2,1,0.386155,,0,448,448,416,1,2b,74,0,0,
,,,,,,,,,,,,,,,,,,,,,,,,,,images/exp2c_trial_12_colour3_distractors1_r.png,r,2,022,001,2021-04-22_19h14.55.646,searchDisc4,2020.2.10,Win32,60,,,space,0.137945,2,1,0.32899,,0,449,449,468,1,2c,12,3,1,
,,,,,,,,,,,,,,,,,,,,,,,,,,images/exp1a_trial_56_colour1_distractors1_l.png,l,1,022,001,2021-04-22_19h14.55.646,searchDisc4,2020.2.10,Win32,60,,,space,0.133945,2,0,0.351845,,0,450,450,56,1,1a,56,1,1,
,,,,,,,,,,,,,,,,,,,,,,,,,,images/exp1b_trial_67_colour2_distractors43_l.png,l,1,022,001,2021-04-22_19h14.55.646,searchDisc4,2020.2.10,Win32,60,,,space,0.13129,2,0,0.60118,,0,451,451,181,1,1b,67,2,43,
,,,,,,,,,,,,,,,,,,,,,,,,,,images/exp2b_trial_111_colour3_distractors43_l.png,l,1,022,001,2021-04-22_19h14.55.646,searchDisc4,2020.2.10,Win32,60,,,space,0.276525,1,1,0.600965,,0,452,452,453,1,2b,111,3,43,
,,,,,,,,,,,,,,,,,,,,,,,,,,images/exp2a_trial_45_colour2_distractors4_r.png,r,2,022,001,2021-04-22_19h14.55.646,searchDisc4,2020.2.10,Win32,60,,,space,0.21969,2,1,0.4374,,0,453,453,273,1,2a,45,2,4,
,,,,,,,,,,,,,,,,,,,,,,,,,,images/exp1a_trial_72_colour3_distractors31_l.png,l,1,022,001,2021-04-22_19h14.55.646,searchDisc4,2020.2.10,Win32,60,,,space,0.174245,1,1,0.618645,,0,454,454,72,1,1a,72,3,31,
,,,,,,,,,,,,,,,,,,,,,,,,,,images/exp2a_trial_36_colour0_distractors0_r.png,r,2,022,001,2021-04-22_19h14.55.646,searchDisc4,2020.2.10,Win32,60,,,space,0.181585,2,1,0.790055,,0,455,455,264,1,2a,36,0,0,
,,,,,,,,,,,,,,,,,,,,,,,,,,images/exp2a_trial_42_colour1_distractors31_r.png,r,2,022,001,2021-04-22_19h14.55.646,searchDisc4,2020.2.10,Win32,60,,,space,0.12871,2,1,0.423575,,0,456,456,270,1,2a,42,1,31,
,,,,,,,,,,,,,,,,,,,,,,,,,,images/exp1a_trial_60_colour1_distractors31_l.png,l,1,022,001,2021-04-22_19h14.55.646,searchDisc4,2020.2.10,Win32,60,,,space,0.17379,1,1,0.43502,,0,457,457,60,1,1a,60,1,31,
,,,,,,,,,,,,,,,,,,,,,,,,,,images/exp2b_trial_7_colour2_distractors4_r.png,r,2,022,001,2021-04-22_19h14.55.646,searchDisc4,2020.2.10,Win32,60,,,space,0.176835,2,1,0.89775,,0,458,458,349,1,2b,7,2,4,
,,,,,,,,,,,,,,,,,,,,,,,,,,images/exp2c_trial_16_colour3_distractors31_r.png,r,2,022,001,2021-04-22_19h14.55.646,searchDisc4,2020.2.10,Win32,60,,,space,0.163985,2,1,0.453875,,0,459,459,472,1,2c,16,3,31,
,,,,,,,,,,,,,,,,,,,,,,,,,,images/exp1a_trial_18_colour1_distractors1_l.png,l,1,022,001,2021-04-22_19h14.55.646,searchDisc4,2020.2.10,Win32,60,,,space,0.09482,1,1,0.81039,,0,460,460,18,1,1a,18,1,1,
,,,,,,,,,,,,,,,,,,,,,,,,,,images/exp2b_trial_102_colour2_distractors9_l.png,l,1,022,001,2021-04-22_19h14.55.646,searchDisc4,2020.2.10,Win32,60,,,space,0.16873,1,1,0.61461,,0,461,461,444,1,2b,102,2,9,
,,,,,,,,,,,,,,,,,,,,,,,,,,images/exp2a_trial_40_colour1_distractors9_r.png,r,2,022,001,2021-04-22_19h14.55.646,searchDisc4,2020.2.10,Win32,60,,,space,0.25033,2,1,0.47654,,0,462,462,268,1,2a,40,1,9,
,,,,,,,,,,,,,,,,,,,,,,,,,,images/exp2a_trial_20_colour1_distractors9_l.png,l,1,022,001,2021-04-22_19h14.55.646,searchDisc4,2020.2.10,Win32,60,,,space,0.14815,1,1,0.56639,,0,463,463,248,1,2a,20,1,9,
,,,,,,,,,,,,,,,,,,,,,,,,,,images/exp2a_trial_80_colour1_distractors31_r.png,r,2,022,001,2021-04-22_19h14.55.646,searchDisc4,2020.2.10,Win32,60,,,space,0.13111,2,1,0.635305,,0,464,464,308,1,2a,80,1,31,
,,,,,,,,,,,,,,,,,,,,,,,,,,images/exp1a_trial_91_colour3_distractors19_r.png,r,2,022,001,2021-04-22_19h14.55.646,searchDisc4,2020.2.10,Win32,60,,,space,0.10038,2,1,0.638605,,0,465,465,91,1,1a,91,3,19,
,,,,,,,,,,,,,,,,,,,,,,,,,,images/exp2c_trial_101_colour2_distractors4_l.png,l,1,022,001,2021-04-22_19h14.55.646,searchDisc4,2020.2.10,Win32,60,,,space,0.091785,1,1,0.604685,,0,466,466,557,1,2c,101,2,4,
,,,,,,,,,,,,,,,,,,,,,,,,,,images/exp2c_trial_13_colour3_distractors4_r.png,r,2,022,001,2021-04-22_19h14.55.646,searchDisc4,2020.2.10,Win32,60,,,space,0.107335,2,1,0.626765,,0,467,467,469,1,2c,13,3,4,
,,,,,,,,,,,,,,,,,,,,,,,,,,images/exp2b_trial_8_colour2_distractors9_r.png,r,2,022,001,2021-04-22_19h14.55.646,searchDisc4,2020.2.10,Win32,60,,,space,0.116855,2,1,0.81073,,0,468,468,350,1,2b,8,2,9,
,,,,,,,,,,,,,,,,,,,,,,,,,,images/exp2b_trial_72_colour3_distractors31_l.png,l,1,022,001,2021-04-22_19h14.55.646,searchDisc4,2020.2.10,Win32,60,,,space,0.45033,1,1,0.62003,,0,469,469,414,1,2b,72,3,31,
,,,,,,,,,,,,,,,,,,,,,,,,,,images/exp2b_trial_68_colour3_distractors1_l.png,l,1,022,001,2021-04-22_19h14.55.646,searchDisc4,2020.2.10,Win32,60,,,space,0.167205,1,1,0.57838,,0,470,470,410,1,2b,68,3,1,
,,,,,,,,,,,,,,,,,,,,,,,,,,images/exp1b_trial_56_colour1_distractors1_l.png,l,1,022,001,2021-04-22_19h14.55.646,searchDisc4,2020.2.10,Win32,60,,,space,0.15007,1,1,0.665595,,0,471,471,170,1,1b,56,1,1,
,,,,,,,,,,,,,,,,,,,,,,,,,,images/exp1b_trial_68_colour3_distractors1_l.png,l,1,022,001,2021-04-22_19h14.55.646,searchDisc4,2020.2.10,Win32,60,,,space,0.133625,1,1,0.601635,,0,472,472,182,1,1b,68,3,1,
,,,,,,,,,,,,,,,,,,,,,,,,,,images/exp2b_trial_28_colour2_distractors31_l.png,l,1,022,001,2021-04-22_19h14.55.646,searchDisc4,2020.2.10,Win32,60,,,space,0.09697,1,1,0.500755,,0,473,473,370,1,2b,28,2,31,
,,,,,,,,,,,,,,,,,,,,,,,,,,images/exp1b_trial_103_colour2_distractors19_l.png,l,1,022,001,2021-04-22_19h14.55.646,searchDisc4,2020.2.10,Win32,60,,,space,0.07831,1,1,0.659855,,0,474,474,217,1,1b,103,2,19,
,,,,,,,,,,,,,,,,,,,,,,,,,,images/exp2c_trial_38_colour1_distractors1_r.png,r,2,022,001,2021-04-22_19h14.55.646,searchDisc4,2020.2.10,Win32,60,,,space,0.074845,2,1,0.726695,,0,475,475,494,1,2c,38,1,1,
,,,,,,,,,,,,,,,,,,,,,,,,,,images/exp2c_trial_42_colour1_distractors31_r.png,r,2,022,001,2021-04-22_19h14.55.646,searchDisc4,2020.2.10,Win32,60,,,space,0.10696,2,1,0.473215,,0,476,476,498,1,2c,42,1,31,
