X Scale,Y Scale,key_resp_10.keys,key_resp_10.rt,key_resp_11.keys,key_resp_11.rt,key_resp_12.keys,key_resp_12.rt,key_resp_13.keys,key_resp_13.rt,key_resp_5.keys,key_resp_5.rt,key_resp_8.keys,key_resp_8.rt,key_resp_6.keys,key_resp_6.rt,key_resp_7.keys,key_resp_7.rt,key_resp_4.keys,key_resp_4.corr,key_resp_4.rt,trials_2.thisRepN,trials_2.thisTrialN,trials_2.thisN,trials_2.thisIndex,trials_2.ran,ImageFile,targ_side,correctAnswer,participant,session,date,expName,psychopyVersion,OS,frameRate,key_resp_3.keys,key_resp_3.rt,key_resp_9.keys,key_resp_9.rt,key_resp_2.keys,key_resp_2.corr,key_resp_2.rt,key_resp.keys,trials.thisRepN,trials.thisTrialN,trials.thisN,trials.thisIndex,trials.ran,exp,trial,colour,distNo,key_resp.rt
19.9,19.7,space,2.141795,space,1.35557,space,1.28677,space,1.13329,space,0.941045,space,5.61948,space,0.38902,space,0.627695,2,1,0.864755,0,0,0,3,1,Practice arrays/exp1a_trial_7_colour2_distractors4_r.png,r,2,023,001,2021-04-22_21h25.17.154,searchDisc4,2020.2.10,Win32,60,,,,,,,,,,,,,,,,,,
,,,,,,,,,,,,,,,,space,0.33229,2,1,0.57225,0,1,1,7,1,Practice arrays/exp1a_trial_13_colour3_distractors4_r.png,r,2,023,001,2021-04-22_21h25.17.154,searchDisc4,2020.2.10,Win32,60,,,,,,,,,,,,,,,,,,
,,,,,,,,,,,,,,,,space,0.25592,2,1,0.535225,0,2,2,4,1,Practice arrays/exp1a_trial_8_colour2_distractors9_r.png,r,2,023,001,2021-04-22_21h25.17.154,searchDisc4,2020.2.10,Win32,60,,,,,,,,,,,,,,,,,,
,,,,,,,,,,,,,,,,space,0.28696,1,1,0.475095,0,3,3,9,1,Practice arrays/exp1a_trial_19_colour1_distractors4_l.png,l,1,023,001,2021-04-22_21h25.17.154,searchDisc4,2020.2.10,Win32,60,,,,,,,,,,,,,,,,,,
,,,,,,,,,,,,,,,,space,0.246845,1,1,0.66883,0,4,4,12,1,Practice arrays/exp1a_trial_25_colour2_distractors4_l.png,l,1,023,001,2021-04-22_21h25.17.154,searchDisc4,2020.2.10,Win32,60,,,,,,,,,,,,,,,,,,
,,,,,,,,,,,,,,,,space,0.23438,1,0,0.554155,0,5,5,6,1,Practice arrays/exp1a_trial_12_colour3_distractors1_r.png,r,2,023,001,2021-04-22_21h25.17.154,searchDisc4,2020.2.10,Win32,60,,,,,,,,,,,,,,,,,,
,,,,,,,,,,,,,,,,space,0.200885,2,1,0.508605,0,6,6,0,1,Practice arrays/exp1a_trial_0_colour1_distractors1_r.png,r,2,023,001,2021-04-22_21h25.17.154,searchDisc4,2020.2.10,Win32,60,,,,,,,,,,,,,,,,,,
,,,,,,,,,,,,,,,,space,0.19586,1,1,0.50771,0,7,7,15,1,Practice arrays/exp1a_trial_32_colour3_distractors9_l.png,l,1,023,001,2021-04-22_21h25.17.154,searchDisc4,2020.2.10,Win32,60,,,,,,,,,,,,,,,,,,
,,,,,,,,,,,,,,,,space,0.084665,1,1,0.51717,0,8,8,16,1,Practice arrays/exp1a_trial_33_colour3_distractors19_l.png,l,1,023,001,2021-04-22_21h25.17.154,searchDisc4,2020.2.10,Win32,60,,,,,,,,,,,,,,,,,,
,,,,,,,,,,,,,,,,space,0.23418,1,1,0.465005,0,9,9,14,1,Practice arrays/exp1a_trial_29_colour2_distractors43_l.png,l,1,023,001,2021-04-22_21h25.17.154,searchDisc4,2020.2.10,Win32,60,,,,,,,,,,,,,,,,,,
,,,,,,,,,,,,,,,,space,0.145985,1,1,0.76192,0,10,10,10,1,Practice arrays/exp1a_trial_20_colour1_distractors9_l.png,l,1,023,001,2021-04-22_21h25.17.154,searchDisc4,2020.2.10,Win32,60,,,,,,,,,,,,,,,,,,
,,,,,,,,,,,,,,,,space,0.20221,1,1,0.54741,0,11,11,13,1,Practice arrays/exp1a_trial_28_colour2_distractors31_l.png,l,1,023,001,2021-04-22_21h25.17.154,searchDisc4,2020.2.10,Win32,60,,,,,,,,,,,,,,,,,,
,,,,,,,,,,,,,,,,space,0.252445,2,1,0.583305,0,12,12,1,1,Practice arrays/exp1a_trial_3_colour1_distractors19_r.png,r,2,023,001,2021-04-22_21h25.17.154,searchDisc4,2020.2.10,Win32,60,,,,,,,,,,,,,,,,,,
,,,,,,,,,,,,,,,,space,0.261345,2,1,0.905605,0,13,13,2,1,Practice arrays/exp1a_trial_5_colour1_distractors43_r.png,r,2,023,001,2021-04-22_21h25.17.154,searchDisc4,2020.2.10,Win32,60,,,,,,,,,,,,,,,,,,
,,,,,,,,,,,,,,,,space,0.318215,1,1,0.62339,0,14,14,17,1,Practice arrays/exp1a_trial_35_colour3_distractors43_l.png,l,1,023,001,2021-04-22_21h25.17.154,searchDisc4,2020.2.10,Win32,60,,,,,,,,,,,,,,,,,,
,,,,,,,,,,,,,,,,space,0.25457,2,1,0.885515,0,15,15,18,1,Practice arrays/exp1a_trial_36_colour0_distractors0_r.png,r,2,023,001,2021-04-22_21h25.17.154,searchDisc4,2020.2.10,Win32,60,,,,,,,,,,,,,,,,,,
,,,,,,,,,,,,,,,,space,0.26961,2,1,0.55625,0,16,16,8,1,Practice arrays/exp1a_trial_16_colour3_distractors31_r.png,r,2,023,001,2021-04-22_21h25.17.154,searchDisc4,2020.2.10,Win32,60,,,,,,,,,,,,,,,,,,
,,,,,,,,,,,,,,,,space,0.060335,1,1,0.492645,0,17,17,11,1,Practice arrays/exp1a_trial_21_colour1_distractors19_l.png,l,1,023,001,2021-04-22_21h25.17.154,searchDisc4,2020.2.10,Win32,60,,,,,,,,,,,,,,,,,,
,,,,,,,,,,,,,,,,space,0.119455,1,1,0.51811,0,18,18,19,1,Practice arrays/exp1a_trial_37_colour0_distractors0_l.png,l,1,023,001,2021-04-22_21h25.17.154,searchDisc4,2020.2.10,Win32,60,,,,,,,,,,,,,,,,,,
,,,,,,,,,,,,,,,,space,0.19056,2,1,0.741385,0,19,19,5,1,Practice arrays/exp1a_trial_10_colour2_distractors31_r.png,r,2,023,001,2021-04-22_21h25.17.154,searchDisc4,2020.2.10,Win32,60,,,,,,,,,,,,,,,,,,
,,,,,,,,,,,,,,,,,,,,,,,,,,images/exp2c_trial_30_colour3_distractors1_l.png,l,1,023,001,2021-04-22_21h25.17.154,searchDisc4,2020.2.10,Win32,60,space,0.920605,space,0.63337,1,1,0.605255,,0,0,0,486,1,2c,30,3,1,
,,,,,,,,,,,,,,,,,,,,,,,,,,images/exp2b_trial_91_colour3_distractors19_r.png,r,2,023,001,2021-04-22_21h25.17.154,searchDisc4,2020.2.10,Win32,60,,,space,0.774165,2,1,0.58681,,0,1,1,433,1,2b,91,3,19,
,,,,,,,,,,,,,,,,,,,,,,,,,,images/exp2a_trial_64_colour2_distractors9_l.png,l,1,023,001,2021-04-22_21h25.17.154,searchDisc4,2020.2.10,Win32,60,,,space,0.55225,1,1,0.50433,,0,2,2,292,1,2a,64,2,9,
,,,,,,,,,,,,,,,,,,,,,,,,,,images/exp2b_trial_16_colour3_distractors31_r.png,r,2,023,001,2021-04-22_21h25.17.154,searchDisc4,2020.2.10,Win32,60,,,space,0.5767,2,1,0.7014,,0,3,3,358,1,2b,16,3,31,
,,,,,,,,,,,,,,,,,,,,,,,,,,images/exp1b_trial_101_colour2_distractors4_l.png,l,1,023,001,2021-04-22_21h25.17.154,searchDisc4,2020.2.10,Win32,60,,,space,0.60364,1,1,0.939645,,0,4,4,215,1,1b,101,2,4,
,,,,,,,,,,,,,,,,,,,,,,,,,,images/exp1b_trial_34_colour3_distractors31_l.png,l,1,023,001,2021-04-22_21h25.17.154,searchDisc4,2020.2.10,Win32,60,,,space,0.546625,1,1,0.95161,,0,5,5,148,1,1b,34,3,31,
,,,,,,,,,,,,,,,,,,,,,,,,,,images/exp2b_trial_12_colour3_distractors1_r.png,r,2,023,001,2021-04-22_21h25.17.154,searchDisc4,2020.2.10,Win32,60,,,space,0.421755,2,1,0.66353,,0,6,6,354,1,2b,12,3,1,
,,,,,,,,,,,,,,,,,,,,,,,,,,images/exp1a_trial_42_colour1_distractors31_r.png,r,2,023,001,2021-04-22_21h25.17.154,searchDisc4,2020.2.10,Win32,60,,,space,0.41481,2,1,1.020305,,0,7,7,42,1,1a,42,1,31,
,,,,,,,,,,,,,,,,,,,,,,,,,,images/exp2a_trial_67_colour2_distractors43_l.png,l,1,023,001,2021-04-22_21h25.17.154,searchDisc4,2020.2.10,Win32,60,,,space,0.51447,1,1,0.572765,,0,8,8,295,1,2a,67,2,43,
,,,,,,,,,,,,,,,,,,,,,,,,,,images/exp2b_trial_5_colour1_distractors43_r.png,r,2,023,001,2021-04-22_21h25.17.154,searchDisc4,2020.2.10,Win32,60,,,space,0.452465,2,1,0.60855,,0,9,9,347,1,2b,5,1,43,
,,,,,,,,,,,,,,,,,,,,,,,,,,images/exp1b_trial_92_colour3_distractors31_r.png,r,2,023,001,2021-04-22_21h25.17.154,searchDisc4,2020.2.10,Win32,60,,,space,0.34664,2,1,0.854995,,0,10,10,206,1,1b,92,3,31,
,,,,,,,,,,,,,,,,,,,,,,,,,,images/exp2a_trial_2_colour1_distractors9_r.png,r,2,023,001,2021-04-22_21h25.17.154,searchDisc4,2020.2.10,Win32,60,,,space,0.355035,2,1,0.80109,,0,11,11,230,1,2a,2,1,9,
,,,,,,,,,,,,,,,,,,,,,,,,,,images/exp1b_trial_26_colour2_distractors9_l.png,l,1,023,001,2021-04-22_21h25.17.154,searchDisc4,2020.2.10,Win32,60,,,space,0.28244,1,1,0.68887,,0,12,12,140,1,1b,26,2,9,
,,,,,,,,,,,,,,,,,,,,,,,,,,images/exp1a_trial_100_colour2_distractors1_l.png,l,1,023,001,2021-04-22_21h25.17.154,searchDisc4,2020.2.10,Win32,60,,,space,0.306075,1,1,0.57004,,0,13,13,100,1,1a,100,2,1,
,,,,,,,,,,,,,,,,,,,,,,,,,,images/exp2c_trial_75_colour0_distractors0_l.png,l,1,023,001,2021-04-22_21h25.17.154,searchDisc4,2020.2.10,Win32,60,,,space,0.34395,1,1,0.6347,,0,14,14,531,1,2c,75,0,0,
,,,,,,,,,,,,,,,,,,,,,,,,,,images/exp2a_trial_34_colour3_distractors31_l.png,l,1,023,001,2021-04-22_21h25.17.154,searchDisc4,2020.2.10,Win32,60,,,space,0.33908,1,1,0.74579,,0,15,15,262,1,2a,34,3,31,
,,,,,,,,,,,,,,,,,,,,,,,,,,images/exp1b_trial_17_colour3_distractors43_r.png,r,2,023,001,2021-04-22_21h25.17.154,searchDisc4,2020.2.10,Win32,60,,,space,0.336435,2,1,1.05389,,0,16,16,131,1,1b,17,3,43,
,,,,,,,,,,,,,,,,,,,,,,,,,,images/exp2a_trial_63_colour2_distractors4_l.png,l,1,023,001,2021-04-22_21h25.17.154,searchDisc4,2020.2.10,Win32,60,,,space,0.31494,1,1,0.54649,,0,17,17,291,1,2a,63,2,4,
,,,,,,,,,,,,,,,,,,,,,,,,,,images/exp2a_trial_65_colour2_distractors19_l.png,l,1,023,001,2021-04-22_21h25.17.154,searchDisc4,2020.2.10,Win32,60,,,space,0.35589,1,1,0.56957,,0,18,18,293,1,2a,65,2,19,
,,,,,,,,,,,,,,,,,,,,,,,,,,images/exp1a_trial_94_colour1_distractors1_l.png,l,1,023,001,2021-04-22_21h25.17.154,searchDisc4,2020.2.10,Win32,60,,,space,0.333295,1,1,0.56194,,0,19,19,94,1,1a,94,1,1,
,,,,,,,,,,,,,,,,,,,,,,,,,,images/exp2c_trial_21_colour1_distractors19_l.png,l,1,023,001,2021-04-22_21h25.17.154,searchDisc4,2020.2.10,Win32,60,,,space,0.270915,1,1,0.500515,,0,20,20,477,1,2c,21,1,19,
,,,,,,,,,,,,,,,,,,,,,,,,,,images/exp2b_trial_62_colour2_distractors1_l.png,l,1,023,001,2021-04-22_21h25.17.154,searchDisc4,2020.2.10,Win32,60,,,space,0.302525,1,1,0.59755,,0,21,21,404,1,2b,62,2,1,
,,,,,,,,,,,,,,,,,,,,,,,,,,images/exp2b_trial_54_colour3_distractors31_r.png,r,2,023,001,2021-04-22_21h25.17.154,searchDisc4,2020.2.10,Win32,60,,,space,0.21219,1,0,0.555655,,0,22,22,396,1,2b,54,3,31,
,,,,,,,,,,,,,,,,,,,,,,,,,,images/exp2b_trial_102_colour2_distractors9_l.png,l,1,023,001,2021-04-22_21h25.17.154,searchDisc4,2020.2.10,Win32,60,,,space,0.299575,1,1,0.58455,,0,23,23,444,1,2b,102,2,9,
,,,,,,,,,,,,,,,,,,,,,,,,,,images/exp2a_trial_14_colour3_distractors9_r.png,r,2,023,001,2021-04-22_21h25.17.154,searchDisc4,2020.2.10,Win32,60,,,space,0.304735,2,1,0.59191,,0,24,24,242,1,2a,14,3,9,
,,,,,,,,,,,,,,,,,,,,,,,,,,images/exp1a_trial_82_colour2_distractors1_r.png,r,2,023,001,2021-04-22_21h25.17.154,searchDisc4,2020.2.10,Win32,60,,,space,0.240015,2,1,0.895405,,0,25,25,82,1,1a,82,2,1,
,,,,,,,,,,,,,,,,,,,,,,,,,,images/exp1b_trial_109_colour3_distractors19_l.png,l,1,023,001,2021-04-22_21h25.17.154,searchDisc4,2020.2.10,Win32,60,,,space,0.223505,1,1,0.639925,,0,26,26,223,1,1b,109,3,19,
,,,,,,,,,,,,,,,,,,,,,,,,,,images/exp2c_trial_6_colour2_distractors1_r.png,r,2,023,001,2021-04-22_21h25.17.154,searchDisc4,2020.2.10,Win32,60,,,space,0.29527,2,1,0.60802,,0,27,27,462,1,2c,6,2,1,
,,,,,,,,,,,,,,,,,,,,,,,,,,images/exp2b_trial_25_colour2_distractors4_l.png,l,1,023,001,2021-04-22_21h25.17.154,searchDisc4,2020.2.10,Win32,60,,,space,0.28353,1,1,0.627705,,0,28,28,367,1,2b,25,2,4,
,,,,,,,,,,,,,,,,,,,,,,,,,,images/exp1b_trial_27_colour2_distractors19_l.png,l,1,023,001,2021-04-22_21h25.17.154,searchDisc4,2020.2.10,Win32,60,,,space,0.26952,1,1,0.737545,,0,29,29,141,1,1b,27,2,19,
,,,,,,,,,,,,,,,,,,,,,,,,,,images/exp2b_trial_78_colour1_distractors9_r.png,r,2,023,001,2021-04-22_21h25.17.154,searchDisc4,2020.2.10,Win32,60,,,space,0.26707,2,1,0.65031,,0,30,30,420,1,2b,78,1,9,
,,,,,,,,,,,,,,,,,,,,,,,,,,images/exp2a_trial_16_colour3_distractors31_r.png,r,2,023,001,2021-04-22_21h25.17.154,searchDisc4,2020.2.10,Win32,60,,,space,0.27748,1,0,0.569745,,0,31,31,244,1,2a,16,3,31,
,,,,,,,,,,,,,,,,,,,,,,,,,,images/exp1b_trial_63_colour2_distractors4_l.png,l,1,023,001,2021-04-22_21h25.17.154,searchDisc4,2020.2.10,Win32,60,,,space,0.63345,1,1,0.7717,,0,32,32,177,1,1b,63,2,4,
,,,,,,,,,,,,,,,,,,,,,,,,,,images/exp2a_trial_81_colour1_distractors43_r.png,r,2,023,001,2021-04-22_21h25.17.154,searchDisc4,2020.2.10,Win32,60,,,space,0.31261,2,1,0.53254,,0,33,33,309,1,2a,81,1,43,
,,,,,,,,,,,,,,,,,,,,,,,,,,images/exp1a_trial_45_colour2_distractors4_r.png,r,2,023,001,2021-04-22_21h25.17.154,searchDisc4,2020.2.10,Win32,60,,,space,0.305685,2,1,0.680545,,0,34,34,45,1,1a,45,2,4,
,,,,,,,,,,,,,,,,,,,,,,,,,,images/exp1b_trial_41_colour1_distractors19_r.png,r,2,023,001,2021-04-22_21h25.17.154,searchDisc4,2020.2.10,Win32,60,,,space,0.140045,2,1,0.899025,,0,35,35,155,1,1b,41,1,19,
,,,,,,,,,,,,,,,,,,,,,,,,,,images/exp1a_trial_17_colour3_distractors43_r.png,r,2,023,001,2021-04-22_21h25.17.154,searchDisc4,2020.2.10,Win32,60,,,space,0.246485,2,1,0.6789,,0,36,36,17,1,1a,17,3,43,
,,,,,,,,,,,,,,,,,,,,,,,,,,images/exp1b_trial_8_colour2_distractors9_r.png,r,2,023,001,2021-04-22_21h25.17.154,searchDisc4,2020.2.10,Win32,60,,,space,0.18695,2,1,0.57513,,0,37,37,122,1,1b,8,2,9,
,,,,,,,,,,,,,,,,,,,,,,,,,,images/exp2a_trial_71_colour3_distractors19_l.png,l,1,023,001,2021-04-22_21h25.17.154,searchDisc4,2020.2.10,Win32,60,,,space,0.17387,1,1,0.500985,,0,38,38,299,1,2a,71,3,19,
,,,,,,,,,,,,,,,,,,,,,,,,,,images/exp1b_trial_12_colour3_distractors1_r.png,r,2,023,001,2021-04-22_21h25.17.154,searchDisc4,2020.2.10,Win32,60,,,space,0.166325,2,1,0.735485,,0,39,39,126,1,1b,12,3,1,
,,,,,,,,,,,,,,,,,,,,,,,,,,images/exp2b_trial_10_colour2_distractors31_r.png,r,2,023,001,2021-04-22_21h25.17.154,searchDisc4,2020.2.10,Win32,60,,,space,0.13759,2,1,0.66289,,0,40,40,352,1,2b,10,2,31,
,,,,,,,,,,,,,,,,,,,,,,,,,,images/exp1a_trial_79_colour1_distractors19_r.png,r,2,023,001,2021-04-22_21h25.17.154,searchDisc4,2020.2.10,Win32,60,,,space,0.15466,2,1,0.57848,,0,41,41,79,1,1a,79,1,19,
,,,,,,,,,,,,,,,,,,,,,,,,,,images/exp2b_trial_66_colour2_distractors31_l.png,l,1,023,001,2021-04-22_21h25.17.154,searchDisc4,2020.2.10,Win32,60,,,space,0.22111,1,1,0.519965,,0,42,42,408,1,2b,66,2,31,
,,,,,,,,,,,,,,,,,,,,,,,,,,images/exp1b_trial_84_colour2_distractors9_r.png,r,2,023,001,2021-04-22_21h25.17.154,searchDisc4,2020.2.10,Win32,60,,,space,0.19057,2,1,0.939885,,0,43,43,198,1,1b,84,2,9,
,,,,,,,,,,,,,,,,,,,,,,,,,,images/exp1a_trial_46_colour2_distractors9_r.png,r,2,023,001,2021-04-22_21h25.17.154,searchDisc4,2020.2.10,Win32,60,,,space,0.219315,2,1,0.64466,,0,44,44,46,1,1a,46,2,9,
,,,,,,,,,,,,,,,,,,,,,,,,,,images/exp2c_trial_7_colour2_distractors4_r.png,r,2,023,001,2021-04-22_21h25.17.154,searchDisc4,2020.2.10,Win32,60,,,space,0.12361,2,1,0.64269,,0,45,45,463,1,2c,7,2,4,
,,,,,,,,,,,,,,,,,,,,,,,,,,images/exp2c_trial_78_colour1_distractors9_r.png,r,2,023,001,2021-04-22_21h25.17.154,searchDisc4,2020.2.10,Win32,60,,,space,0.199135,2,1,0.59633,,0,46,46,534,1,2c,78,1,9,
,,,,,,,,,,,,,,,,,,,,,,,,,,images/exp2b_trial_98_colour1_distractors31_l.png,l,1,023,001,2021-04-22_21h25.17.154,searchDisc4,2020.2.10,Win32,60,,,space,0.180395,1,1,0.573415,,0,47,47,440,1,2b,98,1,31,
,,,,,,,,,,,,,,,,,,,,,,,,,,images/exp2a_trial_59_colour1_distractors19_l.png,l,1,023,001,2021-04-22_21h25.17.154,searchDisc4,2020.2.10,Win32,60,,,space,0.19658,1,1,0.59974,,0,48,48,287,1,2a,59,1,19,
,,,,,,,,,,,,,,,,,,,,,,,,,,images/exp1b_trial_47_colour2_distractors19_r.png,r,2,023,001,2021-04-22_21h25.17.154,searchDisc4,2020.2.10,Win32,60,,,space,0.212545,2,1,0.60886,,0,49,49,161,1,1b,47,2,19,
,,,,,,,,,,,,,,,,,,,,,,,,,,images/exp2a_trial_32_colour3_distractors9_l.png,l,1,023,001,2021-04-22_21h25.17.154,searchDisc4,2020.2.10,Win32,60,,,space,0.133425,1,1,0.53275,,0,50,50,260,1,2a,32,3,9,
,,,,,,,,,,,,,,,,,,,,,,,,,,images/exp1a_trial_7_colour2_distractors4_r.png,r,2,023,001,2021-04-22_21h25.17.154,searchDisc4,2020.2.10,Win32,60,,,space,0.19985,2,1,0.465325,,0,51,51,7,1,1a,7,2,4,
,,,,,,,,,,,,,,,,,,,,,,,,,,images/exp2b_trial_34_colour3_distractors31_l.png,l,1,023,001,2021-04-22_21h25.17.154,searchDisc4,2020.2.10,Win32,60,,,space,0.150295,1,1,0.50096,,0,52,52,376,1,2b,34,3,31,
,,,,,,,,,,,,,,,,,,,,,,,,,,images/exp2c_trial_13_colour3_distractors4_r.png,r,2,023,001,2021-04-22_21h25.17.154,searchDisc4,2020.2.10,Win32,60,,,space,0.158875,2,1,0.53237,,0,53,53,469,1,2c,13,3,4,
,,,,,,,,,,,,,,,,,,,,,,,,,,images/exp2a_trial_43_colour1_distractors43_r.png,r,2,023,001,2021-04-22_21h25.17.154,searchDisc4,2020.2.10,Win32,60,,,space,0.1466,2,1,0.682155,,0,54,54,271,1,2a,43,1,43,
,,,,,,,,,,,,,,,,,,,,,,,,,,images/exp2c_trial_2_colour1_distractors9_r.png,r,2,023,001,2021-04-22_21h25.17.154,searchDisc4,2020.2.10,Win32,60,,,space,0.18346,2,1,0.405095,,0,55,55,458,1,2c,2,1,9,
,,,,,,,,,,,,,,,,,,,,,,,,,,images/exp1a_trial_86_colour2_distractors31_r.png,r,2,023,001,2021-04-22_21h25.17.154,searchDisc4,2020.2.10,Win32,60,,,space,0.203695,2,1,0.44,,0,56,56,86,1,1a,86,2,31,
,,,,,,,,,,,,,,,,,,,,,,,,,,images/exp1a_trial_111_colour3_distractors43_l.png,l,1,023,001,2021-04-22_21h25.17.154,searchDisc4,2020.2.10,Win32,60,,,space,0.217335,1,1,0.460185,,0,57,57,111,1,1a,111,3,43,
,,,,,,,,,,,,,,,,,,,,,,,,,,images/exp2b_trial_94_colour1_distractors1_l.png,l,1,023,001,2021-04-22_21h25.17.154,searchDisc4,2020.2.10,Win32,60,,,space,0.263795,2,0,0.4209,,0,58,58,436,1,2b,94,1,1,
,,,,,,,,,,,,,,,,,,,,,,,,,,images/exp1a_trial_65_colour2_distractors19_l.png,l,1,023,001,2021-04-22_21h25.17.154,searchDisc4,2020.2.10,Win32,60,,,space,0.51262,1,1,0.792185,space,0,59,59,65,1,1a,65,2,19,0.20528
,,,,,,,,,,,,,,,,,,,,,,,,,,images/exp1a_trial_58_colour1_distractors9_l.png,l,1,023,001,2021-04-22_21h25.17.154,searchDisc4,2020.2.10,Win32,60,,,space,0.84201,1,1,0.52869,,0,60,60,58,1,1a,58,1,9,
,,,,,,,,,,,,,,,,,,,,,,,,,,images/exp2a_trial_22_colour1_distractors31_l.png,l,1,023,001,2021-04-22_21h25.17.154,searchDisc4,2020.2.10,Win32,60,,,space,0.128735,1,1,0.508065,,0,61,61,250,1,2a,22,1,31,
,,,,,,,,,,,,,,,,,,,,,,,,,,images/exp2b_trial_106_colour3_distractors1_l.png,l,1,023,001,2021-04-22_21h25.17.154,searchDisc4,2020.2.10,Win32,60,,,space,0.087,1,1,0.67193,,0,62,62,448,1,2b,106,3,1,
,,,,,,,,,,,,,,,,,,,,,,,,,,images/exp1a_trial_105_colour2_distractors43_l.png,l,1,023,001,2021-04-22_21h25.17.154,searchDisc4,2020.2.10,Win32,60,,,space,0.14995,1,1,0.44436,,0,63,63,105,1,1a,105,2,43,
,,,,,,,,,,,,,,,,,,,,,,,,,,images/exp1a_trial_59_colour1_distractors19_l.png,l,1,023,001,2021-04-22_21h25.17.154,searchDisc4,2020.2.10,Win32,60,,,space,0.09056,1,1,0.52113,,0,64,64,59,1,1a,59,1,19,
,,,,,,,,,,,,,,,,,,,,,,,,,,images/exp1b_trial_38_colour1_distractors1_r.png,r,2,023,001,2021-04-22_21h25.17.154,searchDisc4,2020.2.10,Win32,60,,,space,0.083175,2,1,0.72252,,0,65,65,152,1,1b,38,1,1,
,,,,,,,,,,,,,,,,,,,,,,,,,,images/exp1a_trial_10_colour2_distractors31_r.png,r,2,023,001,2021-04-22_21h25.17.154,searchDisc4,2020.2.10,Win32,60,,,space,0.08344,2,1,0.56118,,0,66,66,10,1,1a,10,2,31,
,,,,,,,,,,,,,,,,,,,,,,,,,,images/exp1a_trial_4_colour1_distractors31_r.png,r,2,023,001,2021-04-22_21h25.17.154,searchDisc4,2020.2.10,Win32,60,,,space,0.014175,2,1,0.512665,,0,67,67,4,1,1a,4,1,31,
,,,,,,,,,,,,,,,,,,,,,,,,,,images/exp1b_trial_96_colour1_distractors9_l.png,l,1,023,001,2021-04-22_21h25.17.154,searchDisc4,2020.2.10,Win32,60,,,space,0.409015,1,1,0.68933,,0,68,68,210,1,1b,96,1,9,
,,,,,,,,,,,,,,,,,,,,,,,,,,images/exp2a_trial_69_colour3_distractors4_l.png,l,1,023,001,2021-04-22_21h25.17.154,searchDisc4,2020.2.10,Win32,60,,,space,0.08325,1,1,0.5415,,0,69,69,297,1,2a,69,3,4,
,,,,,,,,,,,,,,,,,,,,,,,,,,images/exp1a_trial_61_colour1_distractors43_l.png,l,1,023,001,2021-04-22_21h25.17.154,searchDisc4,2020.2.10,Win32,60,,,space,0.05274,1,1,0.498395,,0,70,70,61,1,1a,61,1,43,
,,,,,,,,,,,,,,,,,,,,,,,,,,images/exp1a_trial_80_colour1_distractors31_r.png,r,2,023,001,2021-04-22_21h25.17.154,searchDisc4,2020.2.10,Win32,60,,,space,0.119825,2,1,0.69382,,0,71,71,80,1,1a,80,1,31,
,,,,,,,,,,,,,,,,,,,,,,,,,,images/exp2c_trial_87_colour2_distractors43_r.png,r,2,023,001,2021-04-22_21h25.17.154,searchDisc4,2020.2.10,Win32,60,,,space,0.126035,2,1,0.601865,,0,72,72,543,1,2c,87,2,43,
,,,,,,,,,,,,,,,,,,,,,,,,,,images/exp2b_trial_103_colour2_distractors19_l.png,l,1,023,001,2021-04-22_21h25.17.154,searchDisc4,2020.2.10,Win32,60,,,space,0.070835,1,1,0.48605,,0,73,73,445,1,2b,103,2,19,
,,,,,,,,,,,,,,,,,,,,,,,,,,images/exp2c_trial_55_colour3_distractors43_r.png,r,2,023,001,2021-04-22_21h25.17.154,searchDisc4,2020.2.10,Win32,60,,,space,0.11387,2,1,0.88147,,0,74,74,511,1,2c,55,3,43,
,,,,,,,,,,,,,,,,,,,,,,,,,,images/exp2c_trial_77_colour1_distractors4_r.png,r,2,023,001,2021-04-22_21h25.17.154,searchDisc4,2020.2.10,Win32,60,,,space,0.06836,1,0,0.442085,,0,75,75,533,1,2c,77,1,4,
,,,,,,,,,,,,,,,,,,,,,,,,,,images/exp2a_trial_106_colour3_distractors1_l.png,l,1,023,001,2021-04-22_21h25.17.154,searchDisc4,2020.2.10,Win32,60,,,space,0.40111,1,1,0.428505,,0,76,76,334,1,2a,106,3,1,
,,,,,,,,,,,,,,,,,,,,,,,,,,images/exp1b_trial_100_colour2_distractors1_l.png,l,1,023,001,2021-04-22_21h25.17.154,searchDisc4,2020.2.10,Win32,60,,,space,0.07409,1,1,0.855535,,0,77,77,214,1,1b,100,2,1,
,,,,,,,,,,,,,,,,,,,,,,,,,,images/exp2c_trial_109_colour3_distractors19_l.png,l,1,023,001,2021-04-22_21h25.17.154,searchDisc4,2020.2.10,Win32,60,,,space,0.08864,1,1,0.82168,,0,78,78,565,1,2c,109,3,19,
,,,,,,,,,,,,,,,,,,,,,,,,,,images/exp2c_trial_52_colour3_distractors9_r.png,r,2,023,001,2021-04-22_21h25.17.154,searchDisc4,2020.2.10,Win32,60,,,space,0.09967,2,1,0.525445,,0,79,79,508,1,2c,52,3,9,
,,,,,,,,,,,,,,,,,,,,,,,,,,images/exp1b_trial_33_colour3_distractors19_l.png,l,1,023,001,2021-04-22_21h25.17.154,searchDisc4,2020.2.10,Win32,60,,,space,0.059345,2,0,1.20939,,0,80,80,147,1,1b,33,3,19,
,,,,,,,,,,,,,,,,,,,,,,,,,,images/exp1b_trial_72_colour3_distractors31_l.png,l,1,023,001,2021-04-22_21h25.17.154,searchDisc4,2020.2.10,Win32,60,,,space,0.062825,1,1,0.96104,,0,81,81,186,1,1b,72,3,31,
,,,,,,,,,,,,,,,,,,,,,,,,,,images/exp2b_trial_100_colour2_distractors1_l.png,l,1,023,001,2021-04-22_21h25.17.154,searchDisc4,2020.2.10,Win32,60,,,space,0.101855,1,1,0.68975,,0,82,82,442,1,2b,100,2,1,
,,,,,,,,,,,,,,,,,,,,,,,,,,images/exp2a_trial_29_colour2_distractors43_l.png,l,1,023,001,2021-04-22_21h25.17.154,searchDisc4,2020.2.10,Win32,60,,,space,0.136215,1,1,0.60463,,0,83,83,257,1,2a,29,2,43,
,,,,,,,,,,,,,,,,,,,,,,,,,,images/exp2b_trial_22_colour1_distractors31_l.png,l,1,023,001,2021-04-22_21h25.17.154,searchDisc4,2020.2.10,Win32,60,,,space,0.08566,1,1,0.598995,,0,84,84,364,1,2b,22,1,31,
,,,,,,,,,,,,,,,,,,,,,,,,,,images/exp2a_trial_72_colour3_distractors31_l.png,l,1,023,001,2021-04-22_21h25.17.154,searchDisc4,2020.2.10,Win32,60,,,space,0.028845,1,1,0.613815,,0,85,85,300,1,2a,72,3,31,
,,,,,,,,,,,,,,,,,,,,,,,,,,images/exp1b_trial_107_colour3_distractors4_l.png,l,1,023,001,2021-04-22_21h25.17.154,searchDisc4,2020.2.10,Win32,60,,,space,0.067565,1,1,0.847955,,0,86,86,221,1,1b,107,3,4,
,,,,,,,,,,,,,,,,,,,,,,,,,,images/exp1a_trial_88_colour3_distractors1_r.png,r,2,023,001,2021-04-22_21h25.17.154,searchDisc4,2020.2.10,Win32,60,,,space,0.005425,2,1,0.652085,,0,87,87,88,1,1a,88,3,1,
,,,,,,,,,,,,,,,,,,,,,,,,,,images/exp2c_trial_32_colour3_distractors9_l.png,l,1,023,001,2021-04-22_21h25.17.154,searchDisc4,2020.2.10,Win32,60,,,space,0.03933,1,1,0.533095,,0,88,88,488,1,2c,32,3,9,
,,,,,,,,,,,,,,,,,,,,,,,,,,images/exp2b_trial_105_colour2_distractors43_l.png,l,1,023,001,2021-04-22_21h25.17.154,searchDisc4,2020.2.10,Win32,60,,,space,0.05125,1,1,0.77515,,0,89,89,447,1,2b,105,2,43,
,,,,,,,,,,,,,,,,,,,,,,,,,,images/exp2b_trial_30_colour3_distractors1_l.png,l,1,023,001,2021-04-22_21h25.17.154,searchDisc4,2020.2.10,Win32,60,,,space,0.02904,1,1,0.738035,,0,90,90,372,1,2b,30,3,1,
,,,,,,,,,,,,,,,,,,,,,,,,,,images/exp1b_trial_20_colour1_distractors9_l.png,l,1,023,001,2021-04-22_21h25.17.154,searchDisc4,2020.2.10,Win32,60,,,space,0.46759,1,1,0.544695,,0,91,91,134,1,1b,20,1,9,
,,,,,,,,,,,,,,,,,,,,,,,,,,images/exp1b_trial_3_colour1_distractors19_r.png,r,2,023,001,2021-04-22_21h25.17.154,searchDisc4,2020.2.10,Win32,60,,,space,0.001195,2,1,0.764195,,0,92,92,117,1,1b,3,1,19,
,,,,,,,,,,,,,,,,,,,,,,,,,,images/exp2c_trial_67_colour2_distractors43_l.png,l,1,023,001,2021-04-22_21h25.17.154,searchDisc4,2020.2.10,Win32,60,,,space,0.02723,1,1,0.720155,,0,93,93,523,1,2c,67,2,43,
,,,,,,,,,,,,,,,,,,,,,,,,,,images/exp2a_trial_42_colour1_distractors31_r.png,r,2,023,001,2021-04-22_21h25.17.154,searchDisc4,2020.2.10,Win32,60,,,space,0.02234,2,1,0.679565,,0,94,94,270,1,2a,42,1,31,
,,,,,,,,,,,,,,,,,,,,,,,,,,images/exp2a_trial_111_colour3_distractors43_l.png,l,1,023,001,2021-04-22_21h25.17.154,searchDisc4,2020.2.10,Win32,60,,,space,0.56335,1,1,0.48683,,0,95,95,339,1,2a,111,3,43,
,,,,,,,,,,,,,,,,,,,,,,,,,,images/exp1a_trial_69_colour3_distractors4_l.png,l,1,023,001,2021-04-22_21h25.17.154,searchDisc4,2020.2.10,Win32,60,,,space,0.016705,1,1,0.759755,,0,96,96,69,1,1a,69,3,4,
,,,,,,,,,,,,,,,,,,,,,,,,,,images/exp2a_trial_85_colour2_distractors19_r.png,r,2,023,001,2021-04-22_21h25.17.154,searchDisc4,2020.2.10,Win32,60,,,space,0.45474,2,1,0.61717,,0,97,97,313,1,2a,85,2,19,
,,,,,,,,,,,,,,,,,,,,,,,,,,images/exp2b_trial_101_colour2_distractors4_l.png,l,1,023,001,2021-04-22_21h25.17.154,searchDisc4,2020.2.10,Win32,60,,,space,0.06747,1,1,0.7394,,0,98,98,443,1,2b,101,2,4,
,,,,,,,,,,,,,,,,,,,,,,,,,,images/exp1a_trial_23_colour1_distractors43_l.png,l,1,023,001,2021-04-22_21h25.17.154,searchDisc4,2020.2.10,Win32,60,,,space,0.130325,1,1,0.581925,,0,99,99,23,1,1a,23,1,43,
,,,,,,,,,,,,,,,,,,,,,,,,,,images/exp1b_trial_89_colour3_distractors4_r.png,r,2,023,001,2021-04-22_21h25.17.154,searchDisc4,2020.2.10,Win32,60,,,space,0.11499,1,0,0.91914,,0,100,100,203,1,1b,89,3,4,
,,,,,,,,,,,,,,,,,,,,,,,,,,images/exp2b_trial_83_colour2_distractors4_r.png,r,2,023,001,2021-04-22_21h25.17.154,searchDisc4,2020.2.10,Win32,60,,,space,0.196295,2,1,0.706615,,0,101,101,425,1,2b,83,2,4,
,,,,,,,,,,,,,,,,,,,,,,,,,,images/exp2c_trial_108_colour3_distractors9_l.png,l,1,023,001,2021-04-22_21h25.17.154,searchDisc4,2020.2.10,Win32,60,,,space,0.08535,1,1,0.94563,,0,102,102,564,1,2c,108,3,9,
,,,,,,,,,,,,,,,,,,,,,,,,,,images/exp2a_trial_25_colour2_distractors4_l.png,l,1,023,001,2021-04-22_21h25.17.154,searchDisc4,2020.2.10,Win32,60,,,space,0.38087,1,1,0.49925,,0,103,103,253,1,2a,25,2,4,
,,,,,,,,,,,,,,,,,,,,,,,,,,images/exp1b_trial_66_colour2_distractors31_l.png,l,1,023,001,2021-04-22_21h25.17.154,searchDisc4,2020.2.10,Win32,60,,,space,0.197845,1,1,0.83461,,0,104,104,180,1,1b,66,2,31,
,,,,,,,,,,,,,,,,,,,,,,,,,,images/exp1a_trial_95_colour1_distractors4_l.png,l,1,023,001,2021-04-22_21h25.17.154,searchDisc4,2020.2.10,Win32,60,,,space,0.030035,1,1,0.64146,,0,105,105,95,1,1a,95,1,4,
,,,,,,,,,,,,,,,,,,,,,,,,,,images/exp1a_trial_37_colour0_distractors0_l.png,l,1,023,001,2021-04-22_21h25.17.154,searchDisc4,2020.2.10,Win32,60,,,space,0.23896,1,1,0.55507,,0,106,106,37,1,1a,37,0,0,
,,,,,,,,,,,,,,,,,,,,,,,,,,images/exp1b_trial_50_colour3_distractors1_r.png,r,2,023,001,2021-04-22_21h25.17.154,searchDisc4,2020.2.10,Win32,60,,,space,0.227495,2,1,1.62405,,0,107,107,164,1,1b,50,3,1,
,,,,,,,,,,,,,,,,,,,,,,,,,,images/exp2a_trial_44_colour2_distractors1_r.png,r,2,023,001,2021-04-22_21h25.17.154,searchDisc4,2020.2.10,Win32,60,,,space,0.074745,2,1,0.89167,,0,108,108,272,1,2a,44,2,1,
,,,,,,,,,,,,,,,,,,,,,,,,,,images/exp1b_trial_10_colour2_distractors31_r.png,r,2,023,001,2021-04-22_21h25.17.154,searchDisc4,2020.2.10,Win32,60,,,space,0.214905,2,1,0.69619,,0,109,109,124,1,1b,10,2,31,
,,,,,,,,,,,,,,,,,,,,,,,,,,images/exp1a_trial_97_colour1_distractors19_l.png,l,1,023,001,2021-04-22_21h25.17.154,searchDisc4,2020.2.10,Win32,60,,,space,0.17501,1,1,0.67009,,0,110,110,97,1,1a,97,1,19,
,,,,,,,,,,,,,,,,,,,,,,,,,,images/exp1a_trial_83_colour2_distractors4_r.png,r,2,023,001,2021-04-22_21h25.17.154,searchDisc4,2020.2.10,Win32,60,,,space,0.10128,2,1,0.808965,,0,111,111,83,1,1a,83,2,4,
,,,,,,,,,,,,,,,,,,,,,,,,,,images/exp1a_trial_16_colour3_distractors31_r.png,r,2,023,001,2021-04-22_21h25.17.154,searchDisc4,2020.2.10,Win32,60,,,space,0.067975,2,1,0.74353,,0,112,112,16,1,1a,16,3,31,
,,,,,,,,,,,,,,,,,,,,,,,,,,images/exp2c_trial_51_colour3_distractors4_r.png,r,2,023,001,2021-04-22_21h25.17.154,searchDisc4,2020.2.10,Win32,60,,,space,0.1887,2,1,0.504495,,0,113,113,507,1,2c,51,3,4,
,,,,,,,,,,,,,,,,,,,,,,,,,,images/exp2a_trial_75_colour0_distractors0_l.png,l,1,023,001,2021-04-22_21h25.17.154,searchDisc4,2020.2.10,Win32,60,,,space,0.187535,1,1,0.42518,,0,114,114,303,1,2a,75,0,0,
,,,,,,,,,,,,,,,,,,,,,,,,,,images/exp1b_trial_48_colour2_distractors31_r.png,r,2,023,001,2021-04-22_21h25.17.154,searchDisc4,2020.2.10,Win32,60,,,space,0.198365,2,1,0.638075,,0,115,115,162,1,1b,48,2,31,
,,,,,,,,,,,,,,,,,,,,,,,,,,images/exp1a_trial_108_colour3_distractors9_l.png,l,1,023,001,2021-04-22_21h25.17.154,searchDisc4,2020.2.10,Win32,60,,,space,0.27917,1,1,0.4576,,0,116,116,108,1,1a,108,3,9,
,,,,,,,,,,,,,,,,,,,,,,,,,,images/exp1b_trial_90_colour3_distractors9_r.png,r,2,023,001,2021-04-22_21h25.17.154,searchDisc4,2020.2.10,Win32,60,,,space,0.184785,2,1,0.501795,,0,117,117,204,1,1b,90,3,9,
,,,,,,,,,,,,,,,,,,,,,,,,,,images/exp2b_trial_7_colour2_distractors4_r.png,r,2,023,001,2021-04-22_21h25.17.154,searchDisc4,2020.2.10,Win32,60,,,space,0.14271,2,1,0.736965,,0,118,118,349,1,2b,7,2,4,
,,,,,,,,,,,,,,,,,,,,,,,,,,images/exp2c_trial_80_colour1_distractors31_r.png,r,2,023,001,2021-04-22_21h25.17.154,searchDisc4,2020.2.10,Win32,60,,,space,0.09012,2,1,0.616225,space,0,119,119,536,1,2c,80,1,31,0.11359
,,,,,,,,,,,,,,,,,,,,,,,,,,images/exp2b_trial_92_colour3_distractors31_r.png,r,2,023,001,2021-04-22_21h25.17.154,searchDisc4,2020.2.10,Win32,60,,,space,0.636175,2,1,0.6814,,0,120,120,434,1,2b,92,3,31,
,,,,,,,,,,,,,,,,,,,,,,,,,,images/exp2a_trial_105_colour2_distractors43_l.png,l,1,023,001,2021-04-22_21h25.17.154,searchDisc4,2020.2.10,Win32,60,,,space,0.074685,1,1,0.542295,,0,121,121,333,1,2a,105,2,43,
,,,,,,,,,,,,,,,,,,,,,,,,,,images/exp2b_trial_36_colour0_distractors0_r.png,r,2,023,001,2021-04-22_21h25.17.154,searchDisc4,2020.2.10,Win32,60,,,space,0.10624,2,1,0.45126,,0,122,122,378,1,2b,36,0,0,
,,,,,,,,,,,,,,,,,,,,,,,,,,images/exp2b_trial_113_colour0_distractors0_l.png,l,1,023,001,2021-04-22_21h25.17.154,searchDisc4,2020.2.10,Win32,60,,,space,0.13387,1,1,0.48799,,0,123,123,455,1,2b,113,0,0,
,,,,,,,,,,,,,,,,,,,,,,,,,,images/exp2b_trial_28_colour2_distractors31_l.png,l,1,023,001,2021-04-22_21h25.17.154,searchDisc4,2020.2.10,Win32,60,,,space,0.175155,2,0,0.41005,,0,124,124,370,1,2b,28,2,31,
,,,,,,,,,,,,,,,,,,,,,,,,,,images/exp2a_trial_41_colour1_distractors19_r.png,r,2,023,001,2021-04-22_21h25.17.154,searchDisc4,2020.2.10,Win32,60,,,space,0.51958,2,1,0.560325,,0,125,125,269,1,2a,41,1,19,
,,,,,,,,,,,,,,,,,,,,,,,,,,images/exp2a_trial_102_colour2_distractors9_l.png,l,1,023,001,2021-04-22_21h25.17.154,searchDisc4,2020.2.10,Win32,60,,,space,0.077365,1,1,0.51628,,0,126,126,330,1,2a,102,2,9,
,,,,,,,,,,,,,,,,,,,,,,,,,,images/exp2c_trial_16_colour3_distractors31_r.png,r,2,023,001,2021-04-22_21h25.17.154,searchDisc4,2020.2.10,Win32,60,,,space,0.198795,2,1,0.4257,,0,127,127,472,1,2c,16,3,31,
,,,,,,,,,,,,,,,,,,,,,,,,,,images/exp1a_trial_67_colour2_distractors43_l.png,l,1,023,001,2021-04-22_21h25.17.154,searchDisc4,2020.2.10,Win32,60,,,space,0.1716,1,1,0.592635,,0,128,128,67,1,1a,67,2,43,
,,,,,,,,,,,,,,,,,,,,,,,,,,images/exp1b_trial_81_colour1_distractors43_r.png,r,2,023,001,2021-04-22_21h25.17.154,searchDisc4,2020.2.10,Win32,60,,,space,0.11276,2,1,0.63166,,0,129,129,195,1,1b,81,1,43,
,,,,,,,,,,,,,,,,,,,,,,,,,,images/exp1a_trial_91_colour3_distractors19_r.png,r,2,023,001,2021-04-22_21h25.17.154,searchDisc4,2020.2.10,Win32,60,,,space,0.113845,2,1,0.652225,,0,130,130,91,1,1a,91,3,19,
,,,,,,,,,,,,,,,,,,,,,,,,,,images/exp2a_trial_27_colour2_distractors19_l.png,l,1,023,001,2021-04-22_21h25.17.154,searchDisc4,2020.2.10,Win32,60,,,space,0.153705,1,1,0.530485,,0,131,131,255,1,2a,27,2,19,
,,,,,,,,,,,,,,,,,,,,,,,,,,images/exp2b_trial_23_colour1_distractors43_l.png,l,1,023,001,2021-04-22_21h25.17.154,searchDisc4,2020.2.10,Win32,60,,,space,0.142755,1,1,0.518495,,0,132,132,365,1,2b,23,1,43,
,,,,,,,,,,,,,,,,,,,,,,,,,,images/exp1a_trial_52_colour3_distractors9_r.png,r,2,023,001,2021-04-22_21h25.17.154,searchDisc4,2020.2.10,Win32,60,,,space,0.18026,2,1,0.669015,,0,133,133,52,1,1a,52,3,9,
,,,,,,,,,,,,,,,,,,,,,,,,,,images/exp1b_trial_52_colour3_distractors9_r.png,r,2,023,001,2021-04-22_21h25.17.154,searchDisc4,2020.2.10,Win32,60,,,space,0.198355,2,1,0.720315,,0,134,134,166,1,1b,52,3,9,
,,,,,,,,,,,,,,,,,,,,,,,,,,images/exp2a_trial_54_colour3_distractors31_r.png,r,2,023,001,2021-04-22_21h25.17.154,searchDisc4,2020.2.10,Win32,60,,,space,0.19066,2,1,0.66625,,0,135,135,282,1,2a,54,3,31,
,,,,,,,,,,,,,,,,,,,,,,,,,,images/exp1a_trial_22_colour1_distractors31_l.png,l,1,023,001,2021-04-22_21h25.17.154,searchDisc4,2020.2.10,Win32,60,,,space,0.160035,1,1,0.539705,,0,136,136,22,1,1a,22,1,31,
,,,,,,,,,,,,,,,,,,,,,,,,,,images/exp2b_trial_80_colour1_distractors31_r.png,r,2,023,001,2021-04-22_21h25.17.154,searchDisc4,2020.2.10,Win32,60,,,space,0.18353,2,1,0.636475,,0,137,137,422,1,2b,80,1,31,
,,,,,,,,,,,,,,,,,,,,,,,,,,images/exp2b_trial_14_colour3_distractors9_r.png,r,2,023,001,2021-04-22_21h25.17.154,searchDisc4,2020.2.10,Win32,60,,,space,0.126345,2,1,0.564235,,0,138,138,356,1,2b,14,3,9,
,,,,,,,,,,,,,,,,,,,,,,,,,,images/exp2a_trial_91_colour3_distractors19_r.png,r,2,023,001,2021-04-22_21h25.17.154,searchDisc4,2020.2.10,Win32,60,,,space,0.16752,2,1,0.528945,,0,139,139,319,1,2a,91,3,19,
,,,,,,,,,,,,,,,,,,,,,,,,,,images/exp1a_trial_104_colour2_distractors31_l.png,l,1,023,001,2021-04-22_21h25.17.154,searchDisc4,2020.2.10,Win32,60,,,space,0.177405,1,1,0.63646,,0,140,140,104,1,1a,104,2,31,
,,,,,,,,,,,,,,,,,,,,,,,,,,images/exp2c_trial_28_colour2_distractors31_l.png,l,1,023,001,2021-04-22_21h25.17.154,searchDisc4,2020.2.10,Win32,60,,,space,0.205755,2,0,0.591415,,0,141,141,484,1,2c,28,2,31,
,,,,,,,,,,,,,,,,,,,,,,,,,,images/exp2b_trial_8_colour2_distractors9_r.png,r,2,023,001,2021-04-22_21h25.17.154,searchDisc4,2020.2.10,Win32,60,,,space,0.492825,2,1,0.623515,,0,142,142,350,1,2b,8,2,9,
,,,,,,,,,,,,,,,,,,,,,,,,,,images/exp1b_trial_91_colour3_distractors19_r.png,r,2,023,001,2021-04-22_21h25.17.154,searchDisc4,2020.2.10,Win32,60,,,space,0.208985,2,1,2.53019,,0,143,143,205,1,1b,91,3,19,
,,,,,,,,,,,,,,,,,,,,,,,,,,images/exp1a_trial_28_colour2_distractors31_l.png,l,1,023,001,2021-04-22_21h25.17.154,searchDisc4,2020.2.10,Win32,60,,,space,0.09654,1,1,1.565885,,0,144,144,28,1,1a,28,2,31,
,,,,,,,,,,,,,,,,,,,,,,,,,,images/exp1a_trial_77_colour1_distractors4_r.png,r,2,023,001,2021-04-22_21h25.17.154,searchDisc4,2020.2.10,Win32,60,,,space,0.115095,2,1,0.57785,,0,145,145,77,1,1a,77,1,4,
,,,,,,,,,,,,,,,,,,,,,,,,,,images/exp1b_trial_97_colour1_distractors19_l.png,l,1,023,001,2021-04-22_21h25.17.154,searchDisc4,2020.2.10,Win32,60,,,space,0.12061,1,1,0.67445,,0,146,146,211,1,1b,97,1,19,
,,,,,,,,,,,,,,,,,,,,,,,,,,images/exp2a_trial_83_colour2_distractors4_r.png,r,2,023,001,2021-04-22_21h25.17.154,searchDisc4,2020.2.10,Win32,60,,,space,0.111315,2,1,0.57656,,0,147,147,311,1,2a,83,2,4,
,,,,,,,,,,,,,,,,,,,,,,,,,,images/exp1b_trial_22_colour1_distractors31_l.png,l,1,023,001,2021-04-22_21h25.17.154,searchDisc4,2020.2.10,Win32,60,,,space,0.31774,1,1,0.74028,,0,148,148,136,1,1b,22,1,31,
,,,,,,,,,,,,,,,,,,,,,,,,,,images/exp1b_trial_32_colour3_distractors9_l.png,l,1,023,001,2021-04-22_21h25.17.154,searchDisc4,2020.2.10,Win32,60,,,space,0.18026,1,1,1.736695,,0,149,149,146,1,1b,32,3,9,
,,,,,,,,,,,,,,,,,,,,,,,,,,images/exp2c_trial_25_colour2_distractors4_l.png,l,1,023,001,2021-04-22_21h25.17.154,searchDisc4,2020.2.10,Win32,60,,,space,0.150425,1,1,0.798025,,0,150,150,481,1,2c,25,2,4,
,,,,,,,,,,,,,,,,,,,,,,,,,,images/exp2b_trial_109_colour3_distractors19_l.png,l,1,023,001,2021-04-22_21h25.17.154,searchDisc4,2020.2.10,Win32,60,,,space,0.11054,1,1,0.604585,,0,151,151,451,1,2b,109,3,19,
,,,,,,,,,,,,,,,,,,,,,,,,,,images/exp2b_trial_96_colour1_distractors9_l.png,l,1,023,001,2021-04-22_21h25.17.154,searchDisc4,2020.2.10,Win32,60,,,space,0.15774,1,1,0.55044,,0,152,152,438,1,2b,96,1,9,
,,,,,,,,,,,,,,,,,,,,,,,,,,images/exp2b_trial_49_colour2_distractors43_r.png,r,2,023,001,2021-04-22_21h25.17.154,searchDisc4,2020.2.10,Win32,60,,,space,0.1163,2,1,0.582575,,0,153,153,391,1,2b,49,2,43,
,,,,,,,,,,,,,,,,,,,,,,,,,,images/exp2b_trial_79_colour1_distractors19_r.png,r,2,023,001,2021-04-22_21h25.17.154,searchDisc4,2020.2.10,Win32,60,,,space,0.087355,2,1,0.487595,,0,154,154,421,1,2b,79,1,19,
,,,,,,,,,,,,,,,,,,,,,,,,,,images/exp2a_trial_87_colour2_distractors43_r.png,r,2,023,001,2021-04-22_21h25.17.154,searchDisc4,2020.2.10,Win32,60,,,space,0.118345,2,1,0.488735,,0,155,155,315,1,2a,87,2,43,
,,,,,,,,,,,,,,,,,,,,,,,,,,images/exp2c_trial_111_colour3_distractors43_l.png,l,1,023,001,2021-04-22_21h25.17.154,searchDisc4,2020.2.10,Win32,60,,,space,0.145545,1,1,0.49216,,0,156,156,567,1,2c,111,3,43,
,,,,,,,,,,,,,,,,,,,,,,,,,,images/exp2b_trial_31_colour3_distractors4_l.png,l,1,023,001,2021-04-22_21h25.17.154,searchDisc4,2020.2.10,Win32,60,,,space,0.14269,1,1,0.47083,,0,157,157,373,1,2b,31,3,4,
,,,,,,,,,,,,,,,,,,,,,,,,,,images/exp2c_trial_63_colour2_distractors4_l.png,l,1,023,001,2021-04-22_21h25.17.154,searchDisc4,2020.2.10,Win32,60,,,space,0.12666,1,1,0.529555,,0,158,158,519,1,2c,63,2,4,
,,,,,,,,,,,,,,,,,,,,,,,,,,images/exp2b_trial_51_colour3_distractors4_r.png,r,2,023,001,2021-04-22_21h25.17.154,searchDisc4,2020.2.10,Win32,60,,,space,0.18224,1,0,0.550015,,0,159,159,393,1,2b,51,3,4,
,,,,,,,,,,,,,,,,,,,,,,,,,,images/exp2c_trial_38_colour1_distractors1_r.png,r,2,023,001,2021-04-22_21h25.17.154,searchDisc4,2020.2.10,Win32,60,,,space,0.11297,2,1,0.56464,,0,160,160,494,1,2c,38,1,1,
,,,,,,,,,,,,,,,,,,,,,,,,,,images/exp1a_trial_76_colour1_distractors1_r.png,r,2,023,001,2021-04-22_21h25.17.154,searchDisc4,2020.2.10,Win32,60,,,space,0.11756,1,0,0.419855,,0,161,161,76,1,1a,76,1,1,
,,,,,,,,,,,,,,,,,,,,,,,,,,images/exp1b_trial_75_colour0_distractors0_l.png,l,1,023,001,2021-04-22_21h25.17.154,searchDisc4,2020.2.10,Win32,60,,,space,0.37773,1,1,0.45806,,0,162,162,189,1,1b,75,0,0,
,,,,,,,,,,,,,,,,,,,,,,,,,,images/exp1a_trial_48_colour2_distractors31_r.png,r,2,023,001,2021-04-22_21h25.17.154,searchDisc4,2020.2.10,Win32,60,,,space,0.12362,2,1,0.491105,,0,163,163,48,1,1a,48,2,31,
,,,,,,,,,,,,,,,,,,,,,,,,,,images/exp2b_trial_95_colour1_distractors4_l.png,l,1,023,001,2021-04-22_21h25.17.154,searchDisc4,2020.2.10,Win32,60,,,space,0.103275,1,1,0.486875,,0,164,164,437,1,2b,95,1,4,
,,,,,,,,,,,,,,,,,,,,,,,,,,images/exp2c_trial_40_colour1_distractors9_r.png,r,2,023,001,2021-04-22_21h25.17.154,searchDisc4,2020.2.10,Win32,60,,,space,0.1214,2,1,0.52763,,0,165,165,496,1,2c,40,1,9,
,,,,,,,,,,,,,,,,,,,,,,,,,,images/exp2b_trial_45_colour2_distractors4_r.png,r,2,023,001,2021-04-22_21h25.17.154,searchDisc4,2020.2.10,Win32,60,,,space,0.16387,2,1,0.442885,,0,166,166,387,1,2b,45,2,4,
,,,,,,,,,,,,,,,,,,,,,,,,,,images/exp2a_trial_112_colour0_distractors0_r.png,r,2,023,001,2021-04-22_21h25.17.154,searchDisc4,2020.2.10,Win32,60,,,space,0.12483,2,1,0.446085,,0,167,167,340,1,2a,112,0,0,
,,,,,,,,,,,,,,,,,,,,,,,,,,images/exp1b_trial_85_colour2_distractors19_r.png,r,2,023,001,2021-04-22_21h25.17.154,searchDisc4,2020.2.10,Win32,60,,,space,0.15643,2,1,0.73544,,0,168,168,199,1,1b,85,2,19,
,,,,,,,,,,,,,,,,,,,,,,,,,,images/exp1a_trial_44_colour2_distractors1_r.png,r,2,023,001,2021-04-22_21h25.17.154,searchDisc4,2020.2.10,Win32,60,,,space,0.10782,2,1,0.495315,,0,169,169,44,1,1a,44,2,1,
,,,,,,,,,,,,,,,,,,,,,,,,,,images/exp2c_trial_69_colour3_distractors4_l.png,l,1,023,001,2021-04-22_21h25.17.154,searchDisc4,2020.2.10,Win32,60,,,space,0.172625,1,1,0.550005,,0,170,170,525,1,2c,69,3,4,
,,,,,,,,,,,,,,,,,,,,,,,,,,images/exp2c_trial_94_colour1_distractors1_l.png,l,1,023,001,2021-04-22_21h25.17.154,searchDisc4,2020.2.10,Win32,60,,,space,0.111715,1,1,0.53677,,0,171,171,550,1,2c,94,1,1,
,,,,,,,,,,,,,,,,,,,,,,,,,,images/exp1a_trial_75_colour0_distractors0_l.png,l,1,023,001,2021-04-22_21h25.17.154,searchDisc4,2020.2.10,Win32,60,,,space,0.09537,1,1,0.633145,,0,172,172,75,1,1a,75,0,0,
,,,,,,,,,,,,,,,,,,,,,,,,,,images/exp2b_trial_111_colour3_distractors43_l.png,l,1,023,001,2021-04-22_21h25.17.154,searchDisc4,2020.2.10,Win32,60,,,space,0.119,2,0,0.47088,,0,173,173,453,1,2b,111,3,43,
,,,,,,,,,,,,,,,,,,,,,,,,,,images/exp2a_trial_113_colour0_distractors0_l.png,l,1,023,001,2021-04-22_21h25.17.154,searchDisc4,2020.2.10,Win32,60,,,space,0.428425,1,1,0.383875,,0,174,174,341,1,2a,113,0,0,
,,,,,,,,,,,,,,,,,,,,,,,,,,images/exp2b_trial_85_colour2_distractors19_r.png,r,2,023,001,2021-04-22_21h25.17.154,searchDisc4,2020.2.10,Win32,60,,,space,0.106325,2,1,0.533035,,0,175,175,427,1,2b,85,2,19,
,,,,,,,,,,,,,,,,,,,,,,,,,,images/exp1a_trial_21_colour1_distractors19_l.png,l,1,023,001,2021-04-22_21h25.17.154,searchDisc4,2020.2.10,Win32,60,,,space,0.209975,1,1,0.631975,,0,176,176,21,1,1a,21,1,19,
,,,,,,,,,,,,,,,,,,,,,,,,,,images/exp2b_trial_57_colour1_distractors4_l.png,l,1,023,001,2021-04-22_21h25.17.154,searchDisc4,2020.2.10,Win32,60,,,space,0.07108,1,1,0.511635,,0,177,177,399,1,2b,57,1,4,
,,,,,,,,,,,,,,,,,,,,,,,,,,images/exp2b_trial_73_colour3_distractors43_l.png,l,1,023,001,2021-04-22_21h25.17.154,searchDisc4,2020.2.10,Win32,60,,,space,0.133705,1,1,0.807595,,0,178,178,415,1,2b,73,3,43,
,,,,,,,,,,,,,,,,,,,,,,,,,,images/exp1b_trial_14_colour3_distractors9_r.png,r,2,023,001,2021-04-22_21h25.17.154,searchDisc4,2020.2.10,Win32,60,,,space,0.084135,1,0,0.687515,space,0,179,179,128,1,1b,14,3,9,0.000995
,,,,,,,,,,,,,,,,,,,,,,,,,,images/exp2c_trial_4_colour1_distractors31_r.png,r,2,023,001,2021-04-22_21h25.17.154,searchDisc4,2020.2.10,Win32,60,,,space,0.306095,2,1,0.585065,,0,180,180,460,1,2c,4,1,31,
,,,,,,,,,,,,,,,,,,,,,,,,,,images/exp1b_trial_53_colour3_distractors19_r.png,r,2,023,001,2021-04-22_21h25.17.154,searchDisc4,2020.2.10,Win32,60,,,space,0.104155,1,0,1.87209,,0,181,181,167,1,1b,53,3,19,
,,,,,,,,,,,,,,,,,,,,,,,,,,images/exp1b_trial_68_colour3_distractors1_l.png,l,1,023,001,2021-04-22_21h25.17.154,searchDisc4,2020.2.10,Win32,60,,,space,0.19812,1,1,0.89899,,0,182,182,182,1,1b,68,3,1,
,,,,,,,,,,,,,,,,,,,,,,,,,,images/exp2a_trial_90_colour3_distractors9_r.png,r,2,023,001,2021-04-22_21h25.17.154,searchDisc4,2020.2.10,Win32,60,,,space,0.091315,2,1,0.703335,,0,183,183,318,1,2a,90,3,9,
,,,,,,,,,,,,,,,,,,,,,,,,,,images/exp2c_trial_42_colour1_distractors31_r.png,r,2,023,001,2021-04-22_21h25.17.154,searchDisc4,2020.2.10,Win32,60,,,space,0.119875,2,1,0.54846,,0,184,184,498,1,2c,42,1,31,
,,,,,,,,,,,,,,,,,,,,,,,,,,images/exp2c_trial_49_colour2_distractors43_r.png,r,2,023,001,2021-04-22_21h25.17.154,searchDisc4,2020.2.10,Win32,60,,,space,0.09832,2,1,0.461215,,0,185,185,505,1,2c,49,2,43,
,,,,,,,,,,,,,,,,,,,,,,,,,,images/exp2a_trial_47_colour2_distractors19_r.png,r,2,023,001,2021-04-22_21h25.17.154,searchDisc4,2020.2.10,Win32,60,,,space,0.138955,2,1,0.575715,,0,186,186,275,1,2a,47,2,19,
,,,,,,,,,,,,,,,,,,,,,,,,,,images/exp2c_trial_66_colour2_distractors31_l.png,l,1,023,001,2021-04-22_21h25.17.154,searchDisc4,2020.2.10,Win32,60,,,space,0.23343,2,0,0.44359,,0,187,187,522,1,2c,66,2,31,
,,,,,,,,,,,,,,,,,,,,,,,,,,images/exp1b_trial_4_colour1_distractors31_r.png,r,2,023,001,2021-04-22_21h25.17.154,searchDisc4,2020.2.10,Win32,60,,,space,0.41357,2,1,0.971915,,0,188,188,118,1,1b,4,1,31,
,,,,,,,,,,,,,,,,,,,,,,,,,,images/exp2a_trial_13_colour3_distractors4_r.png,r,2,023,001,2021-04-22_21h25.17.154,searchDisc4,2020.2.10,Win32,60,,,space,0.115715,2,1,0.703155,,0,189,189,241,1,2a,13,3,4,
,,,,,,,,,,,,,,,,,,,,,,,,,,images/exp2a_trial_40_colour1_distractors9_r.png,r,2,023,001,2021-04-22_21h25.17.154,searchDisc4,2020.2.10,Win32,60,,,space,0.09461,2,1,0.60294,,0,190,190,268,1,2a,40,1,9,
,,,,,,,,,,,,,,,,,,,,,,,,,,images/exp2c_trial_97_colour1_distractors19_l.png,l,1,023,001,2021-04-22_21h25.17.154,searchDisc4,2020.2.10,Win32,60,,,space,0.195935,1,1,0.59836,,0,191,191,553,1,2c,97,1,19,
,,,,,,,,,,,,,,,,,,,,,,,,,,images/exp2a_trial_80_colour1_distractors31_r.png,r,2,023,001,2021-04-22_21h25.17.154,searchDisc4,2020.2.10,Win32,60,,,space,0.07397,2,1,0.534425,,0,192,192,308,1,2a,80,1,31,
,,,,,,,,,,,,,,,,,,,,,,,,,,images/exp1a_trial_90_colour3_distractors9_r.png,r,2,023,001,2021-04-22_21h25.17.154,searchDisc4,2020.2.10,Win32,60,,,space,0.15012,2,1,0.693395,,0,193,193,90,1,1a,90,3,9,
,,,,,,,,,,,,,,,,,,,,,,,,,,images/exp2b_trial_68_colour3_distractors1_l.png,l,1,023,001,2021-04-22_21h25.17.154,searchDisc4,2020.2.10,Win32,60,,,space,0.068765,1,1,0.566825,,0,194,194,410,1,2b,68,3,1,
,,,,,,,,,,,,,,,,,,,,,,,,,,images/exp2c_trial_81_colour1_distractors43_r.png,r,2,023,001,2021-04-22_21h25.17.154,searchDisc4,2020.2.10,Win32,60,,,space,0.03881,2,1,0.4798,,0,195,195,537,1,2c,81,1,43,
,,,,,,,,,,,,,,,,,,,,,,,,,,images/exp1a_trial_24_colour2_distractors1_l.png,l,1,023,001,2021-04-22_21h25.17.154,searchDisc4,2020.2.10,Win32,60,,,space,0.066475,1,1,0.60078,,0,196,196,24,1,1a,24,2,1,
,,,,,,,,,,,,,,,,,,,,,,,,,,images/exp2a_trial_68_colour3_distractors1_l.png,l,1,023,001,2021-04-22_21h25.17.154,searchDisc4,2020.2.10,Win32,60,,,space,0.125,1,1,0.512495,,0,197,197,296,1,2a,68,3,1,
,,,,,,,,,,,,,,,,,,,,,,,,,,images/exp2a_trial_95_colour1_distractors4_l.png,l,1,023,001,2021-04-22_21h25.17.154,searchDisc4,2020.2.10,Win32,60,,,space,0.070135,1,1,0.67684,,0,198,198,323,1,2a,95,1,4,
,,,,,,,,,,,,,,,,,,,,,,,,,,images/exp2a_trial_57_colour1_distractors4_l.png,l,1,023,001,2021-04-22_21h25.17.154,searchDisc4,2020.2.10,Win32,60,,,space,0.069585,1,1,0.559875,,0,199,199,285,1,2a,57,1,4,
,,,,,,,,,,,,,,,,,,,,,,,,,,images/exp1a_trial_26_colour2_distractors9_l.png,l,1,023,001,2021-04-22_21h25.17.154,searchDisc4,2020.2.10,Win32,60,,,space,0.118075,1,1,0.582195,,0,200,200,26,1,1a,26,2,9,
,,,,,,,,,,,,,,,,,,,,,,,,,,images/exp1b_trial_19_colour1_distractors4_l.png,l,1,023,001,2021-04-22_21h25.17.154,searchDisc4,2020.2.10,Win32,60,,,space,0.11998,1,1,0.58925,,0,201,201,133,1,1b,19,1,4,
,,,,,,,,,,,,,,,,,,,,,,,,,,images/exp2b_trial_44_colour2_distractors1_r.png,r,2,023,001,2021-04-22_21h25.17.154,searchDisc4,2020.2.10,Win32,60,,,space,0.136385,2,1,0.457645,,0,202,202,386,1,2b,44,2,1,
,,,,,,,,,,,,,,,,,,,,,,,,,,images/exp2c_trial_93_colour3_distractors43_r.png,r,2,023,001,2021-04-22_21h25.17.154,searchDisc4,2020.2.10,Win32,60,,,space,0.12373,2,1,0.462035,,0,203,203,549,1,2c,93,3,43,
,,,,,,,,,,,,,,,,,,,,,,,,,,images/exp2c_trial_60_colour1_distractors31_l.png,l,1,023,001,2021-04-22_21h25.17.154,searchDisc4,2020.2.10,Win32,60,,,space,0.11444,1,1,0.53734,,0,204,204,516,1,2c,60,1,31,
,,,,,,,,,,,,,,,,,,,,,,,,,,images/exp2c_trial_104_colour2_distractors31_l.png,l,1,023,001,2021-04-22_21h25.17.154,searchDisc4,2020.2.10,Win32,60,,,space,0.124845,1,1,0.53616,,0,205,205,560,1,2c,104,2,31,
,,,,,,,,,,,,,,,,,,,,,,,,,,images/exp2a_trial_86_colour2_distractors31_r.png,r,2,023,001,2021-04-22_21h25.17.154,searchDisc4,2020.2.10,Win32,60,,,space,0.096385,1,0,0.549015,,0,206,206,314,1,2a,86,2,31,
,,,,,,,,,,,,,,,,,,,,,,,,,,images/exp1b_trial_57_colour1_distractors4_l.png,l,1,023,001,2021-04-22_21h25.17.154,searchDisc4,2020.2.10,Win32,60,,,space,0.41629,1,1,0.578505,,0,207,207,171,1,1b,57,1,4,
,,,,,,,,,,,,,,,,,,,,,,,,,,images/exp2c_trial_5_colour1_distractors43_r.png,r,2,023,001,2021-04-22_21h25.17.154,searchDisc4,2020.2.10,Win32,60,,,space,0.08216,2,1,0.51856,,0,208,208,461,1,2c,5,1,43,
,,,,,,,,,,,,,,,,,,,,,,,,,,images/exp2b_trial_43_colour1_distractors43_r.png,r,2,023,001,2021-04-22_21h25.17.154,searchDisc4,2020.2.10,Win32,60,,,space,0.094945,2,1,0.65936,,0,209,209,385,1,2b,43,1,43,
,,,,,,,,,,,,,,,,,,,,,,,,,,images/exp2a_trial_1_colour1_distractors4_r.png,r,2,023,001,2021-04-22_21h25.17.154,searchDisc4,2020.2.10,Win32,60,,,space,0.08808,2,1,0.76451,,0,210,210,229,1,2a,1,1,4,
,,,,,,,,,,,,,,,,,,,,,,,,,,images/exp2c_trial_86_colour2_distractors31_r.png,r,2,023,001,2021-04-22_21h25.17.154,searchDisc4,2020.2.10,Win32,60,,,space,0.069235,2,1,0.737725,,0,211,211,542,1,2c,86,2,31,
,,,,,,,,,,,,,,,,,,,,,,,,,,images/exp2c_trial_64_colour2_distractors9_l.png,l,1,023,001,2021-04-22_21h25.17.154,searchDisc4,2020.2.10,Win32,60,,,space,0.138475,1,1,0.661495,,0,212,212,520,1,2c,64,2,9,
,,,,,,,,,,,,,,,,,,,,,,,,,,images/exp2b_trial_13_colour3_distractors4_r.png,r,2,023,001,2021-04-22_21h25.17.154,searchDisc4,2020.2.10,Win32,60,,,space,0.13854,2,1,0.731405,,0,213,213,355,1,2b,13,3,4,
,,,,,,,,,,,,,,,,,,,,,,,,,,images/exp1b_trial_51_colour3_distractors4_r.png,r,2,023,001,2021-04-22_21h25.17.154,searchDisc4,2020.2.10,Win32,60,,,space,0.190615,2,1,0.972305,,0,214,214,165,1,1b,51,3,4,
,,,,,,,,,,,,,,,,,,,,,,,,,,images/exp1b_trial_65_colour2_distractors19_l.png,l,1,023,001,2021-04-22_21h25.17.154,searchDisc4,2020.2.10,Win32,60,,,space,0.13543,1,1,1.514525,,0,215,215,179,1,1b,65,2,19,
,,,,,,,,,,,,,,,,,,,,,,,,,,images/exp2c_trial_57_colour1_distractors4_l.png,l,1,023,001,2021-04-22_21h25.17.154,searchDisc4,2020.2.10,Win32,60,,,space,0.13028,1,1,0.44272,,0,216,216,513,1,2c,57,1,4,
,,,,,,,,,,,,,,,,,,,,,,,,,,images/exp2a_trial_28_colour2_distractors31_l.png,l,1,023,001,2021-04-22_21h25.17.154,searchDisc4,2020.2.10,Win32,60,,,space,0.12114,1,1,0.45153,,0,217,217,256,1,2a,28,2,31,
,,,,,,,,,,,,,,,,,,,,,,,,,,images/exp2b_trial_26_colour2_distractors9_l.png,l,1,023,001,2021-04-22_21h25.17.154,searchDisc4,2020.2.10,Win32,60,,,space,0.11308,1,1,0.676675,,0,218,218,368,1,2b,26,2,9,
,,,,,,,,,,,,,,,,,,,,,,,,,,images/exp2c_trial_88_colour3_distractors1_r.png,r,2,023,001,2021-04-22_21h25.17.154,searchDisc4,2020.2.10,Win32,60,,,space,0.072835,2,1,0.510915,,0,219,219,544,1,2c,88,3,1,
,,,,,,,,,,,,,,,,,,,,,,,,,,images/exp2c_trial_47_colour2_distractors19_r.png,r,2,023,001,2021-04-22_21h25.17.154,searchDisc4,2020.2.10,Win32,60,,,space,0.08765,2,1,0.606665,,0,220,220,503,1,2c,47,2,19,
,,,,,,,,,,,,,,,,,,,,,,,,,,images/exp2c_trial_15_colour3_distractors19_r.png,r,2,023,001,2021-04-22_21h25.17.154,searchDisc4,2020.2.10,Win32,60,,,space,0.073355,2,1,0.49856,,0,221,221,471,1,2c,15,3,19,
,,,,,,,,,,,,,,,,,,,,,,,,,,images/exp1a_trial_6_colour2_distractors1_r.png,r,2,023,001,2021-04-22_21h25.17.154,searchDisc4,2020.2.10,Win32,60,,,space,0.060905,2,1,0.64756,,0,222,222,6,1,1a,6,2,1,
,,,,,,,,,,,,,,,,,,,,,,,,,,images/exp2b_trial_58_colour1_distractors9_l.png,l,1,023,001,2021-04-22_21h25.17.154,searchDisc4,2020.2.10,Win32,60,,,space,0.034975,1,1,0.87062,,0,223,223,400,1,2b,58,1,9,
,,,,,,,,,,,,,,,,,,,,,,,,,,images/exp1b_trial_94_colour1_distractors1_l.png,l,1,023,001,2021-04-22_21h25.17.154,searchDisc4,2020.2.10,Win32,60,,,space,0.00501,1,1,0.770335,,0,224,224,208,1,1b,94,1,1,
,,,,,,,,,,,,,,,,,,,,,,,,,,images/exp1b_trial_110_colour3_distractors31_l.png,l,1,023,001,2021-04-22_21h25.17.154,searchDisc4,2020.2.10,Win32,60,,,space,0.02264,2,0,0.89358,,0,225,225,224,1,1b,110,3,31,
,,,,,,,,,,,,,,,,,,,,,,,,,,images/exp2b_trial_82_colour2_distractors1_r.png,r,2,023,001,2021-04-22_21h25.17.154,searchDisc4,2020.2.10,Win32,60,,,space,0.076005,2,1,0.48589,,0,226,226,424,1,2b,82,2,1,
,,,,,,,,,,,,,,,,,,,,,,,,,,images/exp2b_trial_70_colour3_distractors9_l.png,l,1,023,001,2021-04-22_21h25.17.154,searchDisc4,2020.2.10,Win32,60,,,space,0.03965,1,1,0.81054,,0,227,227,412,1,2b,70,3,9,
,,,,,,,,,,,,,,,,,,,,,,,,,,images/exp1b_trial_28_colour2_distractors31_l.png,l,1,023,001,2021-04-22_21h25.17.154,searchDisc4,2020.2.10,Win32,60,,,space,0.03549,1,1,0.591965,,0,228,228,142,1,1b,28,2,31,
,,,,,,,,,,,,,,,,,,,,,,,,,,images/exp2a_trial_15_colour3_distractors19_r.png,r,2,023,001,2021-04-22_21h25.17.154,searchDisc4,2020.2.10,Win32,60,,,space,0.023225,2,1,0.50362,,0,229,229,243,1,2a,15,3,19,
,,,,,,,,,,,,,,,,,,,,,,,,,,images/exp1b_trial_76_colour1_distractors1_r.png,r,2,023,001,2021-04-22_21h25.17.154,searchDisc4,2020.2.10,Win32,60,,,space,0.082965,2,1,0.563325,,0,230,230,190,1,1b,76,1,1,
,,,,,,,,,,,,,,,,,,,,,,,,,,images/exp2b_trial_11_colour2_distractors43_r.png,r,2,023,001,2021-04-22_21h25.17.154,searchDisc4,2020.2.10,Win32,60,,,space,0.078175,2,1,0.56763,,0,231,231,353,1,2b,11,2,43,
,,,,,,,,,,,,,,,,,,,,,,,,,,images/exp2c_trial_70_colour3_distractors9_l.png,l,1,023,001,2021-04-22_21h25.17.154,searchDisc4,2020.2.10,Win32,60,,,space,0.000695,1,1,0.722055,,0,232,232,526,1,2c,70,3,9,
,,,,,,,,,,,,,,,,,,,,,,,,,,images/exp1b_trial_67_colour2_distractors43_l.png,l,1,023,001,2021-04-22_21h25.17.154,searchDisc4,2020.2.10,Win32,60,,,space,0.028225,1,1,1.20597,,0,233,233,181,1,1b,67,2,43,
,,,,,,,,,,,,,,,,,,,,,,,,,,images/exp2c_trial_10_colour2_distractors31_r.png,r,2,023,001,2021-04-22_21h25.17.154,searchDisc4,2020.2.10,Win32,60,,,space,0.02104,2,1,0.696675,,0,234,234,466,1,2c,10,2,31,
,,,,,,,,,,,,,,,,,,,,,,,,,,images/exp1b_trial_103_colour2_distractors19_l.png,l,1,023,001,2021-04-22_21h25.17.154,searchDisc4,2020.2.10,Win32,60,,,space,0.052335,1,1,0.595795,,0,235,235,217,1,1b,103,2,19,
,,,,,,,,,,,,,,,,,,,,,,,,,,images/exp1a_trial_41_colour1_distractors19_r.png,r,2,023,001,2021-04-22_21h25.17.154,searchDisc4,2020.2.10,Win32,60,,,space,0.016685,2,1,0.490625,,0,236,236,41,1,1a,41,1,19,
,,,,,,,,,,,,,,,,,,,,,,,,,,images/exp2c_trial_48_colour2_distractors31_r.png,r,2,023,001,2021-04-22_21h25.17.154,searchDisc4,2020.2.10,Win32,60,,,space,0.01711,2,1,0.53752,,0,237,237,504,1,2c,48,2,31,
,,,,,,,,,,,,,,,,,,,,,,,,,,images/exp2b_trial_107_colour3_distractors4_l.png,l,1,023,001,2021-04-22_21h25.17.154,searchDisc4,2020.2.10,Win32,60,,,space,0.63664,1,1,0.4867,,0,238,238,449,1,2b,107,3,4,
,,,,,,,,,,,,,,,,,,,,,,,,,,images/exp2c_trial_44_colour2_distractors1_r.png,r,2,023,001,2021-04-22_21h25.17.154,searchDisc4,2020.2.10,Win32,60,,,space,0.03684,2,1,0.51263,space,0,239,239,500,1,2c,44,2,1,0.062165
,,,,,,,,,,,,,,,,,,,,,,,,,,images/exp2c_trial_58_colour1_distractors9_l.png,l,1,023,001,2021-04-22_21h25.17.154,searchDisc4,2020.2.10,Win32,60,,,space,0.683205,1,1,0.455745,,0,240,240,514,1,2c,58,1,9,
,,,,,,,,,,,,,,,,,,,,,,,,,,images/exp2a_trial_109_colour3_distractors19_l.png,l,1,023,001,2021-04-22_21h25.17.154,searchDisc4,2020.2.10,Win32,60,,,space,0.08767,1,1,0.49932,,0,241,241,337,1,2a,109,3,19,
,,,,,,,,,,,,,,,,,,,,,,,,,,images/exp1a_trial_98_colour1_distractors31_l.png,l,1,023,001,2021-04-22_21h25.17.154,searchDisc4,2020.2.10,Win32,60,,,space,0.0634,1,1,0.52145,,0,242,242,98,1,1a,98,1,31,
,,,,,,,,,,,,,,,,,,,,,,,,,,images/exp2c_trial_24_colour2_distractors1_l.png,l,1,023,001,2021-04-22_21h25.17.154,searchDisc4,2020.2.10,Win32,60,,,space,0.03774,1,1,0.463855,,0,243,243,480,1,2c,24,2,1,
,,,,,,,,,,,,,,,,,,,,,,,,,,images/exp2c_trial_11_colour2_distractors43_r.png,r,2,023,001,2021-04-22_21h25.17.154,searchDisc4,2020.2.10,Win32,60,,,space,0.08415,2,1,0.57746,,0,244,244,467,1,2c,11,2,43,
,,,,,,,,,,,,,,,,,,,,,,,,,,images/exp2a_trial_62_colour2_distractors1_l.png,l,1,023,001,2021-04-22_21h25.17.154,searchDisc4,2020.2.10,Win32,60,,,space,0.08631,1,1,0.510115,,0,245,245,290,1,2a,62,2,1,
,,,,,,,,,,,,,,,,,,,,,,,,,,images/exp1b_trial_93_colour3_distractors43_r.png,r,2,023,001,2021-04-22_21h25.17.154,searchDisc4,2020.2.10,Win32,60,,,space,0.085205,2,1,0.68927,,0,246,246,207,1,1b,93,3,43,
,,,,,,,,,,,,,,,,,,,,,,,,,,images/exp1a_trial_81_colour1_distractors43_r.png,r,2,023,001,2021-04-22_21h25.17.154,searchDisc4,2020.2.10,Win32,60,,,space,0.030405,2,1,0.675775,,0,247,247,81,1,1a,81,1,43,
,,,,,,,,,,,,,,,,,,,,,,,,,,images/exp1a_trial_39_colour1_distractors4_r.png,r,2,023,001,2021-04-22_21h25.17.154,searchDisc4,2020.2.10,Win32,60,,,space,0.753615,1,0,0.577385,,0,248,248,39,1,1a,39,1,4,
,,,,,,,,,,,,,,,,,,,,,,,,,,images/exp2c_trial_18_colour1_distractors1_l.png,l,1,023,001,2021-04-22_21h25.17.154,searchDisc4,2020.2.10,Win32,60,,,space,0.02552,1,1,0.54225,,0,249,249,474,1,2c,18,1,1,
,,,,,,,,,,,,,,,,,,,,,,,,,,images/exp1b_trial_95_colour1_distractors4_l.png,l,1,023,001,2021-04-22_21h25.17.154,searchDisc4,2020.2.10,Win32,60,,,space,0.06137,1,1,0.60019,,0,250,250,209,1,1b,95,1,4,
,,,,,,,,,,,,,,,,,,,,,,,,,,images/exp1a_trial_3_colour1_distractors19_r.png,r,2,023,001,2021-04-22_21h25.17.154,searchDisc4,2020.2.10,Win32,60,,,space,0.02746,2,1,0.71657,,0,251,251,3,1,1a,3,1,19,
,,,,,,,,,,,,,,,,,,,,,,,,,,images/exp2c_trial_99_colour1_distractors43_l.png,l,1,023,001,2021-04-22_21h25.17.154,searchDisc4,2020.2.10,Win32,60,,,space,0.45476,1,1,0.48253,,0,252,252,555,1,2c,99,1,43,
,,,,,,,,,,,,,,,,,,,,,,,,,,images/exp2c_trial_17_colour3_distractors43_r.png,r,2,023,001,2021-04-22_21h25.17.154,searchDisc4,2020.2.10,Win32,60,,,space,0.03178,2,1,0.74067,,0,253,253,473,1,2c,17,3,43,
,,,,,,,,,,,,,,,,,,,,,,,,,,images/exp1a_trial_49_colour2_distractors43_r.png,r,2,023,001,2021-04-22_21h25.17.154,searchDisc4,2020.2.10,Win32,60,,,space,0.01311,2,1,0.463765,,0,254,254,49,1,1a,49,2,43,
,,,,,,,,,,,,,,,,,,,,,,,,,,images/exp1b_trial_102_colour2_distractors9_l.png,l,1,023,001,2021-04-22_21h25.17.154,searchDisc4,2020.2.10,Win32,60,,,space,0.071585,1,1,0.48322,,0,255,255,216,1,1b,102,2,9,
,,,,,,,,,,,,,,,,,,,,,,,,,,images/exp2c_trial_33_colour3_distractors19_l.png,l,1,023,001,2021-04-22_21h25.17.154,searchDisc4,2020.2.10,Win32,60,,,space,0.052365,1,1,0.47505,,0,256,256,489,1,2c,33,3,19,
,,,,,,,,,,,,,,,,,,,,,,,,,,images/exp1b_trial_13_colour3_distractors4_r.png,r,2,023,001,2021-04-22_21h25.17.154,searchDisc4,2020.2.10,Win32,60,,,space,0.266765,2,1,0.480015,,0,257,257,127,1,1b,13,3,4,
,,,,,,,,,,,,,,,,,,,,,,,,,,images/exp1a_trial_89_colour3_distractors4_r.png,r,2,023,001,2021-04-22_21h25.17.154,searchDisc4,2020.2.10,Win32,60,,,space,0.096835,1,0,0.487935,,0,258,258,89,1,1a,89,3,4,
,,,,,,,,,,,,,,,,,,,,,,,,,,images/exp1b_trial_112_colour0_distractors0_r.png,r,2,023,001,2021-04-22_21h25.17.154,searchDisc4,2020.2.10,Win32,60,,,space,0.488625,2,1,0.44105,,0,259,259,226,1,1b,112,0,0,
,,,,,,,,,,,,,,,,,,,,,,,,,,images/exp2a_trial_60_colour1_distractors31_l.png,l,1,023,001,2021-04-22_21h25.17.154,searchDisc4,2020.2.10,Win32,60,,,space,0.091275,1,1,0.851025,,0,260,260,288,1,2a,60,1,31,
,,,,,,,,,,,,,,,,,,,,,,,,,,images/exp2c_trial_45_colour2_distractors4_r.png,r,2,023,001,2021-04-22_21h25.17.154,searchDisc4,2020.2.10,Win32,60,,,space,0.116555,2,1,0.632195,,0,261,261,501,1,2c,45,2,4,
,,,,,,,,,,,,,,,,,,,,,,,,,,images/exp2b_trial_86_colour2_distractors31_r.png,r,2,023,001,2021-04-22_21h25.17.154,searchDisc4,2020.2.10,Win32,60,,,space,0.074515,2,1,0.691665,,0,262,262,428,1,2b,86,2,31,
,,,,,,,,,,,,,,,,,,,,,,,,,,images/exp2b_trial_104_colour2_distractors31_l.png,l,1,023,001,2021-04-22_21h25.17.154,searchDisc4,2020.2.10,Win32,60,,,space,0.033,1,1,0.71861,,0,263,263,446,1,2b,104,2,31,
,,,,,,,,,,,,,,,,,,,,,,,,,,images/exp1b_trial_83_colour2_distractors4_r.png,r,2,023,001,2021-04-22_21h25.17.154,searchDisc4,2020.2.10,Win32,60,,,space,0.01684,2,1,0.647515,,0,264,264,197,1,1b,83,2,4,
,,,,,,,,,,,,,,,,,,,,,,,,,,images/exp2b_trial_47_colour2_distractors19_r.png,r,2,023,001,2021-04-22_21h25.17.154,searchDisc4,2020.2.10,Win32,60,,,space,0.033445,2,1,0.591415,,0,265,265,389,1,2b,47,2,19,
,,,,,,,,,,,,,,,,,,,,,,,,,,images/exp2b_trial_77_colour1_distractors4_r.png,r,2,023,001,2021-04-22_21h25.17.154,searchDisc4,2020.2.10,Win32,60,,,space,0.0167,2,1,0.71075,,0,266,266,419,1,2b,77,1,4,
,,,,,,,,,,,,,,,,,,,,,,,,,,images/exp2a_trial_19_colour1_distractors4_l.png,l,1,023,001,2021-04-22_21h25.17.154,searchDisc4,2020.2.10,Win32,60,,,space,0.000625,1,1,0.561025,,0,267,267,247,1,2a,19,1,4,
,,,,,,,,,,,,,,,,,,,,,,,,,,images/exp2b_trial_9_colour2_distractors19_r.png,r,2,023,001,2021-04-22_21h25.17.154,searchDisc4,2020.2.10,Win32,60,,,space,0.01689,2,1,0.57155,,0,268,268,351,1,2b,9,2,19,
,,,,,,,,,,,,,,,,,,,,,,,,,,images/exp2c_trial_56_colour1_distractors1_l.png,l,1,023,001,2021-04-22_21h25.17.154,searchDisc4,2020.2.10,Win32,60,,,space,0.0013,1,1,0.586415,,0,269,269,512,1,2c,56,1,1,
,,,,,,,,,,,,,,,,,,,,,,,,,,images/exp2b_trial_52_colour3_distractors9_r.png,r,2,023,001,2021-04-22_21h25.17.154,searchDisc4,2020.2.10,Win32,60,,,space,0.014105,2,1,0.558215,,0,270,270,394,1,2b,52,3,9,
,,,,,,,,,,,,,,,,,,,,,,,,,,images/exp1b_trial_6_colour2_distractors1_r.png,r,2,023,001,2021-04-22_21h25.17.154,searchDisc4,2020.2.10,Win32,60,,,space,0.016495,2,1,0.66663,,0,271,271,120,1,1b,6,2,1,
,,,,,,,,,,,,,,,,,,,,,,,,,,images/exp2b_trial_67_colour2_distractors43_l.png,l,1,023,001,2021-04-22_21h25.17.154,searchDisc4,2020.2.10,Win32,60,,,space,0.64555,1,1,0.489105,,0,272,272,409,1,2b,67,2,43,
,,,,,,,,,,,,,,,,,,,,,,,,,,images/exp2a_trial_24_colour2_distractors1_l.png,l,1,023,001,2021-04-22_21h25.17.154,searchDisc4,2020.2.10,Win32,60,,,space,0.03355,1,1,0.73051,,0,273,273,252,1,2a,24,2,1,
,,,,,,,,,,,,,,,,,,,,,,,,,,images/exp2b_trial_37_colour0_distractors0_l.png,l,1,023,001,2021-04-22_21h25.17.154,searchDisc4,2020.2.10,Win32,60,,,space,0.012615,1,1,0.469215,,0,274,274,379,1,2b,37,0,0,
,,,,,,,,,,,,,,,,,,,,,,,,,,images/exp1b_trial_98_colour1_distractors31_l.png,l,1,023,001,2021-04-22_21h25.17.154,searchDisc4,2020.2.10,Win32,60,,,space,0.003055,1,1,0.695465,,0,275,275,212,1,1b,98,1,31,
,,,,,,,,,,,,,,,,,,,,,,,,,,images/exp1a_trial_14_colour3_distractors9_r.png,r,2,023,001,2021-04-22_21h25.17.154,searchDisc4,2020.2.10,Win32,60,,,space,0.00122,2,1,0.65659,,0,276,276,14,1,1a,14,3,9,
,,,,,,,,,,,,,,,,,,,,,,,,,,images/exp2a_trial_101_colour2_distractors4_l.png,l,1,023,001,2021-04-22_21h25.17.154,searchDisc4,2020.2.10,Win32,60,,,space,0.001085,1,1,0.54201,,0,277,277,329,1,2a,101,2,4,
,,,,,,,,,,,,,,,,,,,,,,,,,,images/exp1a_trial_9_colour2_distractors19_r.png,r,2,023,001,2021-04-22_21h25.17.154,searchDisc4,2020.2.10,Win32,60,,,space,0.007765,2,1,0.468245,,0,278,278,9,1,1a,9,2,19,
,,,,,,,,,,,,,,,,,,,,,,,,,,images/exp1a_trial_34_colour3_distractors31_l.png,l,1,023,001,2021-04-22_21h25.17.154,searchDisc4,2020.2.10,Win32,60,,,space,0.00082,1,1,0.959405,,0,279,279,34,1,1a,34,3,31,
,,,,,,,,,,,,,,,,,,,,,,,,,,images/exp2b_trial_41_colour1_distractors19_r.png,r,2,023,001,2021-04-22_21h25.17.154,searchDisc4,2020.2.10,Win32,60,,,space,0.56359,2,1,0.521015,,0,280,280,383,1,2b,41,1,19,
,,,,,,,,,,,,,,,,,,,,,,,,,,images/exp2a_trial_30_colour3_distractors1_l.png,l,1,023,001,2021-04-22_21h25.17.154,searchDisc4,2020.2.10,Win32,60,,,space,0.02826,1,1,0.60049,,0,281,281,258,1,2a,30,3,1,
,,,,,,,,,,,,,,,,,,,,,,,,,,images/exp2b_trial_112_colour0_distractors0_r.png,r,2,023,001,2021-04-22_21h25.17.154,searchDisc4,2020.2.10,Win32,60,,,space,0.010625,2,1,0.53806,,0,282,282,454,1,2b,112,0,0,
,,,,,,,,,,,,,,,,,,,,,,,,,,images/exp2c_trial_92_colour3_distractors31_r.png,r,2,023,001,2021-04-22_21h25.17.154,searchDisc4,2020.2.10,Win32,60,,,space,0.10942,2,1,0.580875,,0,283,283,548,1,2c,92,3,31,
,,,,,,,,,,,,,,,,,,,,,,,,,,images/exp1b_trial_40_colour1_distractors9_r.png,r,2,023,001,2021-04-22_21h25.17.154,searchDisc4,2020.2.10,Win32,60,,,space,0.09587,2,1,0.61793,,0,284,284,154,1,1b,40,1,9,
,,,,,,,,,,,,,,,,,,,,,,,,,,images/exp1b_trial_25_colour2_distractors4_l.png,l,1,023,001,2021-04-22_21h25.17.154,searchDisc4,2020.2.10,Win32,60,,,space,0.03261,2,0,1.006105,,0,285,285,139,1,1b,25,2,4,
,,,,,,,,,,,,,,,,,,,,,,,,,,images/exp1a_trial_92_colour3_distractors31_r.png,r,2,023,001,2021-04-22_21h25.17.154,searchDisc4,2020.2.10,Win32,60,,,space,0.100375,2,1,0.654015,,0,286,286,92,1,1a,92,3,31,
,,,,,,,,,,,,,,,,,,,,,,,,,,images/exp2b_trial_27_colour2_distractors19_l.png,l,1,023,001,2021-04-22_21h25.17.154,searchDisc4,2020.2.10,Win32,60,,,space,0.05696,1,1,0.56836,,0,287,287,369,1,2b,27,2,19,
,,,,,,,,,,,,,,,,,,,,,,,,,,images/exp1b_trial_39_colour1_distractors4_r.png,r,2,023,001,2021-04-22_21h25.17.154,searchDisc4,2020.2.10,Win32,60,,,space,0.02427,2,1,0.5987,,0,288,288,153,1,1b,39,1,4,
,,,,,,,,,,,,,,,,,,,,,,,,,,images/exp1a_trial_99_colour1_distractors43_l.png,l,1,023,001,2021-04-22_21h25.17.154,searchDisc4,2020.2.10,Win32,60,,,space,0.00654,1,1,0.62156,,0,289,289,99,1,1a,99,1,43,
,,,,,,,,,,,,,,,,,,,,,,,,,,images/exp2b_trial_72_colour3_distractors31_l.png,l,1,023,001,2021-04-22_21h25.17.154,searchDisc4,2020.2.10,Win32,60,,,space,0.001145,1,1,0.74429,,0,290,290,414,1,2b,72,3,31,
,,,,,,,,,,,,,,,,,,,,,,,,,,images/exp2a_trial_77_colour1_distractors4_r.png,r,2,023,001,2021-04-22_21h25.17.154,searchDisc4,2020.2.10,Win32,60,,,space,0.047275,2,1,0.63621,,0,291,291,305,1,2a,77,1,4,
,,,,,,,,,,,,,,,,,,,,,,,,,,images/exp2c_trial_98_colour1_distractors31_l.png,l,1,023,001,2021-04-22_21h25.17.154,searchDisc4,2020.2.10,Win32,60,,,space,0.001155,1,1,0.53394,,0,292,292,554,1,2c,98,1,31,
,,,,,,,,,,,,,,,,,,,,,,,,,,images/exp1b_trial_55_colour3_distractors43_r.png,r,2,023,001,2021-04-22_21h25.17.154,searchDisc4,2020.2.10,Win32,60,,,space,0.011615,2,1,1.094125,,0,293,293,169,1,1b,55,3,43,
,,,,,,,,,,,,,,,,,,,,,,,,,,images/exp1b_trial_59_colour1_distractors19_l.png,l,1,023,001,2021-04-22_21h25.17.154,searchDisc4,2020.2.10,Win32,60,,,space,0.013585,1,1,0.740415,,0,294,294,173,1,1b,59,1,19,
,,,,,,,,,,,,,,,,,,,,,,,,,,images/exp2c_trial_53_colour3_distractors19_r.png,r,2,023,001,2021-04-22_21h25.17.154,searchDisc4,2020.2.10,Win32,60,,,space,0.015685,2,1,0.63371,,0,295,295,509,1,2c,53,3,19,
,,,,,,,,,,,,,,,,,,,,,,,,,,images/exp1a_trial_11_colour2_distractors43_r.png,r,2,023,001,2021-04-22_21h25.17.154,searchDisc4,2020.2.10,Win32,60,,,space,0.017275,2,1,0.78505,,0,296,296,11,1,1a,11,2,43,
,,,,,,,,,,,,,,,,,,,,,,,,,,images/exp2a_trial_50_colour3_distractors1_r.png,r,2,023,001,2021-04-22_21h25.17.154,searchDisc4,2020.2.10,Win32,60,,,space,0.49763,2,1,0.53877,,0,297,297,278,1,2a,50,3,1,
,,,,,,,,,,,,,,,,,,,,,,,,,,images/exp2c_trial_0_colour1_distractors1_r.png,r,2,023,001,2021-04-22_21h25.17.154,searchDisc4,2020.2.10,Win32,60,,,space,0.00042,2,1,0.57719,,0,298,298,456,1,2c,0,1,1,
,,,,,,,,,,,,,,,,,,,,,,,,,,images/exp1b_trial_88_colour3_distractors1_r.png,r,2,023,001,2021-04-22_21h25.17.154,searchDisc4,2020.2.10,Win32,60,,,space,0.01421,1,0,0.78331,space,0,299,299,202,1,1b,88,3,1,2.671915
,,,,,,,,,,,,,,,,,,,,,,,,,,images/exp2c_trial_36_colour0_distractors0_r.png,r,2,023,001,2021-04-22_21h25.17.154,searchDisc4,2020.2.10,Win32,60,,,space,0.54673,2,1,0.634855,,0,300,300,492,1,2c,36,0,0,
,,,,,,,,,,,,,,,,,,,,,,,,,,images/exp1a_trial_78_colour1_distractors9_r.png,r,2,023,001,2021-04-22_21h25.17.154,searchDisc4,2020.2.10,Win32,60,,,space,0.523265,2,1,0.520865,,0,301,301,78,1,1a,78,1,9,
,,,,,,,,,,,,,,,,,,,,,,,,,,images/exp2c_trial_82_colour2_distractors1_r.png,r,2,023,001,2021-04-22_21h25.17.154,searchDisc4,2020.2.10,Win32,60,,,space,0.416995,2,1,0.45348,,0,302,302,538,1,2c,82,2,1,
,,,,,,,,,,,,,,,,,,,,,,,,,,images/exp2c_trial_41_colour1_distractors19_r.png,r,2,023,001,2021-04-22_21h25.17.154,searchDisc4,2020.2.10,Win32,60,,,space,0.050855,2,1,0.589175,,0,303,303,497,1,2c,41,1,19,
,,,,,,,,,,,,,,,,,,,,,,,,,,images/exp1b_trial_31_colour3_distractors4_l.png,l,1,023,001,2021-04-22_21h25.17.154,searchDisc4,2020.2.10,Win32,60,,,space,0.46575,1,1,1.037225,,0,304,304,145,1,1b,31,3,4,
,,,,,,,,,,,,,,,,,,,,,,,,,,images/exp2b_trial_48_colour2_distractors31_r.png,r,2,023,001,2021-04-22_21h25.17.154,searchDisc4,2020.2.10,Win32,60,,,space,0.11675,2,1,0.6279,,0,305,305,390,1,2b,48,2,31,
,,,,,,,,,,,,,,,,,,,,,,,,,,images/exp1b_trial_49_colour2_distractors43_r.png,r,2,023,001,2021-04-22_21h25.17.154,searchDisc4,2020.2.10,Win32,60,,,space,0.000905,2,1,0.94298,,0,306,306,163,1,1b,49,2,43,
,,,,,,,,,,,,,,,,,,,,,,,,,,images/exp2a_trial_94_colour1_distractors1_l.png,l,1,023,001,2021-04-22_21h25.17.154,searchDisc4,2020.2.10,Win32,60,,,space,0.00412,1,1,0.75524,,0,307,307,322,1,2a,94,1,1,
,,,,,,,,,,,,,,,,,,,,,,,,,,images/exp2c_trial_59_colour1_distractors19_l.png,l,1,023,001,2021-04-22_21h25.17.154,searchDisc4,2020.2.10,Win32,60,,,space,0.432505,1,1,0.455805,,0,308,308,515,1,2c,59,1,19,
,,,,,,,,,,,,,,,,,,,,,,,,,,images/exp1b_trial_54_colour3_distractors31_r.png,r,2,023,001,2021-04-22_21h25.17.154,searchDisc4,2020.2.10,Win32,60,,,space,0.030725,2,1,1.85077,,0,309,309,168,1,1b,54,3,31,
,,,,,,,,,,,,,,,,,,,,,,,,,,images/exp1a_trial_51_colour3_distractors4_r.png,r,2,023,001,2021-04-22_21h25.17.154,searchDisc4,2020.2.10,Win32,60,,,space,0.0759,2,1,0.647045,,0,310,310,51,1,1a,51,3,4,
,,,,,,,,,,,,,,,,,,,,,,,,,,images/exp2b_trial_38_colour1_distractors1_r.png,r,2,023,001,2021-04-22_21h25.17.154,searchDisc4,2020.2.10,Win32,60,,,space,0.44223,2,1,0.461025,,0,311,311,380,1,2b,38,1,1,
,,,,,,,,,,,,,,,,,,,,,,,,,,images/exp1a_trial_50_colour3_distractors1_r.png,r,2,023,001,2021-04-22_21h25.17.154,searchDisc4,2020.2.10,Win32,60,,,space,0.002235,2,1,0.62037,,0,312,312,50,1,1a,50,3,1,
,,,,,,,,,,,,,,,,,,,,,,,,,,images/exp2a_trial_84_colour2_distractors9_r.png,r,2,023,001,2021-04-22_21h25.17.154,searchDisc4,2020.2.10,Win32,60,,,space,0.00112,2,1,0.721525,,0,313,313,312,1,2a,84,2,9,
,,,,,,,,,,,,,,,,,,,,,,,,,,images/exp2a_trial_0_colour1_distractors1_r.png,r,2,023,001,2021-04-22_21h25.17.154,searchDisc4,2020.2.10,Win32,60,,,space,0.430375,2,1,0.650875,,0,314,314,228,1,2a,0,1,1,
,,,,,,,,,,,,,,,,,,,,,,,,,,images/exp1a_trial_56_colour1_distractors1_l.png,l,1,023,001,2021-04-22_21h25.17.154,searchDisc4,2020.2.10,Win32,60,,,space,0.34641,1,1,0.62143,,0,315,315,56,1,1a,56,1,1,
,,,,,,,,,,,,,,,,,,,,,,,,,,images/exp2a_trial_49_colour2_distractors43_r.png,r,2,023,001,2021-04-22_21h25.17.154,searchDisc4,2020.2.10,Win32,60,,,space,0.022075,2,1,0.67391,,0,316,316,277,1,2a,49,2,43,
,,,,,,,,,,,,,,,,,,,,,,,,,,images/exp2a_trial_56_colour1_distractors1_l.png,l,1,023,001,2021-04-22_21h25.17.154,searchDisc4,2020.2.10,Win32,60,,,space,0.00204,1,1,0.60568,,0,317,317,284,1,2a,56,1,1,
,,,,,,,,,,,,,,,,,,,,,,,,,,images/exp2b_trial_29_colour2_distractors43_l.png,l,1,023,001,2021-04-22_21h25.17.154,searchDisc4,2020.2.10,Win32,60,,,space,0.43717,1,1,0.573985,,0,318,318,371,1,2b,29,2,43,
,,,,,,,,,,,,,,,,,,,,,,,,,,images/exp2c_trial_31_colour3_distractors4_l.png,l,1,023,001,2021-04-22_21h25.17.154,searchDisc4,2020.2.10,Win32,60,,,space,0.46976,1,1,0.544815,,0,319,319,487,1,2c,31,3,4,
,,,,,,,,,,,,,,,,,,,,,,,,,,images/exp1a_trial_8_colour2_distractors9_r.png,r,2,023,001,2021-04-22_21h25.17.154,searchDisc4,2020.2.10,Win32,60,,,space,0.335185,2,1,0.52248,,0,320,320,8,1,1a,8,2,9,
,,,,,,,,,,,,,,,,,,,,,,,,,,images/exp2b_trial_75_colour0_distractors0_l.png,l,1,023,001,2021-04-22_21h25.17.154,searchDisc4,2020.2.10,Win32,60,,,space,0.010415,1,1,0.678815,,0,321,321,417,1,2b,75,0,0,
,,,,,,,,,,,,,,,,,,,,,,,,,,images/exp2b_trial_3_colour1_distractors19_r.png,r,2,023,001,2021-04-22_21h25.17.154,searchDisc4,2020.2.10,Win32,60,,,space,0.410515,2,1,0.47213,,0,322,322,345,1,2b,3,1,19,
,,,,,,,,,,,,,,,,,,,,,,,,,,images/exp2c_trial_23_colour1_distractors43_l.png,l,1,023,001,2021-04-22_21h25.17.154,searchDisc4,2020.2.10,Win32,60,,,space,0.001195,1,1,0.625885,,0,323,323,479,1,2c,23,1,43,
,,,,,,,,,,,,,,,,,,,,,,,,,,images/exp1b_trial_1_colour1_distractors4_r.png,r,2,023,001,2021-04-22_21h25.17.154,searchDisc4,2020.2.10,Win32,60,,,space,0.094965,2,1,0.854445,,0,324,324,115,1,1b,1,1,4,
,,,,,,,,,,,,,,,,,,,,,,,,,,images/exp2a_trial_88_colour3_distractors1_r.png,r,2,023,001,2021-04-22_21h25.17.154,searchDisc4,2020.2.10,Win32,60,,,space,0.114835,2,1,0.62914,,0,325,325,316,1,2a,88,3,1,
,,,,,,,,,,,,,,,,,,,,,,,,,,images/exp1a_trial_73_colour3_distractors43_l.png,l,1,023,001,2021-04-22_21h25.17.154,searchDisc4,2020.2.10,Win32,60,,,space,0.03978,1,1,0.60985,,0,326,326,73,1,1a,73,3,43,
,,,,,,,,,,,,,,,,,,,,,,,,,,images/exp1a_trial_64_colour2_distractors9_l.png,l,1,023,001,2021-04-22_21h25.17.154,searchDisc4,2020.2.10,Win32,60,,,space,0.041015,1,1,0.89834,,0,327,327,64,1,1a,64,2,9,
,,,,,,,,,,,,,,,,,,,,,,,,,,images/exp1b_trial_79_colour1_distractors19_r.png,r,2,023,001,2021-04-22_21h25.17.154,searchDisc4,2020.2.10,Win32,60,,,space,0.020085,2,1,0.621145,,0,328,328,193,1,1b,79,1,19,
,,,,,,,,,,,,,,,,,,,,,,,,,,images/exp1a_trial_107_colour3_distractors4_l.png,l,1,023,001,2021-04-22_21h25.17.154,searchDisc4,2020.2.10,Win32,60,,,space,0.016825,1,1,0.506895,,0,329,329,107,1,1a,107,3,4,
,,,,,,,,,,,,,,,,,,,,,,,,,,images/exp2b_trial_56_colour1_distractors1_l.png,l,1,023,001,2021-04-22_21h25.17.154,searchDisc4,2020.2.10,Win32,60,,,space,0.050775,1,1,0.519565,,0,330,330,398,1,2b,56,1,1,
,,,,,,,,,,,,,,,,,,,,,,,,,,images/exp2c_trial_19_colour1_distractors4_l.png,l,1,023,001,2021-04-22_21h25.17.154,searchDisc4,2020.2.10,Win32,60,,,space,0.43372,1,1,0.64468,,0,331,331,475,1,2c,19,1,4,
,,,,,,,,,,,,,,,,,,,,,,,,,,images/exp1a_trial_113_colour0_distractors0_l.png,l,1,023,001,2021-04-22_21h25.17.154,searchDisc4,2020.2.10,Win32,60,,,space,0.00038,1,1,0.600745,,0,332,332,113,1,1a,113,0,0,
,,,,,,,,,,,,,,,,,,,,,,,,,,images/exp2c_trial_34_colour3_distractors31_l.png,l,1,023,001,2021-04-22_21h25.17.154,searchDisc4,2020.2.10,Win32,60,,,space,0.000755,1,1,0.608785,,0,333,333,490,1,2c,34,3,31,
,,,,,,,,,,,,,,,,,,,,,,,,,,images/exp1b_trial_70_colour3_distractors9_l.png,l,1,023,001,2021-04-22_21h25.17.154,searchDisc4,2020.2.10,Win32,60,,,space,0.66536,1,1,1.157315,,0,334,334,184,1,1b,70,3,9,
,,,,,,,,,,,,,,,,,,,,,,,,,,images/exp1b_trial_87_colour2_distractors43_r.png,r,2,023,001,2021-04-22_21h25.17.154,searchDisc4,2020.2.10,Win32,60,,,space,0.353265,2,1,0.734835,,0,335,335,201,1,1b,87,2,43,
,,,,,,,,,,,,,,,,,,,,,,,,,,images/exp1a_trial_70_colour3_distractors9_l.png,l,1,023,001,2021-04-22_21h25.17.154,searchDisc4,2020.2.10,Win32,60,,,space,0.41852,1,1,0.565585,,0,336,336,70,1,1a,70,3,9,
,,,,,,,,,,,,,,,,,,,,,,,,,,images/exp2b_trial_74_colour0_distractors0_r.png,r,2,023,001,2021-04-22_21h25.17.154,searchDisc4,2020.2.10,Win32,60,,,space,0.35407,2,1,0.583095,,0,337,337,416,1,2b,74,0,0,
,,,,,,,,,,,,,,,,,,,,,,,,,,images/exp1b_trial_16_colour3_distractors31_r.png,r,2,023,001,2021-04-22_21h25.17.154,searchDisc4,2020.2.10,Win32,60,,,space,0.30186,2,1,1.787835,,0,338,338,130,1,1b,16,3,31,
,,,,,,,,,,,,,,,,,,,,,,,,,,images/exp2a_trial_110_colour3_distractors31_l.png,l,1,023,001,2021-04-22_21h25.17.154,searchDisc4,2020.2.10,Win32,60,,,space,0.299295,1,1,0.44063,,0,339,339,338,1,2a,110,3,31,
,,,,,,,,,,,,,,,,,,,,,,,,,,images/exp2a_trial_108_colour3_distractors9_l.png,l,1,023,001,2021-04-22_21h25.17.154,searchDisc4,2020.2.10,Win32,60,,,space,0.020065,1,1,0.52929,,0,340,340,336,1,2a,108,3,9,
,,,,,,,,,,,,,,,,,,,,,,,,,,images/exp1b_trial_77_colour1_distractors4_r.png,r,2,023,001,2021-04-22_21h25.17.154,searchDisc4,2020.2.10,Win32,60,,,space,0.039735,2,1,0.624735,,0,341,341,191,1,1b,77,1,4,
,,,,,,,,,,,,,,,,,,,,,,,,,,images/exp1a_trial_18_colour1_distractors1_l.png,l,1,023,001,2021-04-22_21h25.17.154,searchDisc4,2020.2.10,Win32,60,,,space,0.01349,1,1,0.57428,,0,342,342,18,1,1a,18,1,1,
,,,,,,,,,,,,,,,,,,,,,,,,,,images/exp2a_trial_52_colour3_distractors9_r.png,r,2,023,001,2021-04-22_21h25.17.154,searchDisc4,2020.2.10,Win32,60,,,space,0.003925,2,1,0.497205,,0,343,343,280,1,2a,52,3,9,
,,,,,,,,,,,,,,,,,,,,,,,,,,images/exp2b_trial_60_colour1_distractors31_l.png,l,1,023,001,2021-04-22_21h25.17.154,searchDisc4,2020.2.10,Win32,60,,,space,0.06951,1,1,0.50507,,0,344,344,402,1,2b,60,1,31,
,,,,,,,,,,,,,,,,,,,,,,,,,,images/exp1a_trial_19_colour1_distractors4_l.png,l,1,023,001,2021-04-22_21h25.17.154,searchDisc4,2020.2.10,Win32,60,,,space,0.034,1,1,0.55956,,0,345,345,19,1,1a,19,1,4,
,,,,,,,,,,,,,,,,,,,,,,,,,,images/exp1b_trial_108_colour3_distractors9_l.png,l,1,023,001,2021-04-22_21h25.17.154,searchDisc4,2020.2.10,Win32,60,,,space,0.014385,1,1,0.904975,,0,346,346,222,1,1b,108,3,9,
,,,,,,,,,,,,,,,,,,,,,,,,,,images/exp2b_trial_90_colour3_distractors9_r.png,r,2,023,001,2021-04-22_21h25.17.154,searchDisc4,2020.2.10,Win32,60,,,space,0.006725,2,1,0.584775,,0,347,347,432,1,2b,90,3,9,
,,,,,,,,,,,,,,,,,,,,,,,,,,images/exp1a_trial_106_colour3_distractors1_l.png,l,1,023,001,2021-04-22_21h25.17.154,searchDisc4,2020.2.10,Win32,60,,,space,0.000805,1,1,0.576855,,0,348,348,106,1,1a,106,3,1,
,,,,,,,,,,,,,,,,,,,,,,,,,,images/exp1a_trial_53_colour3_distractors19_r.png,r,2,023,001,2021-04-22_21h25.17.154,searchDisc4,2020.2.10,Win32,60,,,space,0.02764,2,1,0.57533,,0,349,349,53,1,1a,53,3,19,
,,,,,,,,,,,,,,,,,,,,,,,,,,images/exp2c_trial_101_colour2_distractors4_l.png,l,1,023,001,2021-04-22_21h25.17.154,searchDisc4,2020.2.10,Win32,60,,,space,0.565995,1,1,0.548675,,0,350,350,557,1,2c,101,2,4,
,,,,,,,,,,,,,,,,,,,,,,,,,,images/exp1b_trial_73_colour3_distractors43_l.png,l,1,023,001,2021-04-22_21h25.17.154,searchDisc4,2020.2.10,Win32,60,,,space,0.001655,1,1,1.6258,,0,351,351,187,1,1b,73,3,43,
,,,,,,,,,,,,,,,,,,,,,,,,,,images/exp2a_trial_104_colour2_distractors31_l.png,l,1,023,001,2021-04-22_21h25.17.154,searchDisc4,2020.2.10,Win32,60,,,space,0.036815,1,1,0.778715,,0,352,352,332,1,2a,104,2,31,
,,,,,,,,,,,,,,,,,,,,,,,,,,images/exp1a_trial_63_colour2_distractors4_l.png,l,1,023,001,2021-04-22_21h25.17.154,searchDisc4,2020.2.10,Win32,60,,,space,0.39616,1,1,0.63661,,0,353,353,63,1,1a,63,2,4,
,,,,,,,,,,,,,,,,,,,,,,,,,,images/exp1a_trial_71_colour3_distractors19_l.png,l,1,023,001,2021-04-22_21h25.17.154,searchDisc4,2020.2.10,Win32,60,,,space,0.373975,1,1,0.761825,,0,354,354,71,1,1a,71,3,19,
,,,,,,,,,,,,,,,,,,,,,,,,,,images/exp2a_trial_100_colour2_distractors1_l.png,l,1,023,001,2021-04-22_21h25.17.154,searchDisc4,2020.2.10,Win32,60,,,space,0.402045,1,1,0.42884,,0,355,355,328,1,2a,100,2,1,
,,,,,,,,,,,,,,,,,,,,,,,,,,images/exp1a_trial_29_colour2_distractors43_l.png,l,1,023,001,2021-04-22_21h25.17.154,searchDisc4,2020.2.10,Win32,60,,,space,0.28051,1,1,0.633985,,0,356,356,29,1,1a,29,2,43,
,,,,,,,,,,,,,,,,,,,,,,,,,,images/exp1b_trial_64_colour2_distractors9_l.png,l,1,023,001,2021-04-22_21h25.17.154,searchDisc4,2020.2.10,Win32,60,,,space,0.000845,1,1,0.732375,,0,357,357,178,1,1b,64,2,9,
,,,,,,,,,,,,,,,,,,,,,,,,,,images/exp2a_trial_31_colour3_distractors4_l.png,l,1,023,001,2021-04-22_21h25.17.154,searchDisc4,2020.2.10,Win32,60,,,space,0.283125,1,1,0.575595,,0,358,358,259,1,2a,31,3,4,
,,,,,,,,,,,,,,,,,,,,,,,,,,images/exp2a_trial_12_colour3_distractors1_r.png,r,2,023,001,2021-04-22_21h25.17.154,searchDisc4,2020.2.10,Win32,60,,,space,0.230515,2,1,0.586365,space,0,359,359,240,1,2a,12,3,1,0.0066
,,,,,,,,,,,,,,,,,,,,,,,,,,images/exp2c_trial_112_colour0_distractors0_r.png,r,2,023,001,2021-04-22_21h25.17.154,searchDisc4,2020.2.10,Win32,60,,,space,0.24007,2,1,1.108675,,0,360,360,568,1,2c,112,0,0,
,,,,,,,,,,,,,,,,,,,,,,,,,,images/exp2b_trial_108_colour3_distractors9_l.png,l,1,023,001,2021-04-22_21h25.17.154,searchDisc4,2020.2.10,Win32,60,,,space,0.283625,1,1,0.49812,,0,361,361,450,1,2b,108,3,9,
,,,,,,,,,,,,,,,,,,,,,,,,,,images/exp2c_trial_20_colour1_distractors9_l.png,l,1,023,001,2021-04-22_21h25.17.154,searchDisc4,2020.2.10,Win32,60,,,space,0.106305,1,1,0.668295,,0,362,362,476,1,2c,20,1,9,
,,,,,,,,,,,,,,,,,,,,,,,,,,images/exp2c_trial_46_colour2_distractors9_r.png,r,2,023,001,2021-04-22_21h25.17.154,searchDisc4,2020.2.10,Win32,60,,,space,0.085755,2,1,0.667425,,0,363,363,502,1,2c,46,2,9,
,,,,,,,,,,,,,,,,,,,,,,,,,,images/exp1b_trial_23_colour1_distractors43_l.png,l,1,023,001,2021-04-22_21h25.17.154,searchDisc4,2020.2.10,Win32,60,,,space,0.000735,1,1,0.88562,,0,364,364,137,1,1b,23,1,43,
,,,,,,,,,,,,,,,,,,,,,,,,,,images/exp2c_trial_3_colour1_distractors19_r.png,r,2,023,001,2021-04-22_21h25.17.154,searchDisc4,2020.2.10,Win32,60,,,space,0.00574,2,1,0.601675,,0,365,365,459,1,2c,3,1,19,
,,,,,,,,,,,,,,,,,,,,,,,,,,images/exp1b_trial_30_colour3_distractors1_l.png,l,1,023,001,2021-04-22_21h25.17.154,searchDisc4,2020.2.10,Win32,60,,,space,0.001195,1,1,0.732215,,0,366,366,144,1,1b,30,3,1,
,,,,,,,,,,,,,,,,,,,,,,,,,,images/exp2c_trial_95_colour1_distractors4_l.png,l,1,023,001,2021-04-22_21h25.17.154,searchDisc4,2020.2.10,Win32,60,,,space,0.532545,1,1,0.462345,,0,367,367,551,1,2c,95,1,4,
,,,,,,,,,,,,,,,,,,,,,,,,,,images/exp1a_trial_12_colour3_distractors1_r.png,r,2,023,001,2021-04-22_21h25.17.154,searchDisc4,2020.2.10,Win32,60,,,space,0.32173,2,1,0.66235,,0,368,368,12,1,1a,12,3,1,
,,,,,,,,,,,,,,,,,,,,,,,,,,images/exp2c_trial_79_colour1_distractors19_r.png,r,2,023,001,2021-04-22_21h25.17.154,searchDisc4,2020.2.10,Win32,60,,,space,0.217925,2,1,0.761825,,0,369,369,535,1,2c,79,1,19,
,,,,,,,,,,,,,,,,,,,,,,,,,,images/exp2a_trial_26_colour2_distractors9_l.png,l,1,023,001,2021-04-22_21h25.17.154,searchDisc4,2020.2.10,Win32,60,,,space,0.058955,1,1,0.53556,,0,370,370,254,1,2a,26,2,9,
,,,,,,,,,,,,,,,,,,,,,,,,,,images/exp1a_trial_40_colour1_distractors9_r.png,r,2,023,001,2021-04-22_21h25.17.154,searchDisc4,2020.2.10,Win32,60,,,space,0.00861,2,1,0.58319,,0,371,371,40,1,1a,40,1,9,
,,,,,,,,,,,,,,,,,,,,,,,,,,images/exp1a_trial_35_colour3_distractors43_l.png,l,1,023,001,2021-04-22_21h25.17.154,searchDisc4,2020.2.10,Win32,60,,,space,0.015885,1,1,0.570985,,0,372,372,35,1,1a,35,3,43,
,,,,,,,,,,,,,,,,,,,,,,,,,,images/exp2b_trial_88_colour3_distractors1_r.png,r,2,023,001,2021-04-22_21h25.17.154,searchDisc4,2020.2.10,Win32,60,,,space,0.01685,2,1,0.746795,,0,373,373,430,1,2b,88,3,1,
,,,,,,,,,,,,,,,,,,,,,,,,,,images/exp1b_trial_82_colour2_distractors1_r.png,r,2,023,001,2021-04-22_21h25.17.154,searchDisc4,2020.2.10,Win32,60,,,space,0.056585,1,0,0.550755,,0,374,374,196,1,1b,82,2,1,
,,,,,,,,,,,,,,,,,,,,,,,,,,images/exp1b_trial_86_colour2_distractors31_r.png,r,2,023,001,2021-04-22_21h25.17.154,searchDisc4,2020.2.10,Win32,60,,,space,0.10692,2,1,1.17476,,0,375,375,200,1,1b,86,2,31,
,,,,,,,,,,,,,,,,,,,,,,,,,,images/exp2a_trial_23_colour1_distractors43_l.png,l,1,023,001,2021-04-22_21h25.17.154,searchDisc4,2020.2.10,Win32,60,,,space,0.002565,1,1,0.630935,,0,376,376,251,1,2a,23,1,43,
,,,,,,,,,,,,,,,,,,,,,,,,,,images/exp2c_trial_85_colour2_distractors19_r.png,r,2,023,001,2021-04-22_21h25.17.154,searchDisc4,2020.2.10,Win32,60,,,space,0.021605,2,1,0.56994,,0,377,377,541,1,2c,85,2,19,
,,,,,,,,,,,,,,,,,,,,,,,,,,images/exp1b_trial_0_colour1_distractors1_r.png,r,2,023,001,2021-04-22_21h25.17.154,searchDisc4,2020.2.10,Win32,60,,,space,0.036575,2,1,0.63208,,0,378,378,114,1,1b,0,1,1,
,,,,,,,,,,,,,,,,,,,,,,,,,,images/exp1a_trial_15_colour3_distractors19_r.png,r,2,023,001,2021-04-22_21h25.17.154,searchDisc4,2020.2.10,Win32,60,,,space,0.01366,2,1,0.63595,,0,379,379,15,1,1a,15,3,19,
,,,,,,,,,,,,,,,,,,,,,,,,,,images/exp2c_trial_96_colour1_distractors9_l.png,l,1,023,001,2021-04-22_21h25.17.154,searchDisc4,2020.2.10,Win32,60,,,space,0.00094,1,1,0.58046,,0,380,380,552,1,2c,96,1,9,
,,,,,,,,,,,,,,,,,,,,,,,,,,images/exp2a_trial_21_colour1_distractors19_l.png,l,1,023,001,2021-04-22_21h25.17.154,searchDisc4,2020.2.10,Win32,60,,,space,0.012075,1,1,0.634365,,0,381,381,249,1,2a,21,1,19,
,,,,,,,,,,,,,,,,,,,,,,,,,,images/exp1b_trial_69_colour3_distractors4_l.png,l,1,023,001,2021-04-22_21h25.17.154,searchDisc4,2020.2.10,Win32,60,,,space,0.000485,1,1,1.05462,,0,382,382,183,1,1b,69,3,4,
,,,,,,,,,,,,,,,,,,,,,,,,,,images/exp1b_trial_62_colour2_distractors1_l.png,l,1,023,001,2021-04-22_21h25.17.154,searchDisc4,2020.2.10,Win32,60,,,space,0.000965,1,1,0.772365,,0,383,383,176,1,1b,62,2,1,
,,,,,,,,,,,,,,,,,,,,,,,,,,images/exp2c_trial_102_colour2_distractors9_l.png,l,1,023,001,2021-04-22_21h25.17.154,searchDisc4,2020.2.10,Win32,60,,,space,0.002745,1,1,0.78381,,0,384,384,558,1,2c,102,2,9,
,,,,,,,,,,,,,,,,,,,,,,,,,,images/exp1a_trial_96_colour1_distractors9_l.png,l,1,023,001,2021-04-22_21h25.17.154,searchDisc4,2020.2.10,Win32,60,,,space,0.43659,1,1,0.553585,,0,385,385,96,1,1a,96,1,9,
,,,,,,,,,,,,,,,,,,,,,,,,,,images/exp2a_trial_8_colour2_distractors9_r.png,r,2,023,001,2021-04-22_21h25.17.154,searchDisc4,2020.2.10,Win32,60,,,space,0.48793,2,1,0.610975,,0,386,386,236,1,2a,8,2,9,
,,,,,,,,,,,,,,,,,,,,,,,,,,images/exp2b_trial_0_colour1_distractors1_r.png,r,2,023,001,2021-04-22_21h25.17.154,searchDisc4,2020.2.10,Win32,60,,,space,0.12978,2,1,0.50811,,0,387,387,342,1,2b,0,1,1,
,,,,,,,,,,,,,,,,,,,,,,,,,,images/exp2b_trial_64_colour2_distractors9_l.png,l,1,023,001,2021-04-22_21h25.17.154,searchDisc4,2020.2.10,Win32,60,,,space,0.34049,1,1,0.567465,,0,388,388,406,1,2b,64,2,9,
,,,,,,,,,,,,,,,,,,,,,,,,,,images/exp2b_trial_87_colour2_distractors43_r.png,r,2,023,001,2021-04-22_21h25.17.154,searchDisc4,2020.2.10,Win32,60,,,space,0.23823,2,1,0.7211,,0,389,389,429,1,2b,87,2,43,
,,,,,,,,,,,,,,,,,,,,,,,,,,images/exp2a_trial_10_colour2_distractors31_r.png,r,2,023,001,2021-04-22_21h25.17.154,searchDisc4,2020.2.10,Win32,60,,,space,0.16651,2,1,0.502025,,0,390,390,238,1,2a,10,2,31,
,,,,,,,,,,,,,,,,,,,,,,,,,,images/exp1a_trial_109_colour3_distractors19_l.png,l,1,023,001,2021-04-22_21h25.17.154,searchDisc4,2020.2.10,Win32,60,,,space,0.04599,1,1,0.64248,,0,391,391,109,1,1a,109,3,19,
,,,,,,,,,,,,,,,,,,,,,,,,,,images/exp2c_trial_8_colour2_distractors9_r.png,r,2,023,001,2021-04-22_21h25.17.154,searchDisc4,2020.2.10,Win32,60,,,space,0.00778,2,1,0.623025,,0,392,392,464,1,2c,8,2,9,
,,,,,,,,,,,,,,,,,,,,,,,,,,images/exp1a_trial_93_colour3_distractors43_r.png,r,2,023,001,2021-04-22_21h25.17.154,searchDisc4,2020.2.10,Win32,60,,,space,0.03174,2,1,0.59839,,0,393,393,93,1,1a,93,3,43,
,,,,,,,,,,,,,,,,,,,,,,,,,,images/exp2c_trial_73_colour3_distractors43_l.png,l,1,023,001,2021-04-22_21h25.17.154,searchDisc4,2020.2.10,Win32,60,,,space,0.00793,1,1,0.58248,,0,394,394,529,1,2c,73,3,43,
,,,,,,,,,,,,,,,,,,,,,,,,,,images/exp2a_trial_7_colour2_distractors4_r.png,r,2,023,001,2021-04-22_21h25.17.154,searchDisc4,2020.2.10,Win32,60,,,space,0.006,2,1,0.606455,,0,395,395,235,1,2a,7,2,4,
,,,,,,,,,,,,,,,,,,,,,,,,,,images/exp2a_trial_18_colour1_distractors1_l.png,l,1,023,001,2021-04-22_21h25.17.154,searchDisc4,2020.2.10,Win32,60,,,space,0.40595,1,1,0.46218,,0,396,396,246,1,2a,18,1,1,
,,,,,,,,,,,,,,,,,,,,,,,,,,images/exp1b_trial_45_colour2_distractors4_r.png,r,2,023,001,2021-04-22_21h25.17.154,searchDisc4,2020.2.10,Win32,60,,,space,0.04674,2,1,0.55353,,0,397,397,159,1,1b,45,2,4,
,,,,,,,,,,,,,,,,,,,,,,,,,,images/exp2b_trial_46_colour2_distractors9_r.png,r,2,023,001,2021-04-22_21h25.17.154,searchDisc4,2020.2.10,Win32,60,,,space,0.050205,2,1,0.67725,,0,398,398,388,1,2b,46,2,9,
,,,,,,,,,,,,,,,,,,,,,,,,,,images/exp2a_trial_33_colour3_distractors19_l.png,l,1,023,001,2021-04-22_21h25.17.154,searchDisc4,2020.2.10,Win32,60,,,space,0.48348,1,1,0.528035,,0,399,399,261,1,2a,33,3,19,
,,,,,,,,,,,,,,,,,,,,,,,,,,images/exp1a_trial_60_colour1_distractors31_l.png,l,1,023,001,2021-04-22_21h25.17.154,searchDisc4,2020.2.10,Win32,60,,,space,0.00108,1,1,0.708325,,0,400,400,60,1,1a,60,1,31,
,,,,,,,,,,,,,,,,,,,,,,,,,,images/exp2c_trial_9_colour2_distractors19_r.png,r,2,023,001,2021-04-22_21h25.17.154,searchDisc4,2020.2.10,Win32,60,,,space,0.43492,2,1,0.50325,,0,401,401,465,1,2c,9,2,19,
,,,,,,,,,,,,,,,,,,,,,,,,,,images/exp2c_trial_107_colour3_distractors4_l.png,l,1,023,001,2021-04-22_21h25.17.154,searchDisc4,2020.2.10,Win32,60,,,space,0.63352,1,1,0.60084,,0,402,402,563,1,2c,107,3,4,
,,,,,,,,,,,,,,,,,,,,,,,,,,images/exp2c_trial_103_colour2_distractors19_l.png,l,1,023,001,2021-04-22_21h25.17.154,searchDisc4,2020.2.10,Win32,60,,,space,0.300915,2,0,0.498575,,0,403,403,559,1,2c,103,2,19,
,,,,,,,,,,,,,,,,,,,,,,,,,,images/exp2b_trial_84_colour2_distractors9_r.png,r,2,023,001,2021-04-22_21h25.17.154,searchDisc4,2020.2.10,Win32,60,,,space,0.416755,2,1,0.554825,,0,404,404,426,1,2b,84,2,9,
,,,,,,,,,,,,,,,,,,,,,,,,,,images/exp2b_trial_18_colour1_distractors1_l.png,l,1,023,001,2021-04-22_21h25.17.154,searchDisc4,2020.2.10,Win32,60,,,space,0.20378,1,1,0.480145,,0,405,405,360,1,2b,18,1,1,
,,,,,,,,,,,,,,,,,,,,,,,,,,images/exp2b_trial_24_colour2_distractors1_l.png,l,1,023,001,2021-04-22_21h25.17.154,searchDisc4,2020.2.10,Win32,60,,,space,0.27523,1,1,0.47936,,0,406,406,366,1,2b,24,2,1,
,,,,,,,,,,,,,,,,,,,,,,,,,,images/exp2b_trial_71_colour3_distractors19_l.png,l,1,023,001,2021-04-22_21h25.17.154,searchDisc4,2020.2.10,Win32,60,,,space,0.292365,2,0,0.473275,,0,407,407,413,1,2b,71,3,19,
,,,,,,,,,,,,,,,,,,,,,,,,,,images/exp1a_trial_112_colour0_distractors0_r.png,r,2,023,001,2021-04-22_21h25.17.154,searchDisc4,2020.2.10,Win32,60,,,space,0.383365,2,1,0.512795,,0,408,408,112,1,1a,112,0,0,
,,,,,,,,,,,,,,,,,,,,,,,,,,images/exp2c_trial_35_colour3_distractors43_l.png,l,1,023,001,2021-04-22_21h25.17.154,searchDisc4,2020.2.10,Win32,60,,,space,0.316525,1,1,0.486175,,0,409,409,491,1,2c,35,3,43,
,,,,,,,,,,,,,,,,,,,,,,,,,,images/exp1a_trial_66_colour2_distractors31_l.png,l,1,023,001,2021-04-22_21h25.17.154,searchDisc4,2020.2.10,Win32,60,,,space,0.1845,1,1,0.77662,,0,410,410,66,1,1a,66,2,31,
,,,,,,,,,,,,,,,,,,,,,,,,,,images/exp2a_trial_93_colour3_distractors43_r.png,r,2,023,001,2021-04-22_21h25.17.154,searchDisc4,2020.2.10,Win32,60,,,space,0.212185,2,1,0.532305,,0,411,411,321,1,2a,93,3,43,
,,,,,,,,,,,,,,,,,,,,,,,,,,images/exp1b_trial_42_colour1_distractors31_r.png,r,2,023,001,2021-04-22_21h25.17.154,searchDisc4,2020.2.10,Win32,60,,,space,0.155665,2,1,0.691725,,0,412,412,156,1,1b,42,1,31,
,,,,,,,,,,,,,,,,,,,,,,,,,,images/exp1b_trial_9_colour2_distractors19_r.png,r,2,023,001,2021-04-22_21h25.17.154,searchDisc4,2020.2.10,Win32,60,,,space,0.166475,2,1,0.712475,,0,413,413,123,1,1b,9,2,19,
,,,,,,,,,,,,,,,,,,,,,,,,,,images/exp2b_trial_6_colour2_distractors1_r.png,r,2,023,001,2021-04-22_21h25.17.154,searchDisc4,2020.2.10,Win32,60,,,space,0.21166,2,1,0.40736,,0,414,414,348,1,2b,6,2,1,
,,,,,,,,,,,,,,,,,,,,,,,,,,images/exp2b_trial_55_colour3_distractors43_r.png,r,2,023,001,2021-04-22_21h25.17.154,searchDisc4,2020.2.10,Win32,60,,,space,0.148075,2,1,0.453485,,0,415,415,397,1,2b,55,3,43,
,,,,,,,,,,,,,,,,,,,,,,,,,,images/exp2b_trial_39_colour1_distractors4_r.png,r,2,023,001,2021-04-22_21h25.17.154,searchDisc4,2020.2.10,Win32,60,,,space,0.12821,2,1,0.514735,,0,416,416,381,1,2b,39,1,4,
,,,,,,,,,,,,,,,,,,,,,,,,,,images/exp1b_trial_106_colour3_distractors1_l.png,l,1,023,001,2021-04-22_21h25.17.154,searchDisc4,2020.2.10,Win32,60,,,space,0.170905,1,1,0.935465,,0,417,417,220,1,1b,106,3,1,
,,,,,,,,,,,,,,,,,,,,,,,,,,images/exp1a_trial_0_colour1_distractors1_r.png,r,2,023,001,2021-04-22_21h25.17.154,searchDisc4,2020.2.10,Win32,60,,,space,0.189985,1,0,0.526445,,0,418,418,0,1,1a,0,1,1,
,,,,,,,,,,,,,,,,,,,,,,,,,,images/exp2a_trial_89_colour3_distractors4_r.png,r,2,023,001,2021-04-22_21h25.17.154,searchDisc4,2020.2.10,Win32,60,,,space,0.0826,2,1,0.459515,space,0,419,419,317,1,2a,89,3,4,0.09268
,,,,,,,,,,,,,,,,,,,,,,,,,,images/exp1a_trial_36_colour0_distractors0_r.png,r,2,023,001,2021-04-22_21h25.17.154,searchDisc4,2020.2.10,Win32,60,,,space,0.627195,2,1,0.66824,,0,420,420,36,1,1a,36,0,0,
,,,,,,,,,,,,,,,,,,,,,,,,,,images/exp2c_trial_37_colour0_distractors0_l.png,l,1,023,001,2021-04-22_21h25.17.154,searchDisc4,2020.2.10,Win32,60,,,space,0.122135,1,1,0.41495,,0,421,421,493,1,2c,37,0,0,
,,,,,,,,,,,,,,,,,,,,,,,,,,images/exp2b_trial_99_colour1_distractors43_l.png,l,1,023,001,2021-04-22_21h25.17.154,searchDisc4,2020.2.10,Win32,60,,,space,0.11481,1,1,0.538935,,0,422,422,441,1,2b,99,1,43,
,,,,,,,,,,,,,,,,,,,,,,,,,,images/exp2a_trial_78_colour1_distractors9_r.png,r,2,023,001,2021-04-22_21h25.17.154,searchDisc4,2020.2.10,Win32,60,,,space,0.076545,2,1,0.662425,,0,423,423,306,1,2a,78,1,9,
,,,,,,,,,,,,,,,,,,,,,,,,,,images/exp2c_trial_62_colour2_distractors1_l.png,l,1,023,001,2021-04-22_21h25.17.154,searchDisc4,2020.2.10,Win32,60,,,space,0.10476,2,0,0.59194,,0,424,424,518,1,2c,62,2,1,
,,,,,,,,,,,,,,,,,,,,,,,,,,images/exp2a_trial_36_colour0_distractors0_r.png,r,2,023,001,2021-04-22_21h25.17.154,searchDisc4,2020.2.10,Win32,60,,,space,0.46237,2,1,0.50264,,0,425,425,264,1,2a,36,0,0,
,,,,,,,,,,,,,,,,,,,,,,,,,,images/exp1b_trial_71_colour3_distractors19_l.png,l,1,023,001,2021-04-22_21h25.17.154,searchDisc4,2020.2.10,Win32,60,,,space,0.09274,1,1,1.027905,,0,426,426,185,1,1b,71,3,19,
,,,,,,,,,,,,,,,,,,,,,,,,,,images/exp1a_trial_84_colour2_distractors9_r.png,r,2,023,001,2021-04-22_21h25.17.154,searchDisc4,2020.2.10,Win32,60,,,space,0.12012,2,1,0.6249,,0,427,427,84,1,1a,84,2,9,
,,,,,,,,,,,,,,,,,,,,,,,,,,images/exp2a_trial_17_colour3_distractors43_r.png,r,2,023,001,2021-04-22_21h25.17.154,searchDisc4,2020.2.10,Win32,60,,,space,0.10013,2,1,0.71728,,0,428,428,245,1,2a,17,3,43,
,,,,,,,,,,,,,,,,,,,,,,,,,,images/exp2a_trial_6_colour2_distractors1_r.png,r,2,023,001,2021-04-22_21h25.17.154,searchDisc4,2020.2.10,Win32,60,,,space,0.11645,2,1,0.48972,,0,429,429,234,1,2a,6,2,1,
,,,,,,,,,,,,,,,,,,,,,,,,,,images/exp2b_trial_50_colour3_distractors1_r.png,r,2,023,001,2021-04-22_21h25.17.154,searchDisc4,2020.2.10,Win32,60,,,space,0.100595,2,1,0.46497,,0,430,430,392,1,2b,50,3,1,
,,,,,,,,,,,,,,,,,,,,,,,,,,images/exp1b_trial_56_colour1_distractors1_l.png,l,1,023,001,2021-04-22_21h25.17.154,searchDisc4,2020.2.10,Win32,60,,,space,0.133405,1,1,0.52776,,0,431,431,170,1,1b,56,1,1,
,,,,,,,,,,,,,,,,,,,,,,,,,,images/exp1a_trial_20_colour1_distractors9_l.png,l,1,023,001,2021-04-22_21h25.17.154,searchDisc4,2020.2.10,Win32,60,,,space,0.08346,2,0,0.429835,,0,432,432,20,1,1a,20,1,9,
,,,,,,,,,,,,,,,,,,,,,,,,,,images/exp2b_trial_110_colour3_distractors31_l.png,l,1,023,001,2021-04-22_21h25.17.154,searchDisc4,2020.2.10,Win32,60,,,space,0.396315,1,1,0.44837,,0,433,433,452,1,2b,110,3,31,
,,,,,,,,,,,,,,,,,,,,,,,,,,images/exp1a_trial_74_colour0_distractors0_r.png,r,2,023,001,2021-04-22_21h25.17.154,searchDisc4,2020.2.10,Win32,60,,,space,0.1514,2,1,0.45595,,0,434,434,74,1,1a,74,0,0,
,,,,,,,,,,,,,,,,,,,,,,,,,,images/exp2b_trial_69_colour3_distractors4_l.png,l,1,023,001,2021-04-22_21h25.17.154,searchDisc4,2020.2.10,Win32,60,,,space,0.118255,1,1,0.455515,,0,435,435,411,1,2b,69,3,4,
,,,,,,,,,,,,,,,,,,,,,,,,,,images/exp2b_trial_97_colour1_distractors19_l.png,l,1,023,001,2021-04-22_21h25.17.154,searchDisc4,2020.2.10,Win32,60,,,space,0.13329,1,1,0.54367,,0,436,436,439,1,2b,97,1,19,
,,,,,,,,,,,,,,,,,,,,,,,,,,images/exp2a_trial_35_colour3_distractors43_l.png,l,1,023,001,2021-04-22_21h25.17.154,searchDisc4,2020.2.10,Win32,60,,,space,0.200135,1,1,0.610145,,0,437,437,263,1,2a,35,3,43,
,,,,,,,,,,,,,,,,,,,,,,,,,,images/exp2b_trial_65_colour2_distractors19_l.png,l,1,023,001,2021-04-22_21h25.17.154,searchDisc4,2020.2.10,Win32,60,,,space,0.083515,2,0,0.545735,,0,438,438,407,1,2b,65,2,19,
,,,,,,,,,,,,,,,,,,,,,,,,,,images/exp2b_trial_4_colour1_distractors31_r.png,r,2,023,001,2021-04-22_21h25.17.154,searchDisc4,2020.2.10,Win32,60,,,space,0.37682,2,1,0.47697,,0,439,439,346,1,2b,4,1,31,
,,,,,,,,,,,,,,,,,,,,,,,,,,images/exp2a_trial_3_colour1_distractors19_r.png,r,2,023,001,2021-04-22_21h25.17.154,searchDisc4,2020.2.10,Win32,60,,,space,0.116815,1,0,0.534135,,0,440,440,231,1,2a,3,1,19,
,,,,,,,,,,,,,,,,,,,,,,,,,,images/exp2b_trial_59_colour1_distractors19_l.png,l,1,023,001,2021-04-22_21h25.17.154,searchDisc4,2020.2.10,Win32,60,,,space,0.416705,1,1,0.477475,,0,441,441,401,1,2b,59,1,19,
,,,,,,,,,,,,,,,,,,,,,,,,,,images/exp2b_trial_61_colour1_distractors43_l.png,l,1,023,001,2021-04-22_21h25.17.154,searchDisc4,2020.2.10,Win32,60,,,space,0.09217,1,1,0.70652,,0,442,442,403,1,2b,61,1,43,
,,,,,,,,,,,,,,,,,,,,,,,,,,images/exp2c_trial_1_colour1_distractors4_r.png,r,2,023,001,2021-04-22_21h25.17.154,searchDisc4,2020.2.10,Win32,60,,,space,0.033245,2,1,0.579895,,0,443,443,457,1,2c,1,1,4,
,,,,,,,,,,,,,,,,,,,,,,,,,,images/exp1a_trial_54_colour3_distractors31_r.png,r,2,023,001,2021-04-22_21h25.17.154,searchDisc4,2020.2.10,Win32,60,,,space,0.116785,2,1,0.459765,,0,444,444,54,1,1a,54,3,31,
,,,,,,,,,,,,,,,,,,,,,,,,,,images/exp1b_trial_80_colour1_distractors31_r.png,r,2,023,001,2021-04-22_21h25.17.154,searchDisc4,2020.2.10,Win32,60,,,space,0.133495,2,1,0.910795,,0,445,445,194,1,1b,80,1,31,
,,,,,,,,,,,,,,,,,,,,,,,,,,images/exp1a_trial_25_colour2_distractors4_l.png,l,1,023,001,2021-04-22_21h25.17.154,searchDisc4,2020.2.10,Win32,60,,,space,0.06926,1,1,0.74506,,0,446,446,25,1,1a,25,2,4,
,,,,,,,,,,,,,,,,,,,,,,,,,,images/exp2b_trial_2_colour1_distractors9_r.png,r,2,023,001,2021-04-22_21h25.17.154,searchDisc4,2020.2.10,Win32,60,,,space,0.116955,2,1,0.49631,,0,447,447,344,1,2b,2,1,9,
,,,,,,,,,,,,,,,,,,,,,,,,,,images/exp2a_trial_96_colour1_distractors9_l.png,l,1,023,001,2021-04-22_21h25.17.154,searchDisc4,2020.2.10,Win32,60,,,space,0.09989,1,1,0.484105,,0,448,448,324,1,2a,96,1,9,
,,,,,,,,,,,,,,,,,,,,,,,,,,images/exp1b_trial_21_colour1_distractors19_l.png,l,1,023,001,2021-04-22_21h25.17.154,searchDisc4,2020.2.10,Win32,60,,,space,0.108875,1,1,0.75529,,0,449,449,135,1,1b,21,1,19,
,,,,,,,,,,,,,,,,,,,,,,,,,,images/exp2b_trial_21_colour1_distractors19_l.png,l,1,023,001,2021-04-22_21h25.17.154,searchDisc4,2020.2.10,Win32,60,,,space,0.166795,1,1,0.62065,,0,450,450,363,1,2b,21,1,19,
,,,,,,,,,,,,,,,,,,,,,,,,,,images/exp1b_trial_43_colour1_distractors43_r.png,r,2,023,001,2021-04-22_21h25.17.154,searchDisc4,2020.2.10,Win32,60,,,space,0.1885,2,1,0.560145,,0,451,451,157,1,1b,43,1,43,
,,,,,,,,,,,,,,,,,,,,,,,,,,images/exp1a_trial_13_colour3_distractors4_r.png,r,2,023,001,2021-04-22_21h25.17.154,searchDisc4,2020.2.10,Win32,60,,,space,0.17102,2,1,0.52886,,0,452,452,13,1,1a,13,3,4,
,,,,,,,,,,,,,,,,,,,,,,,,,,images/exp2a_trial_46_colour2_distractors9_r.png,r,2,023,001,2021-04-22_21h25.17.154,searchDisc4,2020.2.10,Win32,60,,,space,0.12705,2,1,0.644815,,0,453,453,274,1,2a,46,2,9,
,,,,,,,,,,,,,,,,,,,,,,,,,,images/exp2c_trial_14_colour3_distractors9_r.png,r,2,023,001,2021-04-22_21h25.17.154,searchDisc4,2020.2.10,Win32,60,,,space,0.08363,2,1,0.69583,,0,454,454,470,1,2c,14,3,9,
,,,,,,,,,,,,,,,,,,,,,,,,,,images/exp2c_trial_43_colour1_distractors43_r.png,r,2,023,001,2021-04-22_21h25.17.154,searchDisc4,2020.2.10,Win32,60,,,space,0.204215,2,1,0.60845,,0,455,455,499,1,2c,43,1,43,
,,,,,,,,,,,,,,,,,,,,,,,,,,images/exp2a_trial_38_colour1_distractors1_r.png,r,2,023,001,2021-04-22_21h25.17.154,searchDisc4,2020.2.10,Win32,60,,,space,0.100145,2,1,0.44247,,0,456,456,266,1,2a,38,1,1,
,,,,,,,,,,,,,,,,,,,,,,,,,,images/exp2c_trial_26_colour2_distractors9_l.png,l,1,023,001,2021-04-22_21h25.17.154,searchDisc4,2020.2.10,Win32,60,,,space,0.11666,1,1,0.685475,,0,457,457,482,1,2c,26,2,9,
,,,,,,,,,,,,,,,,,,,,,,,,,,images/exp1b_trial_44_colour2_distractors1_r.png,r,2,023,001,2021-04-22_21h25.17.154,searchDisc4,2020.2.10,Win32,60,,,space,0.083555,2,1,0.48446,,0,458,458,158,1,1b,44,2,1,
,,,,,,,,,,,,,,,,,,,,,,,,,,images/exp2c_trial_50_colour3_distractors1_r.png,r,2,023,001,2021-04-22_21h25.17.154,searchDisc4,2020.2.10,Win32,60,,,space,0.10768,2,1,0.53796,,0,459,459,506,1,2c,50,3,1,
,,,,,,,,,,,,,,,,,,,,,,,,,,images/exp2a_trial_82_colour2_distractors1_r.png,r,2,023,001,2021-04-22_21h25.17.154,searchDisc4,2020.2.10,Win32,60,,,space,0.08548,1,0,0.47088,,0,460,460,310,1,2a,82,2,1,
,,,,,,,,,,,,,,,,,,,,,,,,,,images/exp2c_trial_105_colour2_distractors43_l.png,l,1,023,001,2021-04-22_21h25.17.154,searchDisc4,2020.2.10,Win32,60,,,space,0.427605,2,0,0.522085,,0,461,461,561,1,2c,105,2,43,
,,,,,,,,,,,,,,,,,,,,,,,,,,images/exp1a_trial_30_colour3_distractors1_l.png,l,1,023,001,2021-04-22_21h25.17.154,searchDisc4,2020.2.10,Win32,60,,,space,0.337925,1,1,0.44515,,0,462,462,30,1,1a,30,3,1,
,,,,,,,,,,,,,,,,,,,,,,,,,,images/exp2a_trial_5_colour1_distractors43_r.png,r,2,023,001,2021-04-22_21h25.17.154,searchDisc4,2020.2.10,Win32,60,,,space,0.106205,2,1,0.73159,,0,463,463,233,1,2a,5,1,43,
,,,,,,,,,,,,,,,,,,,,,,,,,,images/exp2a_trial_55_colour3_distractors43_r.png,r,2,023,001,2021-04-22_21h25.17.154,searchDisc4,2020.2.10,Win32,60,,,space,0.128215,2,1,0.65162,,0,464,464,283,1,2a,55,3,43,
,,,,,,,,,,,,,,,,,,,,,,,,,,images/exp1a_trial_85_colour2_distractors19_r.png,r,2,023,001,2021-04-22_21h25.17.154,searchDisc4,2020.2.10,Win32,60,,,space,0.11627,2,1,0.840285,,0,465,465,85,1,1a,85,2,19,
,,,,,,,,,,,,,,,,,,,,,,,,,,images/exp1a_trial_87_colour2_distractors43_r.png,r,2,023,001,2021-04-22_21h25.17.154,searchDisc4,2020.2.10,Win32,60,,,space,0.11424,2,1,0.50728,,0,466,466,87,1,1a,87,2,43,
,,,,,,,,,,,,,,,,,,,,,,,,,,images/exp1a_trial_38_colour1_distractors1_r.png,r,2,023,001,2021-04-22_21h25.17.154,searchDisc4,2020.2.10,Win32,60,,,space,0.08619,2,1,0.65771,,0,467,467,38,1,1a,38,1,1,
,,,,,,,,,,,,,,,,,,,,,,,,,,images/exp1a_trial_55_colour3_distractors43_r.png,r,2,023,001,2021-04-22_21h25.17.154,searchDisc4,2020.2.10,Win32,60,,,space,0.07504,2,1,0.527145,,0,468,468,55,1,1a,55,3,43,
,,,,,,,,,,,,,,,,,,,,,,,,,,images/exp2b_trial_81_colour1_distractors43_r.png,r,2,023,001,2021-04-22_21h25.17.154,searchDisc4,2020.2.10,Win32,60,,,space,0.054,2,1,0.48974,,0,469,469,423,1,2b,81,1,43,
,,,,,,,,,,,,,,,,,,,,,,,,,,images/exp1b_trial_99_colour1_distractors43_l.png,l,1,023,001,2021-04-22_21h25.17.154,searchDisc4,2020.2.10,Win32,60,,,space,0.086605,2,0,0.801335,,0,470,470,213,1,1b,99,1,43,
,,,,,,,,,,,,,,,,,,,,,,,,,,images/exp2a_trial_58_colour1_distractors9_l.png,l,1,023,001,2021-04-22_21h25.17.154,searchDisc4,2020.2.10,Win32,60,,,space,0.09136,1,1,0.63497,,0,471,471,286,1,2a,58,1,9,
,,,,,,,,,,,,,,,,,,,,,,,,,,images/exp1b_trial_7_colour2_distractors4_r.png,r,2,023,001,2021-04-22_21h25.17.154,searchDisc4,2020.2.10,Win32,60,,,space,0.11398,2,1,0.84072,,0,472,472,121,1,1b,7,2,4,
,,,,,,,,,,,,,,,,,,,,,,,,,,images/exp2a_trial_97_colour1_distractors19_l.png,l,1,023,001,2021-04-22_21h25.17.154,searchDisc4,2020.2.10,Win32,60,,,space,0.117255,1,1,0.498805,,0,473,473,325,1,2a,97,1,19,
,,,,,,,,,,,,,,,,,,,,,,,,,,images/exp1a_trial_101_colour2_distractors4_l.png,l,1,023,001,2021-04-22_21h25.17.154,searchDisc4,2020.2.10,Win32,60,,,space,0.100005,1,1,0.52268,,0,474,474,101,1,1a,101,2,4,
,,,,,,,,,,,,,,,,,,,,,,,,,,images/exp1a_trial_47_colour2_distractors19_r.png,r,2,023,001,2021-04-22_21h25.17.154,searchDisc4,2020.2.10,Win32,60,,,space,0.116535,2,1,1.290675,,0,475,475,47,1,1a,47,2,19,
,,,,,,,,,,,,,,,,,,,,,,,,,,images/exp1b_trial_61_colour1_distractors43_l.png,l,1,023,001,2021-04-22_21h25.17.154,searchDisc4,2020.2.10,Win32,60,,,space,0.090535,1,1,1.107905,,0,476,476,175,1,1b,61,1,43,
