X Scale,Y Scale,key_resp_10.keys,key_resp_10.rt,key_resp_11.keys,key_resp_11.rt,key_resp_12.keys,key_resp_12.rt,key_resp_13.keys,key_resp_13.rt,key_resp_5.keys,key_resp_5.rt,key_resp_8.keys,key_resp_8.rt,key_resp_6.keys,key_resp_6.rt,key_resp_7.keys,key_resp_7.rt,key_resp_4.keys,key_resp_4.corr,key_resp_4.rt,trials_2.thisRepN,trials_2.thisTrialN,trials_2.thisN,trials_2.thisIndex,trials_2.ran,ImageFile,targ_side,correctAnswer,participant,session,date,expName,psychopyVersion,OS,frameRate,key_resp_3.keys,key_resp_3.rt,key_resp_9.keys,key_resp_9.rt,key_resp_2.keys,key_resp_2.corr,key_resp_2.rt,key_resp.keys,trials.thisRepN,trials.thisTrialN,trials.thisN,trials.thisIndex,trials.ran,exp,trial,colour,distNo,key_resp.rt
19.4,19.9,space,2.7594,space,1.109525,space,0.988235,space,1.54622,space,1.903155,space,7.677185,space,4.098795,space,1.021825,2,1,0.8758,0,0,0,6,1,Practice arrays/exp1a_trial_12_colour3_distractors1_r.png,r,2,024,001,2021-04-23_15h22.22.957,searchDisc4,2020.2.10,Win32,60,,,,,,,,,,,,,,,,,,
,,,,,,,,,,,,,,,,space,0.55708,2,1,0.564265,0,1,1,18,1,Practice arrays/exp1a_trial_36_colour0_distractors0_r.png,r,2,024,001,2021-04-23_15h22.22.957,searchDisc4,2020.2.10,Win32,60,,,,,,,,,,,,,,,,,,
,,,,,,,,,,,,,,,,space,0.43891,1,1,0.72568,0,2,2,11,1,Practice arrays/exp1a_trial_21_colour1_distractors19_l.png,l,1,024,001,2021-04-23_15h22.22.957,searchDisc4,2020.2.10,Win32,60,,,,,,,,,,,,,,,,,,
,,,,,,,,,,,,,,,,space,0.46173,2,1,0.910885,0,3,3,5,1,Practice arrays/exp1a_trial_10_colour2_distractors31_r.png,r,2,024,001,2021-04-23_15h22.22.957,searchDisc4,2020.2.10,Win32,60,,,,,,,,,,,,,,,,,,
,,,,,,,,,,,,,,,,space,0.41677,1,1,0.909165,0,4,4,19,1,Practice arrays/exp1a_trial_37_colour0_distractors0_l.png,l,1,024,001,2021-04-23_15h22.22.957,searchDisc4,2020.2.10,Win32,60,,,,,,,,,,,,,,,,,,
,,,,,,,,,,,,,,,,space,0.58566,2,1,0.849735,0,5,5,8,1,Practice arrays/exp1a_trial_16_colour3_distractors31_r.png,r,2,024,001,2021-04-23_15h22.22.957,searchDisc4,2020.2.10,Win32,60,,,,,,,,,,,,,,,,,,
,,,,,,,,,,,,,,,,space,0.46704,2,1,0.687565,0,6,6,1,1,Practice arrays/exp1a_trial_3_colour1_distractors19_r.png,r,2,024,001,2021-04-23_15h22.22.957,searchDisc4,2020.2.10,Win32,60,,,,,,,,,,,,,,,,,,
,,,,,,,,,,,,,,,,space,0.134405,1,1,0.557985,0,7,7,9,1,Practice arrays/exp1a_trial_19_colour1_distractors4_l.png,l,1,024,001,2021-04-23_15h22.22.957,searchDisc4,2020.2.10,Win32,60,,,,,,,,,,,,,,,,,,
,,,,,,,,,,,,,,,,space,0.55765,1,1,0.758765,0,8,8,14,1,Practice arrays/exp1a_trial_29_colour2_distractors43_l.png,l,1,024,001,2021-04-23_15h22.22.957,searchDisc4,2020.2.10,Win32,60,,,,,,,,,,,,,,,,,,
,,,,,,,,,,,,,,,,space,0.50638,1,1,0.711675,0,9,9,10,1,Practice arrays/exp1a_trial_20_colour1_distractors9_l.png,l,1,024,001,2021-04-23_15h22.22.957,searchDisc4,2020.2.10,Win32,60,,,,,,,,,,,,,,,,,,
,,,,,,,,,,,,,,,,space,0.021735,1,1,0.701215,0,10,10,13,1,Practice arrays/exp1a_trial_28_colour2_distractors31_l.png,l,1,024,001,2021-04-23_15h22.22.957,searchDisc4,2020.2.10,Win32,60,,,,,,,,,,,,,,,,,,
,,,,,,,,,,,,,,,,space,0.79903,1,1,0.647425,0,11,11,12,1,Practice arrays/exp1a_trial_25_colour2_distractors4_l.png,l,1,024,001,2021-04-23_15h22.22.957,searchDisc4,2020.2.10,Win32,60,,,,,,,,,,,,,,,,,,
,,,,,,,,,,,,,,,,space,0.38181,1,1,0.653235,0,12,12,17,1,Practice arrays/exp1a_trial_35_colour3_distractors43_l.png,l,1,024,001,2021-04-23_15h22.22.957,searchDisc4,2020.2.10,Win32,60,,,,,,,,,,,,,,,,,,
,,,,,,,,,,,,,,,,space,0.455015,1,1,0.5952,0,13,13,15,1,Practice arrays/exp1a_trial_32_colour3_distractors9_l.png,l,1,024,001,2021-04-23_15h22.22.957,searchDisc4,2020.2.10,Win32,60,,,,,,,,,,,,,,,,,,
,,,,,,,,,,,,,,,,space,0.1118,2,1,1.004845,0,14,14,2,1,Practice arrays/exp1a_trial_5_colour1_distractors43_r.png,r,2,024,001,2021-04-23_15h22.22.957,searchDisc4,2020.2.10,Win32,60,,,,,,,,,,,,,,,,,,
,,,,,,,,,,,,,,,,space,0.273595,2,1,0.58462,0,15,15,7,1,Practice arrays/exp1a_trial_13_colour3_distractors4_r.png,r,2,024,001,2021-04-23_15h22.22.957,searchDisc4,2020.2.10,Win32,60,,,,,,,,,,,,,,,,,,
,,,,,,,,,,,,,,,,space,0.05127,2,1,0.57484,0,16,16,4,1,Practice arrays/exp1a_trial_8_colour2_distractors9_r.png,r,2,024,001,2021-04-23_15h22.22.957,searchDisc4,2020.2.10,Win32,60,,,,,,,,,,,,,,,,,,
,,,,,,,,,,,,,,,,space,0.569815,1,1,0.600165,0,17,17,16,1,Practice arrays/exp1a_trial_33_colour3_distractors19_l.png,l,1,024,001,2021-04-23_15h22.22.957,searchDisc4,2020.2.10,Win32,60,,,,,,,,,,,,,,,,,,
,,,,,,,,,,,,,,,,space,0.413845,2,1,0.761315,0,18,18,0,1,Practice arrays/exp1a_trial_0_colour1_distractors1_r.png,r,2,024,001,2021-04-23_15h22.22.957,searchDisc4,2020.2.10,Win32,60,,,,,,,,,,,,,,,,,,
,,,,,,,,,,,,,,,,space,0.502745,2,1,1.169435,0,19,19,3,1,Practice arrays/exp1a_trial_7_colour2_distractors4_r.png,r,2,024,001,2021-04-23_15h22.22.957,searchDisc4,2020.2.10,Win32,60,,,,,,,,,,,,,,,,,,
,,,,,,,,,,,,,,,,,,,,,,,,,,images/exp2a_trial_0_colour1_distractors1_r.png,r,2,024,001,2021-04-23_15h22.22.957,searchDisc4,2020.2.10,Win32,60,space,1.27175,space,1.18146,2,1,0.64301,,0,0,0,228,1,2a,0,1,1,
,,,,,,,,,,,,,,,,,,,,,,,,,,images/exp1b_trial_34_colour3_distractors31_l.png,l,1,024,001,2021-04-23_15h22.22.957,searchDisc4,2020.2.10,Win32,60,,,space,0.40439,2,0,1.60885,,0,1,1,148,1,1b,34,3,31,
,,,,,,,,,,,,,,,,,,,,,,,,,,images/exp2b_trial_14_colour3_distractors9_r.png,r,2,024,001,2021-04-23_15h22.22.957,searchDisc4,2020.2.10,Win32,60,,,space,0.573645,2,1,0.606585,,0,2,2,356,1,2b,14,3,9,
,,,,,,,,,,,,,,,,,,,,,,,,,,images/exp2c_trial_5_colour1_distractors43_r.png,r,2,024,001,2021-04-23_15h22.22.957,searchDisc4,2020.2.10,Win32,60,,,space,0.447785,2,1,0.66687,,0,3,3,461,1,2c,5,1,43,
,,,,,,,,,,,,,,,,,,,,,,,,,,images/exp1a_trial_111_colour3_distractors43_l.png,l,1,024,001,2021-04-23_15h22.22.957,searchDisc4,2020.2.10,Win32,60,,,space,0.294505,1,1,0.62089,,0,4,4,111,1,1a,111,3,43,
,,,,,,,,,,,,,,,,,,,,,,,,,,images/exp2b_trial_75_colour0_distractors0_l.png,l,1,024,001,2021-04-23_15h22.22.957,searchDisc4,2020.2.10,Win32,60,,,space,0.32826,1,1,0.56202,,0,5,5,417,1,2b,75,0,0,
,,,,,,,,,,,,,,,,,,,,,,,,,,images/exp1a_trial_11_colour2_distractors43_r.png,r,2,024,001,2021-04-23_15h22.22.957,searchDisc4,2020.2.10,Win32,60,,,space,0.264685,2,1,0.729165,,0,6,6,11,1,1a,11,2,43,
,,,,,,,,,,,,,,,,,,,,,,,,,,images/exp2a_trial_106_colour3_distractors1_l.png,l,1,024,001,2021-04-23_15h22.22.957,searchDisc4,2020.2.10,Win32,60,,,space,0.227735,1,1,0.54185,,0,7,7,334,1,2a,106,3,1,
,,,,,,,,,,,,,,,,,,,,,,,,,,images/exp2b_trial_26_colour2_distractors9_l.png,l,1,024,001,2021-04-23_15h22.22.957,searchDisc4,2020.2.10,Win32,60,,,space,0.19469,1,1,0.686455,,0,8,8,368,1,2b,26,2,9,
,,,,,,,,,,,,,,,,,,,,,,,,,,images/exp2a_trial_35_colour3_distractors43_l.png,l,1,024,001,2021-04-23_15h22.22.957,searchDisc4,2020.2.10,Win32,60,,,space,0.170465,1,1,0.73249,,0,9,9,263,1,2a,35,3,43,
,,,,,,,,,,,,,,,,,,,,,,,,,,images/exp1b_trial_23_colour1_distractors43_l.png,l,1,024,001,2021-04-23_15h22.22.957,searchDisc4,2020.2.10,Win32,60,,,space,0.22711,1,1,0.91744,,0,10,10,137,1,1b,23,1,43,
,,,,,,,,,,,,,,,,,,,,,,,,,,images/exp1a_trial_63_colour2_distractors4_l.png,l,1,024,001,2021-04-23_15h22.22.957,searchDisc4,2020.2.10,Win32,60,,,space,0.143845,2,0,1.04042,,0,11,11,63,1,1a,63,2,4,
,,,,,,,,,,,,,,,,,,,,,,,,,,images/exp2c_trial_32_colour3_distractors9_l.png,l,1,024,001,2021-04-23_15h22.22.957,searchDisc4,2020.2.10,Win32,60,,,space,0.150545,1,1,0.839325,,0,12,12,488,1,2c,32,3,9,
,,,,,,,,,,,,,,,,,,,,,,,,,,images/exp2b_trial_51_colour3_distractors4_r.png,r,2,024,001,2021-04-23_15h22.22.957,searchDisc4,2020.2.10,Win32,60,,,space,0.1632,2,1,0.906035,,0,13,13,393,1,2b,51,3,4,
,,,,,,,,,,,,,,,,,,,,,,,,,,images/exp1b_trial_62_colour2_distractors1_l.png,l,1,024,001,2021-04-23_15h22.22.957,searchDisc4,2020.2.10,Win32,60,,,space,0.17459,1,1,0.980745,,0,14,14,176,1,1b,62,2,1,
,,,,,,,,,,,,,,,,,,,,,,,,,,images/exp2a_trial_8_colour2_distractors9_r.png,r,2,024,001,2021-04-23_15h22.22.957,searchDisc4,2020.2.10,Win32,60,,,space,0.12487,2,1,0.61741,,0,15,15,236,1,2a,8,2,9,
,,,,,,,,,,,,,,,,,,,,,,,,,,images/exp2c_trial_95_colour1_distractors4_l.png,l,1,024,001,2021-04-23_15h22.22.957,searchDisc4,2020.2.10,Win32,60,,,space,0.137035,1,1,0.67045,,0,16,16,551,1,2c,95,1,4,
,,,,,,,,,,,,,,,,,,,,,,,,,,images/exp2b_trial_76_colour1_distractors1_r.png,r,2,024,001,2021-04-23_15h22.22.957,searchDisc4,2020.2.10,Win32,60,,,space,0.19208,2,1,0.614635,,0,17,17,418,1,2b,76,1,1,
,,,,,,,,,,,,,,,,,,,,,,,,,,images/exp2a_trial_37_colour0_distractors0_l.png,l,1,024,001,2021-04-23_15h22.22.957,searchDisc4,2020.2.10,Win32,60,,,space,0.12513,1,1,0.676575,,0,18,18,265,1,2a,37,0,0,
,,,,,,,,,,,,,,,,,,,,,,,,,,images/exp2a_trial_31_colour3_distractors4_l.png,l,1,024,001,2021-04-23_15h22.22.957,searchDisc4,2020.2.10,Win32,60,,,space,0.174685,1,1,0.673215,,0,19,19,259,1,2a,31,3,4,
,,,,,,,,,,,,,,,,,,,,,,,,,,images/exp2b_trial_58_colour1_distractors9_l.png,l,1,024,001,2021-04-23_15h22.22.957,searchDisc4,2020.2.10,Win32,60,,,space,0.163595,1,1,0.681105,,0,20,20,400,1,2b,58,1,9,
,,,,,,,,,,,,,,,,,,,,,,,,,,images/exp2b_trial_113_colour0_distractors0_l.png,l,1,024,001,2021-04-23_15h22.22.957,searchDisc4,2020.2.10,Win32,60,,,space,0.161275,1,1,0.528675,,0,21,21,455,1,2b,113,0,0,
,,,,,,,,,,,,,,,,,,,,,,,,,,images/exp2c_trial_99_colour1_distractors43_l.png,l,1,024,001,2021-04-23_15h22.22.957,searchDisc4,2020.2.10,Win32,60,,,space,0.1987,1,1,0.6553,,0,22,22,555,1,2c,99,1,43,
,,,,,,,,,,,,,,,,,,,,,,,,,,images/exp2c_trial_20_colour1_distractors9_l.png,l,1,024,001,2021-04-23_15h22.22.957,searchDisc4,2020.2.10,Win32,60,,,space,0.209785,1,1,0.55416,,0,23,23,476,1,2c,20,1,9,
,,,,,,,,,,,,,,,,,,,,,,,,,,images/exp2c_trial_71_colour3_distractors19_l.png,l,1,024,001,2021-04-23_15h22.22.957,searchDisc4,2020.2.10,Win32,60,,,space,0.27607,1,1,0.559875,,0,24,24,527,1,2c,71,3,19,
,,,,,,,,,,,,,,,,,,,,,,,,,,images/exp2a_trial_39_colour1_distractors4_r.png,r,2,024,001,2021-04-23_15h22.22.957,searchDisc4,2020.2.10,Win32,60,,,space,0.2147,2,1,0.97868,,0,25,25,267,1,2a,39,1,4,
,,,,,,,,,,,,,,,,,,,,,,,,,,images/exp2a_trial_72_colour3_distractors31_l.png,l,1,024,001,2021-04-23_15h22.22.957,searchDisc4,2020.2.10,Win32,60,,,space,0.17371,1,1,0.780805,,0,26,26,300,1,2a,72,3,31,
,,,,,,,,,,,,,,,,,,,,,,,,,,images/exp1b_trial_21_colour1_distractors19_l.png,l,1,024,001,2021-04-23_15h22.22.957,searchDisc4,2020.2.10,Win32,60,,,space,0.154495,1,1,1.32743,,0,27,27,135,1,1b,21,1,19,
,,,,,,,,,,,,,,,,,,,,,,,,,,images/exp2b_trial_107_colour3_distractors4_l.png,l,1,024,001,2021-04-23_15h22.22.957,searchDisc4,2020.2.10,Win32,60,,,space,0.205385,1,1,0.719045,,0,28,28,449,1,2b,107,3,4,
,,,,,,,,,,,,,,,,,,,,,,,,,,images/exp2c_trial_4_colour1_distractors31_r.png,r,2,024,001,2021-04-23_15h22.22.957,searchDisc4,2020.2.10,Win32,60,,,space,0.233035,2,1,1.00087,,0,29,29,460,1,2c,4,1,31,
,,,,,,,,,,,,,,,,,,,,,,,,,,images/exp2b_trial_21_colour1_distractors19_l.png,l,1,024,001,2021-04-23_15h22.22.957,searchDisc4,2020.2.10,Win32,60,,,space,0.025565,1,1,0.780305,,0,30,30,363,1,2b,21,1,19,
,,,,,,,,,,,,,,,,,,,,,,,,,,images/exp2b_trial_46_colour2_distractors9_r.png,r,2,024,001,2021-04-23_15h22.22.957,searchDisc4,2020.2.10,Win32,60,,,space,0.194315,2,1,1.24584,,0,31,31,388,1,2b,46,2,9,
,,,,,,,,,,,,,,,,,,,,,,,,,,images/exp2b_trial_110_colour3_distractors31_l.png,l,1,024,001,2021-04-23_15h22.22.957,searchDisc4,2020.2.10,Win32,60,,,space,0.217515,1,1,0.7132,,0,32,32,452,1,2b,110,3,31,
,,,,,,,,,,,,,,,,,,,,,,,,,,images/exp2c_trial_48_colour2_distractors31_r.png,r,2,024,001,2021-04-23_15h22.22.957,searchDisc4,2020.2.10,Win32,60,,,space,0.219765,2,1,0.732405,,0,33,33,504,1,2c,48,2,31,
,,,,,,,,,,,,,,,,,,,,,,,,,,images/exp2a_trial_95_colour1_distractors4_l.png,l,1,024,001,2021-04-23_15h22.22.957,searchDisc4,2020.2.10,Win32,60,,,space,0.235475,1,1,0.62199,,0,34,34,323,1,2a,95,1,4,
,,,,,,,,,,,,,,,,,,,,,,,,,,images/exp2b_trial_43_colour1_distractors43_r.png,r,2,024,001,2021-04-23_15h22.22.957,searchDisc4,2020.2.10,Win32,60,,,space,0.22928,2,1,0.717565,,0,35,35,385,1,2b,43,1,43,
,,,,,,,,,,,,,,,,,,,,,,,,,,images/exp1a_trial_61_colour1_distractors43_l.png,l,1,024,001,2021-04-23_15h22.22.957,searchDisc4,2020.2.10,Win32,60,,,space,0.27285,1,1,0.67851,,0,36,36,61,1,1a,61,1,43,
,,,,,,,,,,,,,,,,,,,,,,,,,,images/exp1a_trial_3_colour1_distractors19_r.png,r,2,024,001,2021-04-23_15h22.22.957,searchDisc4,2020.2.10,Win32,60,,,space,0.237915,2,1,0.81189,,0,37,37,3,1,1a,3,1,19,
,,,,,,,,,,,,,,,,,,,,,,,,,,images/exp2c_trial_108_colour3_distractors9_l.png,l,1,024,001,2021-04-23_15h22.22.957,searchDisc4,2020.2.10,Win32,60,,,space,0.239965,1,1,0.83179,,0,38,38,564,1,2c,108,3,9,
,,,,,,,,,,,,,,,,,,,,,,,,,,images/exp1a_trial_43_colour1_distractors43_r.png,r,2,024,001,2021-04-23_15h22.22.957,searchDisc4,2020.2.10,Win32,60,,,space,0.23134,2,1,0.62066,,0,39,39,43,1,1a,43,1,43,
,,,,,,,,,,,,,,,,,,,,,,,,,,images/exp2a_trial_100_colour2_distractors1_l.png,l,1,024,001,2021-04-23_15h22.22.957,searchDisc4,2020.2.10,Win32,60,,,space,0.15035,1,1,0.632205,,0,40,40,328,1,2a,100,2,1,
,,,,,,,,,,,,,,,,,,,,,,,,,,images/exp1a_trial_48_colour2_distractors31_r.png,r,2,024,001,2021-04-23_15h22.22.957,searchDisc4,2020.2.10,Win32,60,,,space,0.24252,2,1,0.58729,,0,41,41,48,1,1a,48,2,31,
,,,,,,,,,,,,,,,,,,,,,,,,,,images/exp2b_trial_78_colour1_distractors9_r.png,r,2,024,001,2021-04-23_15h22.22.957,searchDisc4,2020.2.10,Win32,60,,,space,0.845545,2,1,0.63491,,0,42,42,420,1,2b,78,1,9,
,,,,,,,,,,,,,,,,,,,,,,,,,,images/exp2b_trial_49_colour2_distractors43_r.png,r,2,024,001,2021-04-23_15h22.22.957,searchDisc4,2020.2.10,Win32,60,,,space,0.20498,2,1,0.708915,,0,43,43,391,1,2b,49,2,43,
,,,,,,,,,,,,,,,,,,,,,,,,,,images/exp1b_trial_76_colour1_distractors1_r.png,r,2,024,001,2021-04-23_15h22.22.957,searchDisc4,2020.2.10,Win32,60,,,space,0.31419,2,1,1.09363,,0,44,44,190,1,1b,76,1,1,
,,,,,,,,,,,,,,,,,,,,,,,,,,images/exp1b_trial_5_colour1_distractors43_r.png,r,2,024,001,2021-04-23_15h22.22.957,searchDisc4,2020.2.10,Win32,60,,,space,0.229225,2,1,0.86563,,0,45,45,119,1,1b,5,1,43,
,,,,,,,,,,,,,,,,,,,,,,,,,,images/exp2a_trial_60_colour1_distractors31_l.png,l,1,024,001,2021-04-23_15h22.22.957,searchDisc4,2020.2.10,Win32,60,,,space,0.21356,1,1,1.3462,,0,46,46,288,1,2a,60,1,31,
,,,,,,,,,,,,,,,,,,,,,,,,,,images/exp2c_trial_98_colour1_distractors31_l.png,l,1,024,001,2021-04-23_15h22.22.957,searchDisc4,2020.2.10,Win32,60,,,space,0.287505,1,1,0.56931,,0,47,47,554,1,2c,98,1,31,
,,,,,,,,,,,,,,,,,,,,,,,,,,images/exp2c_trial_60_colour1_distractors31_l.png,l,1,024,001,2021-04-23_15h22.22.957,searchDisc4,2020.2.10,Win32,60,,,space,0.347005,1,1,0.694345,,0,48,48,516,1,2c,60,1,31,
,,,,,,,,,,,,,,,,,,,,,,,,,,images/exp1a_trial_2_colour1_distractors9_r.png,r,2,024,001,2021-04-23_15h22.22.957,searchDisc4,2020.2.10,Win32,60,,,space,0.268545,1,0,0.5453,,0,49,49,2,1,1a,2,1,9,
,,,,,,,,,,,,,,,,,,,,,,,,,,images/exp1b_trial_70_colour3_distractors9_l.png,l,1,024,001,2021-04-23_15h22.22.957,searchDisc4,2020.2.10,Win32,60,,,space,0.277855,1,1,0.863475,,0,50,50,184,1,1b,70,3,9,
,,,,,,,,,,,,,,,,,,,,,,,,,,images/exp2c_trial_57_colour1_distractors4_l.png,l,1,024,001,2021-04-23_15h22.22.957,searchDisc4,2020.2.10,Win32,60,,,space,0.17345,1,1,0.53501,,0,51,51,513,1,2c,57,1,4,
,,,,,,,,,,,,,,,,,,,,,,,,,,images/exp2c_trial_59_colour1_distractors19_l.png,l,1,024,001,2021-04-23_15h22.22.957,searchDisc4,2020.2.10,Win32,60,,,space,0.234625,1,1,0.4705,,0,52,52,515,1,2c,59,1,19,
,,,,,,,,,,,,,,,,,,,,,,,,,,images/exp1b_trial_68_colour3_distractors1_l.png,l,1,024,001,2021-04-23_15h22.22.957,searchDisc4,2020.2.10,Win32,60,,,space,0.252035,1,1,0.71619,,0,53,53,182,1,1b,68,3,1,
,,,,,,,,,,,,,,,,,,,,,,,,,,images/exp1a_trial_42_colour1_distractors31_r.png,r,2,024,001,2021-04-23_15h22.22.957,searchDisc4,2020.2.10,Win32,60,,,space,0.18437,2,1,0.68221,,0,54,54,42,1,1a,42,1,31,
,,,,,,,,,,,,,,,,,,,,,,,,,,images/exp1b_trial_19_colour1_distractors4_l.png,l,1,024,001,2021-04-23_15h22.22.957,searchDisc4,2020.2.10,Win32,60,,,space,0.22929,1,1,0.864775,,0,55,55,133,1,1b,19,1,4,
,,,,,,,,,,,,,,,,,,,,,,,,,,images/exp1a_trial_109_colour3_distractors19_l.png,l,1,024,001,2021-04-23_15h22.22.957,searchDisc4,2020.2.10,Win32,60,,,space,0.208475,1,1,0.61375,,0,56,56,109,1,1a,109,3,19,
,,,,,,,,,,,,,,,,,,,,,,,,,,images/exp2c_trial_53_colour3_distractors19_r.png,r,2,024,001,2021-04-23_15h22.22.957,searchDisc4,2020.2.10,Win32,60,,,space,0.21903,2,1,0.56541,,0,57,57,509,1,2c,53,3,19,
,,,,,,,,,,,,,,,,,,,,,,,,,,images/exp2a_trial_107_colour3_distractors4_l.png,l,1,024,001,2021-04-23_15h22.22.957,searchDisc4,2020.2.10,Win32,60,,,space,0.3106,1,1,0.579025,,0,58,58,335,1,2a,107,3,4,
,,,,,,,,,,,,,,,,,,,,,,,,,,images/exp2b_trial_11_colour2_distractors43_r.png,r,2,024,001,2021-04-23_15h22.22.957,searchDisc4,2020.2.10,Win32,60,,,space,0.2515,2,1,0.600015,space,0,59,59,353,1,2b,11,2,43,0.315065
,,,,,,,,,,,,,,,,,,,,,,,,,,images/exp2b_trial_93_colour3_distractors43_r.png,r,2,024,001,2021-04-23_15h22.22.957,searchDisc4,2020.2.10,Win32,60,,,space,0.718995,2,1,0.78604,,0,60,60,435,1,2b,93,3,43,
,,,,,,,,,,,,,,,,,,,,,,,,,,images/exp2a_trial_50_colour3_distractors1_r.png,r,2,024,001,2021-04-23_15h22.22.957,searchDisc4,2020.2.10,Win32,60,,,space,0.23877,2,1,0.61456,,0,61,61,278,1,2a,50,3,1,
,,,,,,,,,,,,,,,,,,,,,,,,,,images/exp2c_trial_83_colour2_distractors4_r.png,r,2,024,001,2021-04-23_15h22.22.957,searchDisc4,2020.2.10,Win32,60,,,space,0.2662,2,1,0.679725,,0,62,62,539,1,2c,83,2,4,
,,,,,,,,,,,,,,,,,,,,,,,,,,images/exp2a_trial_14_colour3_distractors9_r.png,r,2,024,001,2021-04-23_15h22.22.957,searchDisc4,2020.2.10,Win32,60,,,space,0.23629,2,1,0.659435,,0,63,63,242,1,2a,14,3,9,
,,,,,,,,,,,,,,,,,,,,,,,,,,images/exp2c_trial_17_colour3_distractors43_r.png,r,2,024,001,2021-04-23_15h22.22.957,searchDisc4,2020.2.10,Win32,60,,,space,0.25907,2,1,0.550205,,0,64,64,473,1,2c,17,3,43,
,,,,,,,,,,,,,,,,,,,,,,,,,,images/exp2a_trial_21_colour1_distractors19_l.png,l,1,024,001,2021-04-23_15h22.22.957,searchDisc4,2020.2.10,Win32,60,,,space,0.22184,1,1,0.73732,,0,65,65,249,1,2a,21,1,19,
,,,,,,,,,,,,,,,,,,,,,,,,,,images/exp1a_trial_53_colour3_distractors19_r.png,r,2,024,001,2021-04-23_15h22.22.957,searchDisc4,2020.2.10,Win32,60,,,space,0.169105,2,1,0.832285,,0,66,66,53,1,1a,53,3,19,
,,,,,,,,,,,,,,,,,,,,,,,,,,images/exp2a_trial_33_colour3_distractors19_l.png,l,1,024,001,2021-04-23_15h22.22.957,searchDisc4,2020.2.10,Win32,60,,,space,0.146965,1,1,0.66697,,0,67,67,261,1,2a,33,3,19,
,,,,,,,,,,,,,,,,,,,,,,,,,,images/exp2c_trial_31_colour3_distractors4_l.png,l,1,024,001,2021-04-23_15h22.22.957,searchDisc4,2020.2.10,Win32,60,,,space,0.21437,1,1,0.680475,,0,68,68,487,1,2c,31,3,4,
,,,,,,,,,,,,,,,,,,,,,,,,,,images/exp1a_trial_57_colour1_distractors4_l.png,l,1,024,001,2021-04-23_15h22.22.957,searchDisc4,2020.2.10,Win32,60,,,space,0.169715,1,1,0.722115,,0,69,69,57,1,1a,57,1,4,
,,,,,,,,,,,,,,,,,,,,,,,,,,images/exp2c_trial_113_colour0_distractors0_l.png,l,1,024,001,2021-04-23_15h22.22.957,searchDisc4,2020.2.10,Win32,60,,,space,0.132555,1,1,0.578615,,0,70,70,569,1,2c,113,0,0,
,,,,,,,,,,,,,,,,,,,,,,,,,,images/exp1b_trial_67_colour2_distractors43_l.png,l,1,024,001,2021-04-23_15h22.22.957,searchDisc4,2020.2.10,Win32,60,,,space,0.219215,1,1,0.913215,,0,71,71,181,1,1b,67,2,43,
,,,,,,,,,,,,,,,,,,,,,,,,,,images/exp2c_trial_111_colour3_distractors43_l.png,l,1,024,001,2021-04-23_15h22.22.957,searchDisc4,2020.2.10,Win32,60,,,space,0.13014,1,1,0.66241,,0,72,72,567,1,2c,111,3,43,
,,,,,,,,,,,,,,,,,,,,,,,,,,images/exp2a_trial_65_colour2_distractors19_l.png,l,1,024,001,2021-04-23_15h22.22.957,searchDisc4,2020.2.10,Win32,60,,,space,0.20849,1,1,0.537785,,0,73,73,293,1,2a,65,2,19,
,,,,,,,,,,,,,,,,,,,,,,,,,,images/exp2b_trial_112_colour0_distractors0_r.png,r,2,024,001,2021-04-23_15h22.22.957,searchDisc4,2020.2.10,Win32,60,,,space,0.22612,2,1,0.626315,,0,74,74,454,1,2b,112,0,0,
,,,,,,,,,,,,,,,,,,,,,,,,,,images/exp1b_trial_26_colour2_distractors9_l.png,l,1,024,001,2021-04-23_15h22.22.957,searchDisc4,2020.2.10,Win32,60,,,space,0.266415,1,1,0.83742,,0,75,75,140,1,1b,26,2,9,
,,,,,,,,,,,,,,,,,,,,,,,,,,images/exp2a_trial_3_colour1_distractors19_r.png,r,2,024,001,2021-04-23_15h22.22.957,searchDisc4,2020.2.10,Win32,60,,,space,0.176395,2,1,1.000305,,0,76,76,231,1,2a,3,1,19,
,,,,,,,,,,,,,,,,,,,,,,,,,,images/exp2b_trial_33_colour3_distractors19_l.png,l,1,024,001,2021-04-23_15h22.22.957,searchDisc4,2020.2.10,Win32,60,,,space,0.219695,1,1,0.65263,,0,77,77,375,1,2b,33,3,19,
,,,,,,,,,,,,,,,,,,,,,,,,,,images/exp1b_trial_36_colour0_distractors0_r.png,r,2,024,001,2021-04-23_15h22.22.957,searchDisc4,2020.2.10,Win32,60,,,space,0.207035,2,1,0.70981,,0,78,78,150,1,1b,36,0,0,
,,,,,,,,,,,,,,,,,,,,,,,,,,images/exp2a_trial_17_colour3_distractors43_r.png,r,2,024,001,2021-04-23_15h22.22.957,searchDisc4,2020.2.10,Win32,60,,,space,0.17347,2,1,0.654145,,0,79,79,245,1,2a,17,3,43,
,,,,,,,,,,,,,,,,,,,,,,,,,,images/exp1b_trial_46_colour2_distractors9_r.png,r,2,024,001,2021-04-23_15h22.22.957,searchDisc4,2020.2.10,Win32,60,,,space,0.13952,2,1,0.668175,,0,80,80,160,1,1b,46,2,9,
,,,,,,,,,,,,,,,,,,,,,,,,,,images/exp2b_trial_59_colour1_distractors19_l.png,l,1,024,001,2021-04-23_15h22.22.957,searchDisc4,2020.2.10,Win32,60,,,space,0.213005,1,1,0.660045,,0,81,81,401,1,2b,59,1,19,
,,,,,,,,,,,,,,,,,,,,,,,,,,images/exp2c_trial_106_colour3_distractors1_l.png,l,1,024,001,2021-04-23_15h22.22.957,searchDisc4,2020.2.10,Win32,60,,,space,0.22556,1,1,0.61586,,0,82,82,562,1,2c,106,3,1,
,,,,,,,,,,,,,,,,,,,,,,,,,,images/exp2b_trial_69_colour3_distractors4_l.png,l,1,024,001,2021-04-23_15h22.22.957,searchDisc4,2020.2.10,Win32,60,,,space,0.190645,1,1,0.71373,,0,83,83,411,1,2b,69,3,4,
,,,,,,,,,,,,,,,,,,,,,,,,,,images/exp1b_trial_64_colour2_distractors9_l.png,l,1,024,001,2021-04-23_15h22.22.957,searchDisc4,2020.2.10,Win32,60,,,space,0.173675,1,1,0.720465,,0,84,84,178,1,1b,64,2,9,
,,,,,,,,,,,,,,,,,,,,,,,,,,images/exp1b_trial_35_colour3_distractors43_l.png,l,1,024,001,2021-04-23_15h22.22.957,searchDisc4,2020.2.10,Win32,60,,,space,0.20474,1,1,1.248895,,0,85,85,149,1,1b,35,3,43,
,,,,,,,,,,,,,,,,,,,,,,,,,,images/exp1b_trial_52_colour3_distractors9_r.png,r,2,024,001,2021-04-23_15h22.22.957,searchDisc4,2020.2.10,Win32,60,,,space,0.171745,2,1,0.700975,,0,86,86,166,1,1b,52,3,9,
,,,,,,,,,,,,,,,,,,,,,,,,,,images/exp1b_trial_45_colour2_distractors4_r.png,r,2,024,001,2021-04-23_15h22.22.957,searchDisc4,2020.2.10,Win32,60,,,space,0.09599,2,1,0.81473,,0,87,87,159,1,1b,45,2,4,
,,,,,,,,,,,,,,,,,,,,,,,,,,images/exp1b_trial_101_colour2_distractors4_l.png,l,1,024,001,2021-04-23_15h22.22.957,searchDisc4,2020.2.10,Win32,60,,,space,0.08341,1,1,1.21395,,0,88,88,215,1,1b,101,2,4,
,,,,,,,,,,,,,,,,,,,,,,,,,,images/exp1a_trial_17_colour3_distractors43_r.png,r,2,024,001,2021-04-23_15h22.22.957,searchDisc4,2020.2.10,Win32,60,,,space,0.243915,2,1,0.57294,,0,89,89,17,1,1a,17,3,43,
,,,,,,,,,,,,,,,,,,,,,,,,,,images/exp2a_trial_59_colour1_distractors19_l.png,l,1,024,001,2021-04-23_15h22.22.957,searchDisc4,2020.2.10,Win32,60,,,space,0.249555,1,1,0.590545,,0,90,90,287,1,2a,59,1,19,
,,,,,,,,,,,,,,,,,,,,,,,,,,images/exp1a_trial_102_colour2_distractors9_l.png,l,1,024,001,2021-04-23_15h22.22.957,searchDisc4,2020.2.10,Win32,60,,,space,0.22063,1,1,0.61522,,0,91,91,102,1,1a,102,2,9,
,,,,,,,,,,,,,,,,,,,,,,,,,,images/exp2a_trial_79_colour1_distractors19_r.png,r,2,024,001,2021-04-23_15h22.22.957,searchDisc4,2020.2.10,Win32,60,,,space,0.16259,2,1,0.754835,,0,92,92,307,1,2a,79,1,19,
,,,,,,,,,,,,,,,,,,,,,,,,,,images/exp1a_trial_71_colour3_distractors19_l.png,l,1,024,001,2021-04-23_15h22.22.957,searchDisc4,2020.2.10,Win32,60,,,space,0.143855,1,1,0.7341,,0,93,93,71,1,1a,71,3,19,
,,,,,,,,,,,,,,,,,,,,,,,,,,images/exp2c_trial_85_colour2_distractors19_r.png,r,2,024,001,2021-04-23_15h22.22.957,searchDisc4,2020.2.10,Win32,60,,,space,0.173835,2,1,0.6301,,0,94,94,541,1,2c,85,2,19,
,,,,,,,,,,,,,,,,,,,,,,,,,,images/exp2a_trial_56_colour1_distractors1_l.png,l,1,024,001,2021-04-23_15h22.22.957,searchDisc4,2020.2.10,Win32,60,,,space,0.093,1,1,0.53684,,0,95,95,284,1,2a,56,1,1,
,,,,,,,,,,,,,,,,,,,,,,,,,,images/exp2c_trial_88_colour3_distractors1_r.png,r,2,024,001,2021-04-23_15h22.22.957,searchDisc4,2020.2.10,Win32,60,,,space,0.168775,2,1,0.5566,,0,96,96,544,1,2c,88,3,1,
,,,,,,,,,,,,,,,,,,,,,,,,,,images/exp2c_trial_107_colour3_distractors4_l.png,l,1,024,001,2021-04-23_15h22.22.957,searchDisc4,2020.2.10,Win32,60,,,space,0.13789,1,1,0.48339,,0,97,97,563,1,2c,107,3,4,
,,,,,,,,,,,,,,,,,,,,,,,,,,images/exp1b_trial_80_colour1_distractors31_r.png,r,2,024,001,2021-04-23_15h22.22.957,searchDisc4,2020.2.10,Win32,60,,,space,0.149875,2,1,0.831845,,0,98,98,194,1,1b,80,1,31,
,,,,,,,,,,,,,,,,,,,,,,,,,,images/exp2a_trial_19_colour1_distractors4_l.png,l,1,024,001,2021-04-23_15h22.22.957,searchDisc4,2020.2.10,Win32,60,,,space,0.10743,1,1,0.517585,,0,99,99,247,1,2a,19,1,4,
,,,,,,,,,,,,,,,,,,,,,,,,,,images/exp2c_trial_9_colour2_distractors19_r.png,r,2,024,001,2021-04-23_15h22.22.957,searchDisc4,2020.2.10,Win32,60,,,space,0.20792,2,1,0.60599,,0,100,100,465,1,2c,9,2,19,
,,,,,,,,,,,,,,,,,,,,,,,,,,images/exp2a_trial_12_colour3_distractors1_r.png,r,2,024,001,2021-04-23_15h22.22.957,searchDisc4,2020.2.10,Win32,60,,,space,0.73346,2,1,1.09361,,0,101,101,240,1,2a,12,3,1,
,,,,,,,,,,,,,,,,,,,,,,,,,,images/exp1a_trial_88_colour3_distractors1_r.png,r,2,024,001,2021-04-23_15h22.22.957,searchDisc4,2020.2.10,Win32,60,,,space,0.24303,2,1,0.628315,,0,102,102,88,1,1a,88,3,1,
,,,,,,,,,,,,,,,,,,,,,,,,,,images/exp2c_trial_41_colour1_distractors19_r.png,r,2,024,001,2021-04-23_15h22.22.957,searchDisc4,2020.2.10,Win32,60,,,space,0.24813,2,1,0.60866,,0,103,103,497,1,2c,41,1,19,
,,,,,,,,,,,,,,,,,,,,,,,,,,images/exp1b_trial_17_colour3_distractors43_r.png,r,2,024,001,2021-04-23_15h22.22.957,searchDisc4,2020.2.10,Win32,60,,,space,0.187705,2,1,1.316065,,0,104,104,131,1,1b,17,3,43,
,,,,,,,,,,,,,,,,,,,,,,,,,,images/exp2a_trial_105_colour2_distractors43_l.png,l,1,024,001,2021-04-23_15h22.22.957,searchDisc4,2020.2.10,Win32,60,,,space,0.173905,1,1,0.979665,,0,105,105,333,1,2a,105,2,43,
,,,,,,,,,,,,,,,,,,,,,,,,,,images/exp2a_trial_99_colour1_distractors43_l.png,l,1,024,001,2021-04-23_15h22.22.957,searchDisc4,2020.2.10,Win32,60,,,space,0.24322,1,1,0.57072,,0,106,106,327,1,2a,99,1,43,
,,,,,,,,,,,,,,,,,,,,,,,,,,images/exp2c_trial_104_colour2_distractors31_l.png,l,1,024,001,2021-04-23_15h22.22.957,searchDisc4,2020.2.10,Win32,60,,,space,0.281185,1,1,0.549865,,0,107,107,560,1,2c,104,2,31,
,,,,,,,,,,,,,,,,,,,,,,,,,,images/exp2c_trial_51_colour3_distractors4_r.png,r,2,024,001,2021-04-23_15h22.22.957,searchDisc4,2020.2.10,Win32,60,,,space,0.311945,2,1,0.87086,,0,108,108,507,1,2c,51,3,4,
,,,,,,,,,,,,,,,,,,,,,,,,,,images/exp1b_trial_33_colour3_distractors19_l.png,l,1,024,001,2021-04-23_15h22.22.957,searchDisc4,2020.2.10,Win32,60,,,space,0.26408,1,1,1.484075,,0,109,109,147,1,1b,33,3,19,
,,,,,,,,,,,,,,,,,,,,,,,,,,images/exp2b_trial_22_colour1_distractors31_l.png,l,1,024,001,2021-04-23_15h22.22.957,searchDisc4,2020.2.10,Win32,60,,,space,0.17371,1,1,0.57291,,0,110,110,364,1,2b,22,1,31,
,,,,,,,,,,,,,,,,,,,,,,,,,,images/exp1a_trial_59_colour1_distractors19_l.png,l,1,024,001,2021-04-23_15h22.22.957,searchDisc4,2020.2.10,Win32,60,,,space,0.248,1,1,0.5572,,0,111,111,59,1,1a,59,1,19,
,,,,,,,,,,,,,,,,,,,,,,,,,,images/exp1b_trial_30_colour3_distractors1_l.png,l,1,024,001,2021-04-23_15h22.22.957,searchDisc4,2020.2.10,Win32,60,,,space,0.38672,1,1,0.676995,,0,112,112,144,1,1b,30,3,1,
,,,,,,,,,,,,,,,,,,,,,,,,,,images/exp2b_trial_5_colour1_distractors43_r.png,r,2,024,001,2021-04-23_15h22.22.957,searchDisc4,2020.2.10,Win32,60,,,space,0.246465,2,1,0.73475,,0,113,113,347,1,2b,5,1,43,
,,,,,,,,,,,,,,,,,,,,,,,,,,images/exp1a_trial_74_colour0_distractors0_r.png,r,2,024,001,2021-04-23_15h22.22.957,searchDisc4,2020.2.10,Win32,60,,,space,0.291385,2,1,0.649535,,0,114,114,74,1,1a,74,0,0,
,,,,,,,,,,,,,,,,,,,,,,,,,,images/exp1a_trial_113_colour0_distractors0_l.png,l,1,024,001,2021-04-23_15h22.22.957,searchDisc4,2020.2.10,Win32,60,,,space,0.219685,1,1,0.618325,,0,115,115,113,1,1a,113,0,0,
,,,,,,,,,,,,,,,,,,,,,,,,,,images/exp2b_trial_16_colour3_distractors31_r.png,r,2,024,001,2021-04-23_15h22.22.957,searchDisc4,2020.2.10,Win32,60,,,space,0.264165,2,1,0.669905,,0,116,116,358,1,2b,16,3,31,
,,,,,,,,,,,,,,,,,,,,,,,,,,images/exp2c_trial_80_colour1_distractors31_r.png,r,2,024,001,2021-04-23_15h22.22.957,searchDisc4,2020.2.10,Win32,60,,,space,0.252865,2,1,0.999085,,0,117,117,536,1,2c,80,1,31,
,,,,,,,,,,,,,,,,,,,,,,,,,,images/exp1b_trial_111_colour3_distractors43_l.png,l,1,024,001,2021-04-23_15h22.22.957,searchDisc4,2020.2.10,Win32,60,,,space,0.35462,1,1,1.311085,,0,118,118,225,1,1b,111,3,43,
,,,,,,,,,,,,,,,,,,,,,,,,,,images/exp1b_trial_32_colour3_distractors9_l.png,l,1,024,001,2021-04-23_15h22.22.957,searchDisc4,2020.2.10,Win32,60,,,space,0.220115,1,1,0.976715,space,0,119,119,146,1,1b,32,3,9,0.24503
,,,,,,,,,,,,,,,,,,,,,,,,,,images/exp2b_trial_40_colour1_distractors9_r.png,r,2,024,001,2021-04-23_15h22.22.957,searchDisc4,2020.2.10,Win32,60,,,space,0.72751,2,1,0.713335,,0,120,120,382,1,2b,40,1,9,
,,,,,,,,,,,,,,,,,,,,,,,,,,images/exp1b_trial_54_colour3_distractors31_r.png,r,2,024,001,2021-04-23_15h22.22.957,searchDisc4,2020.2.10,Win32,60,,,space,0.298,2,1,1.038465,,0,121,121,168,1,1b,54,3,31,
,,,,,,,,,,,,,,,,,,,,,,,,,,images/exp2c_trial_65_colour2_distractors19_l.png,l,1,024,001,2021-04-23_15h22.22.957,searchDisc4,2020.2.10,Win32,60,,,space,0.194245,1,1,0.60312,,0,122,122,521,1,2c,65,2,19,
,,,,,,,,,,,,,,,,,,,,,,,,,,images/exp2c_trial_81_colour1_distractors43_r.png,r,2,024,001,2021-04-23_15h22.22.957,searchDisc4,2020.2.10,Win32,60,,,space,0.164925,2,1,0.459845,,0,123,123,537,1,2c,81,1,43,
,,,,,,,,,,,,,,,,,,,,,,,,,,images/exp1b_trial_31_colour3_distractors4_l.png,l,1,024,001,2021-04-23_15h22.22.957,searchDisc4,2020.2.10,Win32,60,,,space,0.17445,1,1,0.660105,,0,124,124,145,1,1b,31,3,4,
,,,,,,,,,,,,,,,,,,,,,,,,,,images/exp1a_trial_29_colour2_distractors43_l.png,l,1,024,001,2021-04-23_15h22.22.957,searchDisc4,2020.2.10,Win32,60,,,space,0.18866,2,0,0.72469,,0,125,125,29,1,1a,29,2,43,
,,,,,,,,,,,,,,,,,,,,,,,,,,images/exp2b_trial_24_colour2_distractors1_l.png,l,1,024,001,2021-04-23_15h22.22.957,searchDisc4,2020.2.10,Win32,60,,,space,0.13312,1,1,0.7752,,0,126,126,366,1,2b,24,2,1,
,,,,,,,,,,,,,,,,,,,,,,,,,,images/exp2c_trial_36_colour0_distractors0_r.png,r,2,024,001,2021-04-23_15h22.22.957,searchDisc4,2020.2.10,Win32,60,,,space,0.16043,2,1,0.570605,,0,127,127,492,1,2c,36,0,0,
,,,,,,,,,,,,,,,,,,,,,,,,,,images/exp2b_trial_35_colour3_distractors43_l.png,l,1,024,001,2021-04-23_15h22.22.957,searchDisc4,2020.2.10,Win32,60,,,space,0.17987,1,1,0.535075,,0,128,128,377,1,2b,35,3,43,
,,,,,,,,,,,,,,,,,,,,,,,,,,images/exp1a_trial_31_colour3_distractors4_l.png,l,1,024,001,2021-04-23_15h22.22.957,searchDisc4,2020.2.10,Win32,60,,,space,0.187725,1,1,0.81022,,0,129,129,31,1,1a,31,3,4,
,,,,,,,,,,,,,,,,,,,,,,,,,,images/exp2a_trial_54_colour3_distractors31_r.png,r,2,024,001,2021-04-23_15h22.22.957,searchDisc4,2020.2.10,Win32,60,,,space,0.13837,2,1,0.626395,,0,130,130,282,1,2a,54,3,31,
,,,,,,,,,,,,,,,,,,,,,,,,,,images/exp2b_trial_18_colour1_distractors1_l.png,l,1,024,001,2021-04-23_15h22.22.957,searchDisc4,2020.2.10,Win32,60,,,space,0.24782,1,1,0.49726,,0,131,131,360,1,2b,18,1,1,
,,,,,,,,,,,,,,,,,,,,,,,,,,images/exp2b_trial_12_colour3_distractors1_r.png,r,2,024,001,2021-04-23_15h22.22.957,searchDisc4,2020.2.10,Win32,60,,,space,0.143545,2,1,0.97247,,0,132,132,354,1,2b,12,3,1,
,,,,,,,,,,,,,,,,,,,,,,,,,,images/exp2c_trial_26_colour2_distractors9_l.png,l,1,024,001,2021-04-23_15h22.22.957,searchDisc4,2020.2.10,Win32,60,,,space,0.17511,1,1,0.65273,,0,133,133,482,1,2c,26,2,9,
,,,,,,,,,,,,,,,,,,,,,,,,,,images/exp2b_trial_100_colour2_distractors1_l.png,l,1,024,001,2021-04-23_15h22.22.957,searchDisc4,2020.2.10,Win32,60,,,space,0.19403,1,1,0.75629,,0,134,134,442,1,2b,100,2,1,
,,,,,,,,,,,,,,,,,,,,,,,,,,images/exp1b_trial_57_colour1_distractors4_l.png,l,1,024,001,2021-04-23_15h22.22.957,searchDisc4,2020.2.10,Win32,60,,,space,0.200575,1,1,2.045395,,0,135,135,171,1,1b,57,1,4,
,,,,,,,,,,,,,,,,,,,,,,,,,,images/exp1b_trial_3_colour1_distractors19_r.png,r,2,024,001,2021-04-23_15h22.22.957,searchDisc4,2020.2.10,Win32,60,,,space,0.13888,2,1,0.87027,,0,136,136,117,1,1b,3,1,19,
,,,,,,,,,,,,,,,,,,,,,,,,,,images/exp2b_trial_109_colour3_distractors19_l.png,l,1,024,001,2021-04-23_15h22.22.957,searchDisc4,2020.2.10,Win32,60,,,space,0.234485,1,1,0.736595,,0,137,137,451,1,2b,109,3,19,
,,,,,,,,,,,,,,,,,,,,,,,,,,images/exp2a_trial_85_colour2_distractors19_r.png,r,2,024,001,2021-04-23_15h22.22.957,searchDisc4,2020.2.10,Win32,60,,,space,0.13752,2,1,0.744175,,0,138,138,313,1,2a,85,2,19,
,,,,,,,,,,,,,,,,,,,,,,,,,,images/exp2b_trial_37_colour0_distractors0_l.png,l,1,024,001,2021-04-23_15h22.22.957,searchDisc4,2020.2.10,Win32,60,,,space,0.142885,1,1,1.216095,,0,139,139,379,1,2b,37,0,0,
,,,,,,,,,,,,,,,,,,,,,,,,,,images/exp1a_trial_35_colour3_distractors43_l.png,l,1,024,001,2021-04-23_15h22.22.957,searchDisc4,2020.2.10,Win32,60,,,space,0.111425,1,1,0.73765,,0,140,140,35,1,1a,35,3,43,
,,,,,,,,,,,,,,,,,,,,,,,,,,images/exp1b_trial_83_colour2_distractors4_r.png,r,2,024,001,2021-04-23_15h22.22.957,searchDisc4,2020.2.10,Win32,60,,,space,0.1271,2,1,1.179885,,0,141,141,197,1,1b,83,2,4,
,,,,,,,,,,,,,,,,,,,,,,,,,,images/exp1a_trial_40_colour1_distractors9_r.png,r,2,024,001,2021-04-23_15h22.22.957,searchDisc4,2020.2.10,Win32,60,,,space,0.164705,2,1,0.59771,,0,142,142,40,1,1a,40,1,9,
,,,,,,,,,,,,,,,,,,,,,,,,,,images/exp1a_trial_9_colour2_distractors19_r.png,r,2,024,001,2021-04-23_15h22.22.957,searchDisc4,2020.2.10,Win32,60,,,space,0.09736,2,1,0.937095,,0,143,143,9,1,1a,9,2,19,
,,,,,,,,,,,,,,,,,,,,,,,,,,images/exp2b_trial_54_colour3_distractors31_r.png,r,2,024,001,2021-04-23_15h22.22.957,searchDisc4,2020.2.10,Win32,60,,,space,0.11787,2,1,0.838135,,0,144,144,396,1,2b,54,3,31,
,,,,,,,,,,,,,,,,,,,,,,,,,,images/exp1b_trial_16_colour3_distractors31_r.png,r,2,024,001,2021-04-23_15h22.22.957,searchDisc4,2020.2.10,Win32,60,,,space,0.12326,2,1,0.98182,,0,145,145,130,1,1b,16,3,31,
,,,,,,,,,,,,,,,,,,,,,,,,,,images/exp1b_trial_65_colour2_distractors19_l.png,l,1,024,001,2021-04-23_15h22.22.957,searchDisc4,2020.2.10,Win32,60,,,space,0.123785,2,0,0.83078,,0,146,146,179,1,1b,65,2,19,
,,,,,,,,,,,,,,,,,,,,,,,,,,images/exp1b_trial_60_colour1_distractors31_l.png,l,1,024,001,2021-04-23_15h22.22.957,searchDisc4,2020.2.10,Win32,60,,,space,0.2504,1,1,1.02954,,0,147,147,174,1,1b,60,1,31,
,,,,,,,,,,,,,,,,,,,,,,,,,,images/exp2a_trial_57_colour1_distractors4_l.png,l,1,024,001,2021-04-23_15h22.22.957,searchDisc4,2020.2.10,Win32,60,,,space,0.02754,1,1,0.85013,,0,148,148,285,1,2a,57,1,4,
,,,,,,,,,,,,,,,,,,,,,,,,,,images/exp2b_trial_108_colour3_distractors9_l.png,l,1,024,001,2021-04-23_15h22.22.957,searchDisc4,2020.2.10,Win32,60,,,space,0.145045,1,1,0.76191,,0,149,149,450,1,2b,108,3,9,
,,,,,,,,,,,,,,,,,,,,,,,,,,images/exp2a_trial_46_colour2_distractors9_r.png,r,2,024,001,2021-04-23_15h22.22.957,searchDisc4,2020.2.10,Win32,60,,,space,0.15299,2,1,0.69937,,0,150,150,274,1,2a,46,2,9,
,,,,,,,,,,,,,,,,,,,,,,,,,,images/exp2a_trial_81_colour1_distractors43_r.png,r,2,024,001,2021-04-23_15h22.22.957,searchDisc4,2020.2.10,Win32,60,,,space,0.194875,2,1,1.945375,,0,151,151,309,1,2a,81,1,43,
,,,,,,,,,,,,,,,,,,,,,,,,,,images/exp1b_trial_89_colour3_distractors4_r.png,r,2,024,001,2021-04-23_15h22.22.957,searchDisc4,2020.2.10,Win32,60,,,space,0.068725,2,1,1.125285,,0,152,152,203,1,1b,89,3,4,
,,,,,,,,,,,,,,,,,,,,,,,,,,images/exp2a_trial_25_colour2_distractors4_l.png,l,1,024,001,2021-04-23_15h22.22.957,searchDisc4,2020.2.10,Win32,60,,,space,0.018355,1,1,0.683355,,0,153,153,253,1,2a,25,2,4,
,,,,,,,,,,,,,,,,,,,,,,,,,,images/exp1b_trial_0_colour1_distractors1_r.png,r,2,024,001,2021-04-23_15h22.22.957,searchDisc4,2020.2.10,Win32,60,,,space,0.419295,2,1,0.78149,,0,154,154,114,1,1b,0,1,1,
,,,,,,,,,,,,,,,,,,,,,,,,,,images/exp2b_trial_15_colour3_distractors19_r.png,r,2,024,001,2021-04-23_15h22.22.957,searchDisc4,2020.2.10,Win32,60,,,space,0.07112,2,1,0.680865,,0,155,155,357,1,2b,15,3,19,
,,,,,,,,,,,,,,,,,,,,,,,,,,images/exp2c_trial_29_colour2_distractors43_l.png,l,1,024,001,2021-04-23_15h22.22.957,searchDisc4,2020.2.10,Win32,60,,,space,0.120015,1,1,0.691365,,0,156,156,485,1,2c,29,2,43,
,,,,,,,,,,,,,,,,,,,,,,,,,,images/exp2b_trial_85_colour2_distractors19_r.png,r,2,024,001,2021-04-23_15h22.22.957,searchDisc4,2020.2.10,Win32,60,,,space,0.1335,2,1,0.69361,,0,157,157,427,1,2b,85,2,19,
,,,,,,,,,,,,,,,,,,,,,,,,,,images/exp1a_trial_58_colour1_distractors9_l.png,l,1,024,001,2021-04-23_15h22.22.957,searchDisc4,2020.2.10,Win32,60,,,space,0.139055,1,1,0.601415,,0,158,158,58,1,1a,58,1,9,
,,,,,,,,,,,,,,,,,,,,,,,,,,images/exp1a_trial_41_colour1_distractors19_r.png,r,2,024,001,2021-04-23_15h22.22.957,searchDisc4,2020.2.10,Win32,60,,,space,0.024175,2,1,0.67281,,0,159,159,41,1,1a,41,1,19,
,,,,,,,,,,,,,,,,,,,,,,,,,,images/exp2a_trial_111_colour3_distractors43_l.png,l,1,024,001,2021-04-23_15h22.22.957,searchDisc4,2020.2.10,Win32,60,,,space,0.111925,1,1,0.564195,,0,160,160,339,1,2a,111,3,43,
,,,,,,,,,,,,,,,,,,,,,,,,,,images/exp2a_trial_51_colour3_distractors4_r.png,r,2,024,001,2021-04-23_15h22.22.957,searchDisc4,2020.2.10,Win32,60,,,space,0.076835,2,1,0.61,,0,161,161,279,1,2a,51,3,4,
,,,,,,,,,,,,,,,,,,,,,,,,,,images/exp2c_trial_37_colour0_distractors0_l.png,l,1,024,001,2021-04-23_15h22.22.957,searchDisc4,2020.2.10,Win32,60,,,space,0.048865,1,1,0.4892,,0,162,162,493,1,2c,37,0,0,
,,,,,,,,,,,,,,,,,,,,,,,,,,images/exp1a_trial_34_colour3_distractors31_l.png,l,1,024,001,2021-04-23_15h22.22.957,searchDisc4,2020.2.10,Win32,60,,,space,0.0425,1,1,0.66862,,0,163,163,34,1,1a,34,3,31,
,,,,,,,,,,,,,,,,,,,,,,,,,,images/exp2b_trial_62_colour2_distractors1_l.png,l,1,024,001,2021-04-23_15h22.22.957,searchDisc4,2020.2.10,Win32,60,,,space,0.106825,1,1,0.659975,,0,164,164,404,1,2b,62,2,1,
,,,,,,,,,,,,,,,,,,,,,,,,,,images/exp2a_trial_70_colour3_distractors9_l.png,l,1,024,001,2021-04-23_15h22.22.957,searchDisc4,2020.2.10,Win32,60,,,space,0.10253,1,1,0.60188,,0,165,165,298,1,2a,70,3,9,
,,,,,,,,,,,,,,,,,,,,,,,,,,images/exp2b_trial_94_colour1_distractors1_l.png,l,1,024,001,2021-04-23_15h22.22.957,searchDisc4,2020.2.10,Win32,60,,,space,0.15826,1,1,0.618445,,0,166,166,436,1,2b,94,1,1,
,,,,,,,,,,,,,,,,,,,,,,,,,,images/exp2c_trial_1_colour1_distractors4_r.png,r,2,024,001,2021-04-23_15h22.22.957,searchDisc4,2020.2.10,Win32,60,,,space,0.098535,2,1,0.77157,,0,167,167,457,1,2c,1,1,4,
,,,,,,,,,,,,,,,,,,,,,,,,,,images/exp2b_trial_66_colour2_distractors31_l.png,l,1,024,001,2021-04-23_15h22.22.957,searchDisc4,2020.2.10,Win32,60,,,space,0.019215,1,1,0.614845,,0,168,168,408,1,2b,66,2,31,
,,,,,,,,,,,,,,,,,,,,,,,,,,images/exp2c_trial_8_colour2_distractors9_r.png,r,2,024,001,2021-04-23_15h22.22.957,searchDisc4,2020.2.10,Win32,60,,,space,0.045395,2,1,0.705185,,0,169,169,464,1,2c,8,2,9,
,,,,,,,,,,,,,,,,,,,,,,,,,,images/exp1a_trial_83_colour2_distractors4_r.png,r,2,024,001,2021-04-23_15h22.22.957,searchDisc4,2020.2.10,Win32,60,,,space,0.23499,2,1,0.586765,,0,170,170,83,1,1a,83,2,4,
,,,,,,,,,,,,,,,,,,,,,,,,,,images/exp1a_trial_93_colour3_distractors43_r.png,r,2,024,001,2021-04-23_15h22.22.957,searchDisc4,2020.2.10,Win32,60,,,space,0.102575,2,1,0.588325,,0,171,171,93,1,1a,93,3,43,
,,,,,,,,,,,,,,,,,,,,,,,,,,images/exp2c_trial_75_colour0_distractors0_l.png,l,1,024,001,2021-04-23_15h22.22.957,searchDisc4,2020.2.10,Win32,60,,,space,0.131555,1,1,0.67618,,0,172,172,531,1,2c,75,0,0,
,,,,,,,,,,,,,,,,,,,,,,,,,,images/exp1a_trial_52_colour3_distractors9_r.png,r,2,024,001,2021-04-23_15h22.22.957,searchDisc4,2020.2.10,Win32,60,,,space,0.230955,2,1,0.79914,,0,173,173,52,1,1a,52,3,9,
,,,,,,,,,,,,,,,,,,,,,,,,,,images/exp2a_trial_87_colour2_distractors43_r.png,r,2,024,001,2021-04-23_15h22.22.957,searchDisc4,2020.2.10,Win32,60,,,space,0.05132,2,1,0.717045,,0,174,174,315,1,2a,87,2,43,
,,,,,,,,,,,,,,,,,,,,,,,,,,images/exp2b_trial_47_colour2_distractors19_r.png,r,2,024,001,2021-04-23_15h22.22.957,searchDisc4,2020.2.10,Win32,60,,,space,0.129945,2,1,0.687465,,0,175,175,389,1,2b,47,2,19,
,,,,,,,,,,,,,,,,,,,,,,,,,,images/exp1b_trial_25_colour2_distractors4_l.png,l,1,024,001,2021-04-23_15h22.22.957,searchDisc4,2020.2.10,Win32,60,,,space,0.118255,1,1,0.845855,,0,176,176,139,1,1b,25,2,4,
,,,,,,,,,,,,,,,,,,,,,,,,,,images/exp2b_trial_52_colour3_distractors9_r.png,r,2,024,001,2021-04-23_15h22.22.957,searchDisc4,2020.2.10,Win32,60,,,space,0.12339,2,1,0.94143,,0,177,177,394,1,2b,52,3,9,
,,,,,,,,,,,,,,,,,,,,,,,,,,images/exp2a_trial_44_colour2_distractors1_r.png,r,2,024,001,2021-04-23_15h22.22.957,searchDisc4,2020.2.10,Win32,60,,,space,0.153435,2,1,0.66757,,0,178,178,272,1,2a,44,2,1,
,,,,,,,,,,,,,,,,,,,,,,,,,,images/exp2a_trial_26_colour2_distractors9_l.png,l,1,024,001,2021-04-23_15h22.22.957,searchDisc4,2020.2.10,Win32,60,,,space,0.13322,2,0,0.56339,space,0,179,179,254,1,2a,26,2,9,0.110405
,,,,,,,,,,,,,,,,,,,,,,,,,,images/exp2b_trial_99_colour1_distractors43_l.png,l,1,024,001,2021-04-23_15h22.22.957,searchDisc4,2020.2.10,Win32,60,,,space,0.753875,1,1,0.628545,,0,180,180,441,1,2b,99,1,43,
,,,,,,,,,,,,,,,,,,,,,,,,,,images/exp1a_trial_49_colour2_distractors43_r.png,r,2,024,001,2021-04-23_15h22.22.957,searchDisc4,2020.2.10,Win32,60,,,space,0.13576,2,1,0.69099,,0,181,181,49,1,1a,49,2,43,
,,,,,,,,,,,,,,,,,,,,,,,,,,images/exp1b_trial_59_colour1_distractors19_l.png,l,1,024,001,2021-04-23_15h22.22.957,searchDisc4,2020.2.10,Win32,60,,,space,0.166945,1,1,0.86738,,0,182,182,173,1,1b,59,1,19,
,,,,,,,,,,,,,,,,,,,,,,,,,,images/exp1b_trial_108_colour3_distractors9_l.png,l,1,024,001,2021-04-23_15h22.22.957,searchDisc4,2020.2.10,Win32,60,,,space,0.153085,1,1,0.722835,,0,183,183,222,1,1b,108,3,9,
,,,,,,,,,,,,,,,,,,,,,,,,,,images/exp1a_trial_24_colour2_distractors1_l.png,l,1,024,001,2021-04-23_15h22.22.957,searchDisc4,2020.2.10,Win32,60,,,space,0.142405,1,1,0.69518,,0,184,184,24,1,1a,24,2,1,
,,,,,,,,,,,,,,,,,,,,,,,,,,images/exp1a_trial_26_colour2_distractors9_l.png,l,1,024,001,2021-04-23_15h22.22.957,searchDisc4,2020.2.10,Win32,60,,,space,0.155755,1,1,0.87423,,0,185,185,26,1,1a,26,2,9,
,,,,,,,,,,,,,,,,,,,,,,,,,,images/exp2c_trial_27_colour2_distractors19_l.png,l,1,024,001,2021-04-23_15h22.22.957,searchDisc4,2020.2.10,Win32,60,,,space,0.05609,1,1,0.77817,,0,186,186,483,1,2c,27,2,19,
,,,,,,,,,,,,,,,,,,,,,,,,,,images/exp2c_trial_61_colour1_distractors43_l.png,l,1,024,001,2021-04-23_15h22.22.957,searchDisc4,2020.2.10,Win32,60,,,space,0.07207,1,1,0.673395,,0,187,187,517,1,2c,61,1,43,
,,,,,,,,,,,,,,,,,,,,,,,,,,images/exp2b_trial_98_colour1_distractors31_l.png,l,1,024,001,2021-04-23_15h22.22.957,searchDisc4,2020.2.10,Win32,60,,,space,0.121005,1,1,0.81113,,0,188,188,440,1,2b,98,1,31,
,,,,,,,,,,,,,,,,,,,,,,,,,,images/exp2a_trial_78_colour1_distractors9_r.png,r,2,024,001,2021-04-23_15h22.22.957,searchDisc4,2020.2.10,Win32,60,,,space,0.76214,2,1,0.62863,,0,189,189,306,1,2a,78,1,9,
,,,,,,,,,,,,,,,,,,,,,,,,,,images/exp1b_trial_81_colour1_distractors43_r.png,r,2,024,001,2021-04-23_15h22.22.957,searchDisc4,2020.2.10,Win32,60,,,space,0.17983,2,1,0.93951,,0,190,190,195,1,1b,81,1,43,
,,,,,,,,,,,,,,,,,,,,,,,,,,images/exp1a_trial_100_colour2_distractors1_l.png,l,1,024,001,2021-04-23_15h22.22.957,searchDisc4,2020.2.10,Win32,60,,,space,0.000585,2,0,1.024315,,0,191,191,100,1,1a,100,2,1,
,,,,,,,,,,,,,,,,,,,,,,,,,,images/exp2c_trial_49_colour2_distractors43_r.png,r,2,024,001,2021-04-23_15h22.22.957,searchDisc4,2020.2.10,Win32,60,,,space,0.06137,2,1,1.020685,,0,192,192,505,1,2c,49,2,43,
,,,,,,,,,,,,,,,,,,,,,,,,,,images/exp2b_trial_105_colour2_distractors43_l.png,l,1,024,001,2021-04-23_15h22.22.957,searchDisc4,2020.2.10,Win32,60,,,space,0.090655,1,1,0.64206,,0,193,193,447,1,2b,105,2,43,
,,,,,,,,,,,,,,,,,,,,,,,,,,images/exp2a_trial_4_colour1_distractors31_r.png,r,2,024,001,2021-04-23_15h22.22.957,searchDisc4,2020.2.10,Win32,60,,,space,0.20158,2,1,0.889485,,0,194,194,232,1,2a,4,1,31,
,,,,,,,,,,,,,,,,,,,,,,,,,,images/exp2b_trial_90_colour3_distractors9_r.png,r,2,024,001,2021-04-23_15h22.22.957,searchDisc4,2020.2.10,Win32,60,,,space,0.165515,2,1,1.102085,,0,195,195,432,1,2b,90,3,9,
,,,,,,,,,,,,,,,,,,,,,,,,,,images/exp1b_trial_92_colour3_distractors31_r.png,r,2,024,001,2021-04-23_15h22.22.957,searchDisc4,2020.2.10,Win32,60,,,space,0.125575,2,1,1.35724,,0,196,196,206,1,1b,92,3,31,
,,,,,,,,,,,,,,,,,,,,,,,,,,images/exp2b_trial_60_colour1_distractors31_l.png,l,1,024,001,2021-04-23_15h22.22.957,searchDisc4,2020.2.10,Win32,60,,,space,0.00032,1,1,0.90998,,0,197,197,402,1,2b,60,1,31,
,,,,,,,,,,,,,,,,,,,,,,,,,,images/exp2b_trial_73_colour3_distractors43_l.png,l,1,024,001,2021-04-23_15h22.22.957,searchDisc4,2020.2.10,Win32,60,,,space,0.12611,1,1,1.12154,,0,198,198,415,1,2b,73,3,43,
,,,,,,,,,,,,,,,,,,,,,,,,,,images/exp2a_trial_18_colour1_distractors1_l.png,l,1,024,001,2021-04-23_15h22.22.957,searchDisc4,2020.2.10,Win32,60,,,space,0.031615,1,1,0.686675,,0,199,199,246,1,2a,18,1,1,
,,,,,,,,,,,,,,,,,,,,,,,,,,images/exp2a_trial_71_colour3_distractors19_l.png,l,1,024,001,2021-04-23_15h22.22.957,searchDisc4,2020.2.10,Win32,60,,,space,0.02374,1,1,0.694235,,0,200,200,299,1,2a,71,3,19,
,,,,,,,,,,,,,,,,,,,,,,,,,,images/exp2c_trial_38_colour1_distractors1_r.png,r,2,024,001,2021-04-23_15h22.22.957,searchDisc4,2020.2.10,Win32,60,,,space,0.11827,2,1,0.71314,,0,201,201,494,1,2c,38,1,1,
,,,,,,,,,,,,,,,,,,,,,,,,,,images/exp1b_trial_72_colour3_distractors31_l.png,l,1,024,001,2021-04-23_15h22.22.957,searchDisc4,2020.2.10,Win32,60,,,space,0.16082,1,1,0.95341,,0,202,202,186,1,1b,72,3,31,
,,,,,,,,,,,,,,,,,,,,,,,,,,images/exp2b_trial_82_colour2_distractors1_r.png,r,2,024,001,2021-04-23_15h22.22.957,searchDisc4,2020.2.10,Win32,60,,,space,0.667135,2,1,0.69088,,0,203,203,424,1,2b,82,2,1,
,,,,,,,,,,,,,,,,,,,,,,,,,,images/exp2a_trial_48_colour2_distractors31_r.png,r,2,024,001,2021-04-23_15h22.22.957,searchDisc4,2020.2.10,Win32,60,,,space,0.17374,2,1,0.67678,,0,204,204,276,1,2a,48,2,31,
,,,,,,,,,,,,,,,,,,,,,,,,,,images/exp2b_trial_92_colour3_distractors31_r.png,r,2,024,001,2021-04-23_15h22.22.957,searchDisc4,2020.2.10,Win32,60,,,space,0.11202,2,1,0.64181,,0,205,205,434,1,2b,92,3,31,
,,,,,,,,,,,,,,,,,,,,,,,,,,images/exp2c_trial_74_colour0_distractors0_r.png,r,2,024,001,2021-04-23_15h22.22.957,searchDisc4,2020.2.10,Win32,60,,,space,0.11221,2,1,0.48212,,0,206,206,530,1,2c,74,0,0,
,,,,,,,,,,,,,,,,,,,,,,,,,,images/exp1a_trial_27_colour2_distractors19_l.png,l,1,024,001,2021-04-23_15h22.22.957,searchDisc4,2020.2.10,Win32,60,,,space,0.109385,1,1,0.8003,,0,207,207,27,1,1a,27,2,19,
,,,,,,,,,,,,,,,,,,,,,,,,,,images/exp1b_trial_61_colour1_distractors43_l.png,l,1,024,001,2021-04-23_15h22.22.957,searchDisc4,2020.2.10,Win32,60,,,space,0.12613,1,1,0.82557,,0,208,208,175,1,1b,61,1,43,
,,,,,,,,,,,,,,,,,,,,,,,,,,images/exp1b_trial_102_colour2_distractors9_l.png,l,1,024,001,2021-04-23_15h22.22.957,searchDisc4,2020.2.10,Win32,60,,,space,0.0483,1,1,0.64421,,0,209,209,216,1,1b,102,2,9,
,,,,,,,,,,,,,,,,,,,,,,,,,,images/exp2a_trial_16_colour3_distractors31_r.png,r,2,024,001,2021-04-23_15h22.22.957,searchDisc4,2020.2.10,Win32,60,,,space,0.124455,2,1,0.74358,,0,210,210,244,1,2a,16,3,31,
,,,,,,,,,,,,,,,,,,,,,,,,,,images/exp1a_trial_8_colour2_distractors9_r.png,r,2,024,001,2021-04-23_15h22.22.957,searchDisc4,2020.2.10,Win32,60,,,space,0.194615,2,1,0.65052,,0,211,211,8,1,1a,8,2,9,
,,,,,,,,,,,,,,,,,,,,,,,,,,images/exp1b_trial_94_colour1_distractors1_l.png,l,1,024,001,2021-04-23_15h22.22.957,searchDisc4,2020.2.10,Win32,60,,,space,0.12473,1,1,0.55002,,0,212,212,208,1,1b,94,1,1,
,,,,,,,,,,,,,,,,,,,,,,,,,,images/exp2a_trial_38_colour1_distractors1_r.png,r,2,024,001,2021-04-23_15h22.22.957,searchDisc4,2020.2.10,Win32,60,,,space,0.126245,2,1,0.674625,,0,213,213,266,1,2a,38,1,1,
,,,,,,,,,,,,,,,,,,,,,,,,,,images/exp1a_trial_32_colour3_distractors9_l.png,l,1,024,001,2021-04-23_15h22.22.957,searchDisc4,2020.2.10,Win32,60,,,space,0.06223,1,1,0.48757,,0,214,214,32,1,1a,32,3,9,
,,,,,,,,,,,,,,,,,,,,,,,,,,images/exp1a_trial_94_colour1_distractors1_l.png,l,1,024,001,2021-04-23_15h22.22.957,searchDisc4,2020.2.10,Win32,60,,,space,0.165415,1,1,0.67383,,0,215,215,94,1,1a,94,1,1,
,,,,,,,,,,,,,,,,,,,,,,,,,,images/exp1a_trial_51_colour3_distractors4_r.png,r,2,024,001,2021-04-23_15h22.22.957,searchDisc4,2020.2.10,Win32,60,,,space,0.159885,2,1,0.512095,,0,216,216,51,1,1a,51,3,4,
,,,,,,,,,,,,,,,,,,,,,,,,,,images/exp2c_trial_34_colour3_distractors31_l.png,l,1,024,001,2021-04-23_15h22.22.957,searchDisc4,2020.2.10,Win32,60,,,space,0.138045,1,1,0.466445,,0,217,217,490,1,2c,34,3,31,
,,,,,,,,,,,,,,,,,,,,,,,,,,images/exp2b_trial_104_colour2_distractors31_l.png,l,1,024,001,2021-04-23_15h22.22.957,searchDisc4,2020.2.10,Win32,60,,,space,0.206835,1,1,0.544945,,0,218,218,446,1,2b,104,2,31,
,,,,,,,,,,,,,,,,,,,,,,,,,,images/exp2b_trial_103_colour2_distractors19_l.png,l,1,024,001,2021-04-23_15h22.22.957,searchDisc4,2020.2.10,Win32,60,,,space,0.15342,1,1,0.60868,,0,219,219,445,1,2b,103,2,19,
,,,,,,,,,,,,,,,,,,,,,,,,,,images/exp2a_trial_93_colour3_distractors43_r.png,r,2,024,001,2021-04-23_15h22.22.957,searchDisc4,2020.2.10,Win32,60,,,space,0.17264,2,1,0.50254,,0,220,220,321,1,2a,93,3,43,
,,,,,,,,,,,,,,,,,,,,,,,,,,images/exp2a_trial_11_colour2_distractors43_r.png,r,2,024,001,2021-04-23_15h22.22.957,searchDisc4,2020.2.10,Win32,60,,,space,0.20671,2,1,0.629295,,0,221,221,239,1,2a,11,2,43,
,,,,,,,,,,,,,,,,,,,,,,,,,,images/exp1b_trial_79_colour1_distractors19_r.png,r,2,024,001,2021-04-23_15h22.22.957,searchDisc4,2020.2.10,Win32,60,,,space,0.146485,2,1,0.744825,,0,222,222,193,1,1b,79,1,19,
,,,,,,,,,,,,,,,,,,,,,,,,,,images/exp1b_trial_12_colour3_distractors1_r.png,r,2,024,001,2021-04-23_15h22.22.957,searchDisc4,2020.2.10,Win32,60,,,space,0.14408,2,1,0.63333,,0,223,223,126,1,1b,12,3,1,
,,,,,,,,,,,,,,,,,,,,,,,,,,images/exp1b_trial_99_colour1_distractors43_l.png,l,1,024,001,2021-04-23_15h22.22.957,searchDisc4,2020.2.10,Win32,60,,,space,0.164365,1,1,0.95442,,0,224,224,213,1,1b,99,1,43,
,,,,,,,,,,,,,,,,,,,,,,,,,,images/exp1a_trial_65_colour2_distractors19_l.png,l,1,024,001,2021-04-23_15h22.22.957,searchDisc4,2020.2.10,Win32,60,,,space,0.174085,1,1,1.760505,,0,225,225,65,1,1a,65,2,19,
,,,,,,,,,,,,,,,,,,,,,,,,,,images/exp2b_trial_86_colour2_distractors31_r.png,r,2,024,001,2021-04-23_15h22.22.957,searchDisc4,2020.2.10,Win32,60,,,space,0.10654,2,1,0.815075,,0,226,226,428,1,2b,86,2,31,
,,,,,,,,,,,,,,,,,,,,,,,,,,images/exp2b_trial_68_colour3_distractors1_l.png,l,1,024,001,2021-04-23_15h22.22.957,searchDisc4,2020.2.10,Win32,60,,,space,0.22259,1,1,0.83697,,0,227,227,410,1,2b,68,3,1,
,,,,,,,,,,,,,,,,,,,,,,,,,,images/exp1b_trial_10_colour2_distractors31_r.png,r,2,024,001,2021-04-23_15h22.22.957,searchDisc4,2020.2.10,Win32,60,,,space,0.18487,2,1,1.337255,,0,228,228,124,1,1b,10,2,31,
,,,,,,,,,,,,,,,,,,,,,,,,,,images/exp2b_trial_34_colour3_distractors31_l.png,l,1,024,001,2021-04-23_15h22.22.957,searchDisc4,2020.2.10,Win32,60,,,space,0.38497,1,1,0.692885,,0,229,229,376,1,2b,34,3,31,
,,,,,,,,,,,,,,,,,,,,,,,,,,images/exp1a_trial_77_colour1_distractors4_r.png,r,2,024,001,2021-04-23_15h22.22.957,searchDisc4,2020.2.10,Win32,60,,,space,0.20828,2,1,0.673425,,0,230,230,77,1,1a,77,1,4,
,,,,,,,,,,,,,,,,,,,,,,,,,,images/exp1a_trial_70_colour3_distractors9_l.png,l,1,024,001,2021-04-23_15h22.22.957,searchDisc4,2020.2.10,Win32,60,,,space,0.173505,1,1,0.59302,,0,231,231,70,1,1a,70,3,9,
,,,,,,,,,,,,,,,,,,,,,,,,,,images/exp2a_trial_49_colour2_distractors43_r.png,r,2,024,001,2021-04-23_15h22.22.957,searchDisc4,2020.2.10,Win32,60,,,space,0.215695,2,1,0.61136,,0,232,232,277,1,2a,49,2,43,
,,,,,,,,,,,,,,,,,,,,,,,,,,images/exp2b_trial_32_colour3_distractors9_l.png,l,1,024,001,2021-04-23_15h22.22.957,searchDisc4,2020.2.10,Win32,60,,,space,0.20598,1,1,0.59981,,0,233,233,374,1,2b,32,3,9,
,,,,,,,,,,,,,,,,,,,,,,,,,,images/exp2c_trial_33_colour3_distractors19_l.png,l,1,024,001,2021-04-23_15h22.22.957,searchDisc4,2020.2.10,Win32,60,,,space,0.228305,1,1,0.555185,,0,234,234,489,1,2c,33,3,19,
,,,,,,,,,,,,,,,,,,,,,,,,,,images/exp1a_trial_25_colour2_distractors4_l.png,l,1,024,001,2021-04-23_15h22.22.957,searchDisc4,2020.2.10,Win32,60,,,space,0.20805,1,1,0.59201,,0,235,235,25,1,1a,25,2,4,
,,,,,,,,,,,,,,,,,,,,,,,,,,images/exp1a_trial_22_colour1_distractors31_l.png,l,1,024,001,2021-04-23_15h22.22.957,searchDisc4,2020.2.10,Win32,60,,,space,0.22455,1,1,0.553845,,0,236,236,22,1,1a,22,1,31,
,,,,,,,,,,,,,,,,,,,,,,,,,,images/exp2b_trial_63_colour2_distractors4_l.png,l,1,024,001,2021-04-23_15h22.22.957,searchDisc4,2020.2.10,Win32,60,,,space,0.24218,1,1,0.464415,,0,237,237,405,1,2b,63,2,4,
,,,,,,,,,,,,,,,,,,,,,,,,,,images/exp2c_trial_39_colour1_distractors4_r.png,r,2,024,001,2021-04-23_15h22.22.957,searchDisc4,2020.2.10,Win32,60,,,space,0.257085,2,1,0.677405,,0,238,238,495,1,2c,39,1,4,
,,,,,,,,,,,,,,,,,,,,,,,,,,images/exp1a_trial_6_colour2_distractors1_r.png,r,2,024,001,2021-04-23_15h22.22.957,searchDisc4,2020.2.10,Win32,60,,,space,0.24344,2,1,0.56481,space,0,239,239,6,1,1a,6,2,1,0.20353
,,,,,,,,,,,,,,,,,,,,,,,,,,images/exp1b_trial_53_colour3_distractors19_r.png,r,2,024,001,2021-04-23_15h22.22.957,searchDisc4,2020.2.10,Win32,60,,,space,0.618295,2,1,0.890475,,0,240,240,167,1,1b,53,3,19,
,,,,,,,,,,,,,,,,,,,,,,,,,,images/exp1b_trial_37_colour0_distractors0_l.png,l,1,024,001,2021-04-23_15h22.22.957,searchDisc4,2020.2.10,Win32,60,,,space,0.174935,1,1,0.689765,,0,241,241,151,1,1b,37,0,0,
,,,,,,,,,,,,,,,,,,,,,,,,,,images/exp2a_trial_66_colour2_distractors31_l.png,l,1,024,001,2021-04-23_15h22.22.957,searchDisc4,2020.2.10,Win32,60,,,space,0.238,1,1,0.61542,,0,242,242,294,1,2a,66,2,31,
,,,,,,,,,,,,,,,,,,,,,,,,,,images/exp2b_trial_28_colour2_distractors31_l.png,l,1,024,001,2021-04-23_15h22.22.957,searchDisc4,2020.2.10,Win32,60,,,space,0.23674,1,1,0.56187,,0,243,243,370,1,2b,28,2,31,
,,,,,,,,,,,,,,,,,,,,,,,,,,images/exp2c_trial_15_colour3_distractors19_r.png,r,2,024,001,2021-04-23_15h22.22.957,searchDisc4,2020.2.10,Win32,60,,,space,0.1912,2,1,0.56191,,0,244,244,471,1,2c,15,3,19,
,,,,,,,,,,,,,,,,,,,,,,,,,,images/exp2a_trial_68_colour3_distractors1_l.png,l,1,024,001,2021-04-23_15h22.22.957,searchDisc4,2020.2.10,Win32,60,,,space,0.17824,1,1,0.539575,,0,245,245,296,1,2a,68,3,1,
,,,,,,,,,,,,,,,,,,,,,,,,,,images/exp2a_trial_89_colour3_distractors4_r.png,r,2,024,001,2021-04-23_15h22.22.957,searchDisc4,2020.2.10,Win32,60,,,space,0.23461,2,1,0.537575,,0,246,246,317,1,2a,89,3,4,
,,,,,,,,,,,,,,,,,,,,,,,,,,images/exp2a_trial_74_colour0_distractors0_r.png,r,2,024,001,2021-04-23_15h22.22.957,searchDisc4,2020.2.10,Win32,60,,,space,0.22305,2,1,0.584425,,0,247,247,302,1,2a,74,0,0,
,,,,,,,,,,,,,,,,,,,,,,,,,,images/exp2c_trial_100_colour2_distractors1_l.png,l,1,024,001,2021-04-23_15h22.22.957,searchDisc4,2020.2.10,Win32,60,,,space,0.23527,1,1,0.661295,,0,248,248,556,1,2c,100,2,1,
,,,,,,,,,,,,,,,,,,,,,,,,,,images/exp2b_trial_53_colour3_distractors19_r.png,r,2,024,001,2021-04-23_15h22.22.957,searchDisc4,2020.2.10,Win32,60,,,space,0.22232,2,1,0.59477,,0,249,249,395,1,2b,53,3,19,
,,,,,,,,,,,,,,,,,,,,,,,,,,images/exp2c_trial_2_colour1_distractors9_r.png,r,2,024,001,2021-04-23_15h22.22.957,searchDisc4,2020.2.10,Win32,60,,,space,0.15431,2,1,0.59299,,0,250,250,458,1,2c,2,1,9,
,,,,,,,,,,,,,,,,,,,,,,,,,,images/exp1b_trial_86_colour2_distractors31_r.png,r,2,024,001,2021-04-23_15h22.22.957,searchDisc4,2020.2.10,Win32,60,,,space,0.21488,2,1,0.960485,,0,251,251,200,1,1b,86,2,31,
,,,,,,,,,,,,,,,,,,,,,,,,,,images/exp1a_trial_46_colour2_distractors9_r.png,r,2,024,001,2021-04-23_15h22.22.957,searchDisc4,2020.2.10,Win32,60,,,space,0.2391,2,1,0.82337,,0,252,252,46,1,1a,46,2,9,
,,,,,,,,,,,,,,,,,,,,,,,,,,images/exp2a_trial_69_colour3_distractors4_l.png,l,1,024,001,2021-04-23_15h22.22.957,searchDisc4,2020.2.10,Win32,60,,,space,0.608915,1,1,0.65704,,0,253,253,297,1,2a,69,3,4,
,,,,,,,,,,,,,,,,,,,,,,,,,,images/exp2c_trial_54_colour3_distractors31_r.png,r,2,024,001,2021-04-23_15h22.22.957,searchDisc4,2020.2.10,Win32,60,,,space,0.195205,2,1,0.8302,,0,254,254,510,1,2c,54,3,31,
,,,,,,,,,,,,,,,,,,,,,,,,,,images/exp2a_trial_63_colour2_distractors4_l.png,l,1,024,001,2021-04-23_15h22.22.957,searchDisc4,2020.2.10,Win32,60,,,space,0.136795,1,1,0.708945,,0,255,255,291,1,2a,63,2,4,
,,,,,,,,,,,,,,,,,,,,,,,,,,images/exp2c_trial_102_colour2_distractors9_l.png,l,1,024,001,2021-04-23_15h22.22.957,searchDisc4,2020.2.10,Win32,60,,,space,0.186365,1,1,0.60319,,0,256,256,558,1,2c,102,2,9,
,,,,,,,,,,,,,,,,,,,,,,,,,,images/exp1a_trial_107_colour3_distractors4_l.png,l,1,024,001,2021-04-23_15h22.22.957,searchDisc4,2020.2.10,Win32,60,,,space,0.17447,1,1,0.48638,,0,257,257,107,1,1a,107,3,4,
,,,,,,,,,,,,,,,,,,,,,,,,,,images/exp1a_trial_28_colour2_distractors31_l.png,l,1,024,001,2021-04-23_15h22.22.957,searchDisc4,2020.2.10,Win32,60,,,space,0.217145,2,0,0.557415,,0,258,258,28,1,1a,28,2,31,
,,,,,,,,,,,,,,,,,,,,,,,,,,images/exp2c_trial_44_colour2_distractors1_r.png,r,2,024,001,2021-04-23_15h22.22.957,searchDisc4,2020.2.10,Win32,60,,,space,0.17894,2,1,0.9176,,0,259,259,500,1,2c,44,2,1,
,,,,,,,,,,,,,,,,,,,,,,,,,,images/exp1b_trial_51_colour3_distractors4_r.png,r,2,024,001,2021-04-23_15h22.22.957,searchDisc4,2020.2.10,Win32,60,,,space,0.02944,2,1,0.6684,,0,260,260,165,1,1b,51,3,4,
,,,,,,,,,,,,,,,,,,,,,,,,,,images/exp2c_trial_72_colour3_distractors31_l.png,l,1,024,001,2021-04-23_15h22.22.957,searchDisc4,2020.2.10,Win32,60,,,space,0.1643,1,1,0.6328,,0,261,261,528,1,2c,72,3,31,
,,,,,,,,,,,,,,,,,,,,,,,,,,images/exp2b_trial_56_colour1_distractors1_l.png,l,1,024,001,2021-04-23_15h22.22.957,searchDisc4,2020.2.10,Win32,60,,,space,0.15949,1,1,0.5651,,0,262,262,398,1,2b,56,1,1,
,,,,,,,,,,,,,,,,,,,,,,,,,,images/exp1a_trial_56_colour1_distractors1_l.png,l,1,024,001,2021-04-23_15h22.22.957,searchDisc4,2020.2.10,Win32,60,,,space,0.20463,1,1,0.530745,,0,263,263,56,1,1a,56,1,1,
,,,,,,,,,,,,,,,,,,,,,,,,,,images/exp2a_trial_7_colour2_distractors4_r.png,r,2,024,001,2021-04-23_15h22.22.957,searchDisc4,2020.2.10,Win32,60,,,space,0.202735,2,1,0.48291,,0,264,264,235,1,2a,7,2,4,
,,,,,,,,,,,,,,,,,,,,,,,,,,images/exp2a_trial_34_colour3_distractors31_l.png,l,1,024,001,2021-04-23_15h22.22.957,searchDisc4,2020.2.10,Win32,60,,,space,0.251045,1,1,0.82923,,0,265,265,262,1,2a,34,3,31,
,,,,,,,,,,,,,,,,,,,,,,,,,,images/exp1b_trial_84_colour2_distractors9_r.png,r,2,024,001,2021-04-23_15h22.22.957,searchDisc4,2020.2.10,Win32,60,,,space,0.235395,2,1,0.80894,,0,266,266,198,1,1b,84,2,9,
,,,,,,,,,,,,,,,,,,,,,,,,,,images/exp1a_trial_108_colour3_distractors9_l.png,l,1,024,001,2021-04-23_15h22.22.957,searchDisc4,2020.2.10,Win32,60,,,space,0.206055,2,0,0.71736,,0,267,267,108,1,1a,108,3,9,
,,,,,,,,,,,,,,,,,,,,,,,,,,images/exp2a_trial_36_colour0_distractors0_r.png,r,2,024,001,2021-04-23_15h22.22.957,searchDisc4,2020.2.10,Win32,60,,,space,0.236065,2,1,0.6041,,0,268,268,264,1,2a,36,0,0,
,,,,,,,,,,,,,,,,,,,,,,,,,,images/exp2c_trial_92_colour3_distractors31_r.png,r,2,024,001,2021-04-23_15h22.22.957,searchDisc4,2020.2.10,Win32,60,,,space,0.230615,2,1,0.55027,,0,269,269,548,1,2c,92,3,31,
,,,,,,,,,,,,,,,,,,,,,,,,,,images/exp2c_trial_66_colour2_distractors31_l.png,l,1,024,001,2021-04-23_15h22.22.957,searchDisc4,2020.2.10,Win32,60,,,space,0.25007,1,1,0.59778,,0,270,270,522,1,2c,66,2,31,
,,,,,,,,,,,,,,,,,,,,,,,,,,images/exp2a_trial_101_colour2_distractors4_l.png,l,1,024,001,2021-04-23_15h22.22.957,searchDisc4,2020.2.10,Win32,60,,,space,0.21568,1,1,0.66461,,0,271,271,329,1,2a,101,2,4,
,,,,,,,,,,,,,,,,,,,,,,,,,,images/exp2b_trial_80_colour1_distractors31_r.png,r,2,024,001,2021-04-23_15h22.22.957,searchDisc4,2020.2.10,Win32,60,,,space,0.2289,2,1,0.614355,,0,272,272,422,1,2b,80,1,31,
,,,,,,,,,,,,,,,,,,,,,,,,,,images/exp2b_trial_50_colour3_distractors1_r.png,r,2,024,001,2021-04-23_15h22.22.957,searchDisc4,2020.2.10,Win32,60,,,space,0.226705,2,1,0.5714,,0,273,273,392,1,2b,50,3,1,
,,,,,,,,,,,,,,,,,,,,,,,,,,images/exp2c_trial_50_colour3_distractors1_r.png,r,2,024,001,2021-04-23_15h22.22.957,searchDisc4,2020.2.10,Win32,60,,,space,0.195615,2,1,0.57584,,0,274,274,506,1,2c,50,3,1,
,,,,,,,,,,,,,,,,,,,,,,,,,,images/exp1a_trial_97_colour1_distractors19_l.png,l,1,024,001,2021-04-23_15h22.22.957,searchDisc4,2020.2.10,Win32,60,,,space,0.21543,2,0,0.60793,,0,275,275,97,1,1a,97,1,19,
,,,,,,,,,,,,,,,,,,,,,,,,,,images/exp2b_trial_70_colour3_distractors9_l.png,l,1,024,001,2021-04-23_15h22.22.957,searchDisc4,2020.2.10,Win32,60,,,space,0.223335,1,1,0.60626,,0,276,276,412,1,2b,70,3,9,
,,,,,,,,,,,,,,,,,,,,,,,,,,images/exp2a_trial_103_colour2_distractors19_l.png,l,1,024,001,2021-04-23_15h22.22.957,searchDisc4,2020.2.10,Win32,60,,,space,0.1997,1,1,0.6572,,0,277,277,331,1,2a,103,2,19,
,,,,,,,,,,,,,,,,,,,,,,,,,,images/exp2c_trial_109_colour3_distractors19_l.png,l,1,024,001,2021-04-23_15h22.22.957,searchDisc4,2020.2.10,Win32,60,,,space,0.215475,2,0,0.69421,,0,278,278,565,1,2c,109,3,19,
,,,,,,,,,,,,,,,,,,,,,,,,,,images/exp1b_trial_106_colour3_distractors1_l.png,l,1,024,001,2021-04-23_15h22.22.957,searchDisc4,2020.2.10,Win32,60,,,space,0.257155,1,1,0.825645,,0,279,279,220,1,1b,106,3,1,
,,,,,,,,,,,,,,,,,,,,,,,,,,images/exp1a_trial_62_colour2_distractors1_l.png,l,1,024,001,2021-04-23_15h22.22.957,searchDisc4,2020.2.10,Win32,60,,,space,0.19472,2,0,0.639895,,0,280,280,62,1,1a,62,2,1,
,,,,,,,,,,,,,,,,,,,,,,,,,,images/exp1a_trial_90_colour3_distractors9_r.png,r,2,024,001,2021-04-23_15h22.22.957,searchDisc4,2020.2.10,Win32,60,,,space,0.212045,2,1,0.664485,,0,281,281,90,1,1a,90,3,9,
,,,,,,,,,,,,,,,,,,,,,,,,,,images/exp1a_trial_4_colour1_distractors31_r.png,r,2,024,001,2021-04-23_15h22.22.957,searchDisc4,2020.2.10,Win32,60,,,space,0.190605,2,1,0.68557,,0,282,282,4,1,1a,4,1,31,
,,,,,,,,,,,,,,,,,,,,,,,,,,images/exp1b_trial_56_colour1_distractors1_l.png,l,1,024,001,2021-04-23_15h22.22.957,searchDisc4,2020.2.10,Win32,60,,,space,0.205915,2,0,1.03718,,0,283,283,170,1,1b,56,1,1,
,,,,,,,,,,,,,,,,,,,,,,,,,,images/exp2b_trial_44_colour2_distractors1_r.png,r,2,024,001,2021-04-23_15h22.22.957,searchDisc4,2020.2.10,Win32,60,,,space,0.19655,2,1,0.86382,,0,284,284,386,1,2b,44,2,1,
,,,,,,,,,,,,,,,,,,,,,,,,,,images/exp2a_trial_94_colour1_distractors1_l.png,l,1,024,001,2021-04-23_15h22.22.957,searchDisc4,2020.2.10,Win32,60,,,space,0.2016,1,1,0.577745,,0,285,285,322,1,2a,94,1,1,
,,,,,,,,,,,,,,,,,,,,,,,,,,images/exp2b_trial_38_colour1_distractors1_r.png,r,2,024,001,2021-04-23_15h22.22.957,searchDisc4,2020.2.10,Win32,60,,,space,0.15448,2,1,0.5699,,0,286,286,380,1,2b,38,1,1,
,,,,,,,,,,,,,,,,,,,,,,,,,,images/exp2b_trial_45_colour2_distractors4_r.png,r,2,024,001,2021-04-23_15h22.22.957,searchDisc4,2020.2.10,Win32,60,,,space,0.18165,2,1,0.60512,,0,287,287,387,1,2b,45,2,4,
,,,,,,,,,,,,,,,,,,,,,,,,,,images/exp2c_trial_7_colour2_distractors4_r.png,r,2,024,001,2021-04-23_15h22.22.957,searchDisc4,2020.2.10,Win32,60,,,space,0.166975,2,1,0.59522,,0,288,288,463,1,2c,7,2,4,
,,,,,,,,,,,,,,,,,,,,,,,,,,images/exp2c_trial_45_colour2_distractors4_r.png,r,2,024,001,2021-04-23_15h22.22.957,searchDisc4,2020.2.10,Win32,60,,,space,0.18214,2,1,0.617355,,0,289,289,501,1,2c,45,2,4,
,,,,,,,,,,,,,,,,,,,,,,,,,,images/exp1a_trial_14_colour3_distractors9_r.png,r,2,024,001,2021-04-23_15h22.22.957,searchDisc4,2020.2.10,Win32,60,,,space,0.188105,2,1,0.60019,,0,290,290,14,1,1a,14,3,9,
,,,,,,,,,,,,,,,,,,,,,,,,,,images/exp2c_trial_82_colour2_distractors1_r.png,r,2,024,001,2021-04-23_15h22.22.957,searchDisc4,2020.2.10,Win32,60,,,space,0.197745,2,1,0.52967,,0,291,291,538,1,2c,82,2,1,
,,,,,,,,,,,,,,,,,,,,,,,,,,images/exp2a_trial_113_colour0_distractors0_l.png,l,1,024,001,2021-04-23_15h22.22.957,searchDisc4,2020.2.10,Win32,60,,,space,0.20293,2,0,0.43955,,0,292,292,341,1,2a,113,0,0,
,,,,,,,,,,,,,,,,,,,,,,,,,,images/exp2b_trial_57_colour1_distractors4_l.png,l,1,024,001,2021-04-23_15h22.22.957,searchDisc4,2020.2.10,Win32,60,,,space,0.305615,1,1,0.49421,,0,293,293,399,1,2b,57,1,4,
,,,,,,,,,,,,,,,,,,,,,,,,,,images/exp2a_trial_73_colour3_distractors43_l.png,l,1,024,001,2021-04-23_15h22.22.957,searchDisc4,2020.2.10,Win32,60,,,space,0.219285,1,1,0.663005,,0,294,294,301,1,2a,73,3,43,
,,,,,,,,,,,,,,,,,,,,,,,,,,images/exp1a_trial_69_colour3_distractors4_l.png,l,1,024,001,2021-04-23_15h22.22.957,searchDisc4,2020.2.10,Win32,60,,,space,0.236745,1,1,0.6202,,0,295,295,69,1,1a,69,3,4,
,,,,,,,,,,,,,,,,,,,,,,,,,,images/exp2c_trial_35_colour3_distractors43_l.png,l,1,024,001,2021-04-23_15h22.22.957,searchDisc4,2020.2.10,Win32,60,,,space,0.229315,1,1,0.545815,,0,296,296,491,1,2c,35,3,43,
,,,,,,,,,,,,,,,,,,,,,,,,,,images/exp2c_trial_94_colour1_distractors1_l.png,l,1,024,001,2021-04-23_15h22.22.957,searchDisc4,2020.2.10,Win32,60,,,space,0.252075,1,1,0.5421,,0,297,297,550,1,2c,94,1,1,
,,,,,,,,,,,,,,,,,,,,,,,,,,images/exp2b_trial_72_colour3_distractors31_l.png,l,1,024,001,2021-04-23_15h22.22.957,searchDisc4,2020.2.10,Win32,60,,,space,0.234915,1,1,0.655185,,0,298,298,414,1,2b,72,3,31,
,,,,,,,,,,,,,,,,,,,,,,,,,,images/exp1a_trial_50_colour3_distractors1_r.png,r,2,024,001,2021-04-23_15h22.22.957,searchDisc4,2020.2.10,Win32,60,,,space,0.241385,2,1,0.66905,space,0,299,299,50,1,1a,50,3,1,0.231735
,,,,,,,,,,,,,,,,,,,,,,,,,,images/exp1b_trial_58_colour1_distractors9_l.png,l,1,024,001,2021-04-23_15h22.22.957,searchDisc4,2020.2.10,Win32,60,,,space,0.64664,1,1,0.69395,,0,300,300,172,1,1b,58,1,9,
,,,,,,,,,,,,,,,,,,,,,,,,,,images/exp2c_trial_56_colour1_distractors1_l.png,l,1,024,001,2021-04-23_15h22.22.957,searchDisc4,2020.2.10,Win32,60,,,space,0.432035,1,1,0.66775,,0,301,301,512,1,2c,56,1,1,
,,,,,,,,,,,,,,,,,,,,,,,,,,images/exp1a_trial_96_colour1_distractors9_l.png,l,1,024,001,2021-04-23_15h22.22.957,searchDisc4,2020.2.10,Win32,60,,,space,0.2289,1,1,0.539755,,0,302,302,96,1,1a,96,1,9,
,,,,,,,,,,,,,,,,,,,,,,,,,,images/exp2b_trial_20_colour1_distractors9_l.png,l,1,024,001,2021-04-23_15h22.22.957,searchDisc4,2020.2.10,Win32,60,,,space,0.25722,1,1,0.44145,,0,303,303,362,1,2b,20,1,9,
,,,,,,,,,,,,,,,,,,,,,,,,,,images/exp1a_trial_95_colour1_distractors4_l.png,l,1,024,001,2021-04-23_15h22.22.957,searchDisc4,2020.2.10,Win32,60,,,space,0.271075,1,1,0.403555,,0,304,304,95,1,1a,95,1,4,
,,,,,,,,,,,,,,,,,,,,,,,,,,images/exp2a_trial_22_colour1_distractors31_l.png,l,1,024,001,2021-04-23_15h22.22.957,searchDisc4,2020.2.10,Win32,60,,,space,0.27628,1,1,0.435335,,0,305,305,250,1,2a,22,1,31,
,,,,,,,,,,,,,,,,,,,,,,,,,,images/exp2c_trial_78_colour1_distractors9_r.png,r,2,024,001,2021-04-23_15h22.22.957,searchDisc4,2020.2.10,Win32,60,,,space,0.271695,1,0,0.44797,,0,306,306,534,1,2c,78,1,9,
,,,,,,,,,,,,,,,,,,,,,,,,,,images/exp2c_trial_68_colour3_distractors1_l.png,l,1,024,001,2021-04-23_15h22.22.957,searchDisc4,2020.2.10,Win32,60,,,space,0.29893,2,0,0.486575,,0,307,307,524,1,2c,68,3,1,
,,,,,,,,,,,,,,,,,,,,,,,,,,images/exp1a_trial_23_colour1_distractors43_l.png,l,1,024,001,2021-04-23_15h22.22.957,searchDisc4,2020.2.10,Win32,60,,,space,0.22334,1,1,0.555955,,0,308,308,23,1,1a,23,1,43,
,,,,,,,,,,,,,,,,,,,,,,,,,,images/exp2a_trial_108_colour3_distractors9_l.png,l,1,024,001,2021-04-23_15h22.22.957,searchDisc4,2020.2.10,Win32,60,,,space,0.26941,1,1,0.70396,,0,309,309,336,1,2a,108,3,9,
,,,,,,,,,,,,,,,,,,,,,,,,,,images/exp1b_trial_11_colour2_distractors43_r.png,r,2,024,001,2021-04-23_15h22.22.957,searchDisc4,2020.2.10,Win32,60,,,space,0.214075,2,1,1.62205,,0,310,310,125,1,1b,11,2,43,
,,,,,,,,,,,,,,,,,,,,,,,,,,images/exp1a_trial_89_colour3_distractors4_r.png,r,2,024,001,2021-04-23_15h22.22.957,searchDisc4,2020.2.10,Win32,60,,,space,0.257335,1,0,0.429135,,0,311,311,89,1,1a,89,3,4,
,,,,,,,,,,,,,,,,,,,,,,,,,,images/exp2b_trial_8_colour2_distractors9_r.png,r,2,024,001,2021-04-23_15h22.22.957,searchDisc4,2020.2.10,Win32,60,,,space,0.248025,2,1,0.96588,,0,312,312,350,1,2b,8,2,9,
,,,,,,,,,,,,,,,,,,,,,,,,,,images/exp1b_trial_82_colour2_distractors1_r.png,r,2,024,001,2021-04-23_15h22.22.957,searchDisc4,2020.2.10,Win32,60,,,space,0.262735,2,1,0.590235,,0,313,313,196,1,1b,82,2,1,
,,,,,,,,,,,,,,,,,,,,,,,,,,images/exp2b_trial_3_colour1_distractors19_r.png,r,2,024,001,2021-04-23_15h22.22.957,searchDisc4,2020.2.10,Win32,60,,,space,0.26839,2,1,0.603195,,0,314,314,345,1,2b,3,1,19,
,,,,,,,,,,,,,,,,,,,,,,,,,,images/exp1b_trial_18_colour1_distractors1_l.png,l,1,024,001,2021-04-23_15h22.22.957,searchDisc4,2020.2.10,Win32,60,,,space,0.2299,2,0,0.54981,,0,315,315,132,1,1b,18,1,1,
,,,,,,,,,,,,,,,,,,,,,,,,,,images/exp1a_trial_10_colour2_distractors31_r.png,r,2,024,001,2021-04-23_15h22.22.957,searchDisc4,2020.2.10,Win32,60,,,space,0.31147,2,1,0.60626,,0,316,316,10,1,1a,10,2,31,
,,,,,,,,,,,,,,,,,,,,,,,,,,images/exp2c_trial_69_colour3_distractors4_l.png,l,1,024,001,2021-04-23_15h22.22.957,searchDisc4,2020.2.10,Win32,60,,,space,0.26229,1,1,0.62798,,0,317,317,525,1,2c,69,3,4,
,,,,,,,,,,,,,,,,,,,,,,,,,,images/exp2a_trial_20_colour1_distractors9_l.png,l,1,024,001,2021-04-23_15h22.22.957,searchDisc4,2020.2.10,Win32,60,,,space,0.219155,1,1,0.598065,,0,318,318,248,1,2a,20,1,9,
,,,,,,,,,,,,,,,,,,,,,,,,,,images/exp2a_trial_27_colour2_distractors19_l.png,l,1,024,001,2021-04-23_15h22.22.957,searchDisc4,2020.2.10,Win32,60,,,space,0.257175,1,1,0.69939,,0,319,319,255,1,2a,27,2,19,
,,,,,,,,,,,,,,,,,,,,,,,,,,images/exp2a_trial_67_colour2_distractors43_l.png,l,1,024,001,2021-04-23_15h22.22.957,searchDisc4,2020.2.10,Win32,60,,,space,0.22223,1,1,0.56826,,0,320,320,295,1,2a,67,2,43,
,,,,,,,,,,,,,,,,,,,,,,,,,,images/exp2b_trial_74_colour0_distractors0_r.png,r,2,024,001,2021-04-23_15h22.22.957,searchDisc4,2020.2.10,Win32,60,,,space,0.26165,2,1,0.5711,,0,321,321,416,1,2b,74,0,0,
,,,,,,,,,,,,,,,,,,,,,,,,,,images/exp2c_trial_90_colour3_distractors9_r.png,r,2,024,001,2021-04-23_15h22.22.957,searchDisc4,2020.2.10,Win32,60,,,space,0.2803,2,1,0.72034,,0,322,322,546,1,2c,90,3,9,
,,,,,,,,,,,,,,,,,,,,,,,,,,images/exp1a_trial_38_colour1_distractors1_r.png,r,2,024,001,2021-04-23_15h22.22.957,searchDisc4,2020.2.10,Win32,60,,,space,0.2363,2,1,0.71263,,0,323,323,38,1,1a,38,1,1,
,,,,,,,,,,,,,,,,,,,,,,,,,,images/exp2b_trial_19_colour1_distractors4_l.png,l,1,024,001,2021-04-23_15h22.22.957,searchDisc4,2020.2.10,Win32,60,,,space,0.24102,1,1,0.699345,,0,324,324,361,1,2b,19,1,4,
,,,,,,,,,,,,,,,,,,,,,,,,,,images/exp1a_trial_98_colour1_distractors31_l.png,l,1,024,001,2021-04-23_15h22.22.957,searchDisc4,2020.2.10,Win32,60,,,space,0.24777,1,1,0.62608,,0,325,325,98,1,1a,98,1,31,
,,,,,,,,,,,,,,,,,,,,,,,,,,images/exp2a_trial_9_colour2_distractors19_r.png,r,2,024,001,2021-04-23_15h22.22.957,searchDisc4,2020.2.10,Win32,60,,,space,0.231945,2,1,0.63736,,0,326,326,237,1,2a,9,2,19,
,,,,,,,,,,,,,,,,,,,,,,,,,,images/exp1a_trial_66_colour2_distractors31_l.png,l,1,024,001,2021-04-23_15h22.22.957,searchDisc4,2020.2.10,Win32,60,,,space,0.18346,1,1,0.58532,,0,327,327,66,1,1a,66,2,31,
,,,,,,,,,,,,,,,,,,,,,,,,,,images/exp2b_trial_48_colour2_distractors31_r.png,r,2,024,001,2021-04-23_15h22.22.957,searchDisc4,2020.2.10,Win32,60,,,space,0.24951,2,1,0.693575,,0,328,328,390,1,2b,48,2,31,
,,,,,,,,,,,,,,,,,,,,,,,,,,images/exp2a_trial_90_colour3_distractors9_r.png,r,2,024,001,2021-04-23_15h22.22.957,searchDisc4,2020.2.10,Win32,60,,,space,0.234915,2,1,0.684165,,0,329,329,318,1,2a,90,3,9,
,,,,,,,,,,,,,,,,,,,,,,,,,,images/exp2b_trial_31_colour3_distractors4_l.png,l,1,024,001,2021-04-23_15h22.22.957,searchDisc4,2020.2.10,Win32,60,,,space,0.1946,1,1,0.77768,,0,330,330,373,1,2b,31,3,4,
,,,,,,,,,,,,,,,,,,,,,,,,,,images/exp2c_trial_58_colour1_distractors9_l.png,l,1,024,001,2021-04-23_15h22.22.957,searchDisc4,2020.2.10,Win32,60,,,space,0.159715,1,1,0.62081,,0,331,331,514,1,2c,58,1,9,
,,,,,,,,,,,,,,,,,,,,,,,,,,images/exp2a_trial_88_colour3_distractors1_r.png,r,2,024,001,2021-04-23_15h22.22.957,searchDisc4,2020.2.10,Win32,60,,,space,0.141275,2,1,0.69017,,0,332,332,316,1,2a,88,3,1,
,,,,,,,,,,,,,,,,,,,,,,,,,,images/exp1a_trial_37_colour0_distractors0_l.png,l,1,024,001,2021-04-23_15h22.22.957,searchDisc4,2020.2.10,Win32,60,,,space,0.18287,1,1,0.67027,,0,333,333,37,1,1a,37,0,0,
,,,,,,,,,,,,,,,,,,,,,,,,,,images/exp1a_trial_1_colour1_distractors4_r.png,r,2,024,001,2021-04-23_15h22.22.957,searchDisc4,2020.2.10,Win32,60,,,space,0.19476,2,1,0.57307,,0,334,334,1,1,1a,1,1,4,
,,,,,,,,,,,,,,,,,,,,,,,,,,images/exp1a_trial_45_colour2_distractors4_r.png,r,2,024,001,2021-04-23_15h22.22.957,searchDisc4,2020.2.10,Win32,60,,,space,0.151545,2,1,0.759805,,0,335,335,45,1,1a,45,2,4,
,,,,,,,,,,,,,,,,,,,,,,,,,,images/exp1b_trial_47_colour2_distractors19_r.png,r,2,024,001,2021-04-23_15h22.22.957,searchDisc4,2020.2.10,Win32,60,,,space,0.15177,2,1,1.022325,,0,336,336,161,1,1b,47,2,19,
,,,,,,,,,,,,,,,,,,,,,,,,,,images/exp1a_trial_60_colour1_distractors31_l.png,l,1,024,001,2021-04-23_15h22.22.957,searchDisc4,2020.2.10,Win32,60,,,space,0.13832,1,1,0.510335,,0,337,337,60,1,1a,60,1,31,
,,,,,,,,,,,,,,,,,,,,,,,,,,images/exp2a_trial_5_colour1_distractors43_r.png,r,2,024,001,2021-04-23_15h22.22.957,searchDisc4,2020.2.10,Win32,60,,,space,0.201715,2,1,0.931695,,0,338,338,233,1,2a,5,1,43,
,,,,,,,,,,,,,,,,,,,,,,,,,,images/exp2c_trial_79_colour1_distractors19_r.png,r,2,024,001,2021-04-23_15h22.22.957,searchDisc4,2020.2.10,Win32,60,,,space,0.14604,2,1,0.694385,,0,339,339,535,1,2c,79,1,19,
,,,,,,,,,,,,,,,,,,,,,,,,,,images/exp1b_trial_85_colour2_distractors19_r.png,r,2,024,001,2021-04-23_15h22.22.957,searchDisc4,2020.2.10,Win32,60,,,space,0.20429,2,1,0.9244,,0,340,340,199,1,1b,85,2,19,
,,,,,,,,,,,,,,,,,,,,,,,,,,images/exp2a_trial_77_colour1_distractors4_r.png,r,2,024,001,2021-04-23_15h22.22.957,searchDisc4,2020.2.10,Win32,60,,,space,0.18555,2,1,0.506645,,0,341,341,305,1,2a,77,1,4,
,,,,,,,,,,,,,,,,,,,,,,,,,,images/exp1b_trial_78_colour1_distractors9_r.png,r,2,024,001,2021-04-23_15h22.22.957,searchDisc4,2020.2.10,Win32,60,,,space,0.257295,2,1,0.488925,,0,342,342,192,1,1b,78,1,9,
,,,,,,,,,,,,,,,,,,,,,,,,,,images/exp1b_trial_55_colour3_distractors43_r.png,r,2,024,001,2021-04-23_15h22.22.957,searchDisc4,2020.2.10,Win32,60,,,space,0.243825,2,1,0.77499,,0,343,343,169,1,1b,55,3,43,
,,,,,,,,,,,,,,,,,,,,,,,,,,images/exp2c_trial_55_colour3_distractors43_r.png,r,2,024,001,2021-04-23_15h22.22.957,searchDisc4,2020.2.10,Win32,60,,,space,0.17878,2,1,0.52533,,0,344,344,511,1,2c,55,3,43,
,,,,,,,,,,,,,,,,,,,,,,,,,,images/exp2c_trial_43_colour1_distractors43_r.png,r,2,024,001,2021-04-23_15h22.22.957,searchDisc4,2020.2.10,Win32,60,,,space,0.22713,2,1,0.44068,,0,345,345,499,1,2c,43,1,43,
,,,,,,,,,,,,,,,,,,,,,,,,,,images/exp2a_trial_32_colour3_distractors9_l.png,l,1,024,001,2021-04-23_15h22.22.957,searchDisc4,2020.2.10,Win32,60,,,space,0.307125,1,1,0.68296,,0,346,346,260,1,2a,32,3,9,
,,,,,,,,,,,,,,,,,,,,,,,,,,images/exp2b_trial_23_colour1_distractors43_l.png,l,1,024,001,2021-04-23_15h22.22.957,searchDisc4,2020.2.10,Win32,60,,,space,0.257095,1,1,0.53389,,0,347,347,365,1,2b,23,1,43,
,,,,,,,,,,,,,,,,,,,,,,,,,,images/exp2a_trial_62_colour2_distractors1_l.png,l,1,024,001,2021-04-23_15h22.22.957,searchDisc4,2020.2.10,Win32,60,,,space,0.18833,1,1,0.538275,,0,348,348,290,1,2a,62,2,1,
,,,,,,,,,,,,,,,,,,,,,,,,,,images/exp1a_trial_47_colour2_distractors19_r.png,r,2,024,001,2021-04-23_15h22.22.957,searchDisc4,2020.2.10,Win32,60,,,space,0.18595,2,1,0.75601,,0,349,349,47,1,1a,47,2,19,
,,,,,,,,,,,,,,,,,,,,,,,,,,images/exp2a_trial_2_colour1_distractors9_r.png,r,2,024,001,2021-04-23_15h22.22.957,searchDisc4,2020.2.10,Win32,60,,,space,0.267105,2,1,0.68048,,0,350,350,230,1,2a,2,1,9,
,,,,,,,,,,,,,,,,,,,,,,,,,,images/exp2a_trial_40_colour1_distractors9_r.png,r,2,024,001,2021-04-23_15h22.22.957,searchDisc4,2020.2.10,Win32,60,,,space,0.19031,2,1,0.847365,,0,351,351,268,1,2a,40,1,9,
,,,,,,,,,,,,,,,,,,,,,,,,,,images/exp2a_trial_58_colour1_distractors9_l.png,l,1,024,001,2021-04-23_15h22.22.957,searchDisc4,2020.2.10,Win32,60,,,space,0.231435,1,1,0.73337,,0,352,352,286,1,2a,58,1,9,
,,,,,,,,,,,,,,,,,,,,,,,,,,images/exp2a_trial_97_colour1_distractors19_l.png,l,1,024,001,2021-04-23_15h22.22.957,searchDisc4,2020.2.10,Win32,60,,,space,0.31502,1,1,0.968135,,0,353,353,325,1,2a,97,1,19,
,,,,,,,,,,,,,,,,,,,,,,,,,,images/exp2a_trial_52_colour3_distractors9_r.png,r,2,024,001,2021-04-23_15h22.22.957,searchDisc4,2020.2.10,Win32,60,,,space,0.25585,2,1,0.618425,,0,354,354,280,1,2a,52,3,9,
,,,,,,,,,,,,,,,,,,,,,,,,,,images/exp1a_trial_16_colour3_distractors31_r.png,r,2,024,001,2021-04-23_15h22.22.957,searchDisc4,2020.2.10,Win32,60,,,space,0.233715,2,1,0.72323,,0,355,355,16,1,1a,16,3,31,
,,,,,,,,,,,,,,,,,,,,,,,,,,images/exp2c_trial_73_colour3_distractors43_l.png,l,1,024,001,2021-04-23_15h22.22.957,searchDisc4,2020.2.10,Win32,60,,,space,0.228085,1,1,0.86577,,0,356,356,529,1,2c,73,3,43,
,,,,,,,,,,,,,,,,,,,,,,,,,,images/exp2a_trial_45_colour2_distractors4_r.png,r,2,024,001,2021-04-23_15h22.22.957,searchDisc4,2020.2.10,Win32,60,,,space,0.21073,2,1,0.57495,,0,357,357,273,1,2a,45,2,4,
,,,,,,,,,,,,,,,,,,,,,,,,,,images/exp2c_trial_76_colour1_distractors1_r.png,r,2,024,001,2021-04-23_15h22.22.957,searchDisc4,2020.2.10,Win32,60,,,space,0.21722,2,1,0.48569,,0,358,358,532,1,2c,76,1,1,
,,,,,,,,,,,,,,,,,,,,,,,,,,images/exp2a_trial_96_colour1_distractors9_l.png,l,1,024,001,2021-04-23_15h22.22.957,searchDisc4,2020.2.10,Win32,60,,,space,0.217185,2,0,0.44043,space,0,359,359,324,1,2a,96,1,9,0.416575
,,,,,,,,,,,,,,,,,,,,,,,,,,images/exp1a_trial_104_colour2_distractors31_l.png,l,1,024,001,2021-04-23_15h22.22.957,searchDisc4,2020.2.10,Win32,60,,,space,0.50734,1,1,0.66321,,0,360,360,104,1,1a,104,2,31,
,,,,,,,,,,,,,,,,,,,,,,,,,,images/exp1b_trial_66_colour2_distractors31_l.png,l,1,024,001,2021-04-23_15h22.22.957,searchDisc4,2020.2.10,Win32,60,,,space,0.194825,1,1,0.82874,,0,361,361,180,1,1b,66,2,31,
,,,,,,,,,,,,,,,,,,,,,,,,,,images/exp1a_trial_81_colour1_distractors43_r.png,r,2,024,001,2021-04-23_15h22.22.957,searchDisc4,2020.2.10,Win32,60,,,space,0.19452,2,1,0.61966,,0,362,362,81,1,1a,81,1,43,
,,,,,,,,,,,,,,,,,,,,,,,,,,images/exp1b_trial_49_colour2_distractors43_r.png,r,2,024,001,2021-04-23_15h22.22.957,searchDisc4,2020.2.10,Win32,60,,,space,0.19256,2,1,0.754875,,0,363,363,163,1,1b,49,2,43,
,,,,,,,,,,,,,,,,,,,,,,,,,,images/exp2a_trial_41_colour1_distractors19_r.png,r,2,024,001,2021-04-23_15h22.22.957,searchDisc4,2020.2.10,Win32,60,,,space,0.19467,1,0,0.539685,,0,364,364,269,1,2a,41,1,19,
,,,,,,,,,,,,,,,,,,,,,,,,,,images/exp1b_trial_43_colour1_distractors43_r.png,r,2,024,001,2021-04-23_15h22.22.957,searchDisc4,2020.2.10,Win32,60,,,space,0.27793,1,0,0.963835,,0,365,365,157,1,1b,43,1,43,
,,,,,,,,,,,,,,,,,,,,,,,,,,images/exp1a_trial_84_colour2_distractors9_r.png,r,2,024,001,2021-04-23_15h22.22.957,searchDisc4,2020.2.10,Win32,60,,,space,0.002525,2,1,0.764765,,0,366,366,84,1,1a,84,2,9,
,,,,,,,,,,,,,,,,,,,,,,,,,,images/exp2a_trial_15_colour3_distractors19_r.png,r,2,024,001,2021-04-23_15h22.22.957,searchDisc4,2020.2.10,Win32,60,,,space,0.112945,2,1,0.812325,,0,367,367,243,1,2a,15,3,19,
,,,,,,,,,,,,,,,,,,,,,,,,,,images/exp1a_trial_80_colour1_distractors31_r.png,r,2,024,001,2021-04-23_15h22.22.957,searchDisc4,2020.2.10,Win32,60,,,space,0.70162,2,1,0.52313,,0,368,368,80,1,1a,80,1,31,
,,,,,,,,,,,,,,,,,,,,,,,,,,images/exp2c_trial_101_colour2_distractors4_l.png,l,1,024,001,2021-04-23_15h22.22.957,searchDisc4,2020.2.10,Win32,60,,,space,0.26415,1,1,0.664095,,0,369,369,557,1,2c,101,2,4,
,,,,,,,,,,,,,,,,,,,,,,,,,,images/exp2b_trial_84_colour2_distractors9_r.png,r,2,024,001,2021-04-23_15h22.22.957,searchDisc4,2020.2.10,Win32,60,,,space,0.332605,2,1,0.49569,,0,370,370,426,1,2b,84,2,9,
,,,,,,,,,,,,,,,,,,,,,,,,,,images/exp2b_trial_30_colour3_distractors1_l.png,l,1,024,001,2021-04-23_15h22.22.957,searchDisc4,2020.2.10,Win32,60,,,space,0.21541,1,1,0.730535,,0,371,371,372,1,2b,30,3,1,
,,,,,,,,,,,,,,,,,,,,,,,,,,images/exp2c_trial_64_colour2_distractors9_l.png,l,1,024,001,2021-04-23_15h22.22.957,searchDisc4,2020.2.10,Win32,60,,,space,0.256445,1,1,0.649565,,0,372,372,520,1,2c,64,2,9,
,,,,,,,,,,,,,,,,,,,,,,,,,,images/exp1b_trial_97_colour1_distractors19_l.png,l,1,024,001,2021-04-23_15h22.22.957,searchDisc4,2020.2.10,Win32,60,,,space,0.20647,1,1,0.62308,,0,373,373,211,1,1b,97,1,19,
,,,,,,,,,,,,,,,,,,,,,,,,,,images/exp2b_trial_42_colour1_distractors31_r.png,r,2,024,001,2021-04-23_15h22.22.957,searchDisc4,2020.2.10,Win32,60,,,space,0.20493,2,1,0.57255,,0,374,374,384,1,2b,42,1,31,
,,,,,,,,,,,,,,,,,,,,,,,,,,images/exp1a_trial_39_colour1_distractors4_r.png,r,2,024,001,2021-04-23_15h22.22.957,searchDisc4,2020.2.10,Win32,60,,,space,0.17398,2,1,0.84525,,0,375,375,39,1,1a,39,1,4,
,,,,,,,,,,,,,,,,,,,,,,,,,,images/exp2a_trial_112_colour0_distractors0_r.png,r,2,024,001,2021-04-23_15h22.22.957,searchDisc4,2020.2.10,Win32,60,,,space,0.15365,2,1,0.725785,,0,376,376,340,1,2a,112,0,0,
,,,,,,,,,,,,,,,,,,,,,,,,,,images/exp2c_trial_47_colour2_distractors19_r.png,r,2,024,001,2021-04-23_15h22.22.957,searchDisc4,2020.2.10,Win32,60,,,space,0.187615,2,1,0.586445,,0,377,377,503,1,2c,47,2,19,
,,,,,,,,,,,,,,,,,,,,,,,,,,images/exp1a_trial_72_colour3_distractors31_l.png,l,1,024,001,2021-04-23_15h22.22.957,searchDisc4,2020.2.10,Win32,60,,,space,0.21554,1,1,0.642245,,0,378,378,72,1,1a,72,3,31,
,,,,,,,,,,,,,,,,,,,,,,,,,,images/exp1b_trial_98_colour1_distractors31_l.png,l,1,024,001,2021-04-23_15h22.22.957,searchDisc4,2020.2.10,Win32,60,,,space,0.236445,2,0,2.093825,,0,379,379,212,1,1b,98,1,31,
,,,,,,,,,,,,,,,,,,,,,,,,,,images/exp2a_trial_109_colour3_distractors19_l.png,l,1,024,001,2021-04-23_15h22.22.957,searchDisc4,2020.2.10,Win32,60,,,space,0.18776,1,1,0.516385,,0,380,380,337,1,2a,109,3,19,
,,,,,,,,,,,,,,,,,,,,,,,,,,images/exp2c_trial_12_colour3_distractors1_r.png,r,2,024,001,2021-04-23_15h22.22.957,searchDisc4,2020.2.10,Win32,60,,,space,0.236445,2,1,0.538315,,0,381,381,468,1,2c,12,3,1,
,,,,,,,,,,,,,,,,,,,,,,,,,,images/exp1a_trial_55_colour3_distractors43_r.png,r,2,024,001,2021-04-23_15h22.22.957,searchDisc4,2020.2.10,Win32,60,,,space,0.26041,2,1,0.727585,,0,382,382,55,1,1a,55,3,43,
,,,,,,,,,,,,,,,,,,,,,,,,,,images/exp2c_trial_70_colour3_distractors9_l.png,l,1,024,001,2021-04-23_15h22.22.957,searchDisc4,2020.2.10,Win32,60,,,space,0.17324,1,1,0.586665,,0,383,383,526,1,2c,70,3,9,
,,,,,,,,,,,,,,,,,,,,,,,,,,images/exp2b_trial_6_colour2_distractors1_r.png,r,2,024,001,2021-04-23_15h22.22.957,searchDisc4,2020.2.10,Win32,60,,,space,0.19457,2,1,0.46315,,0,384,384,348,1,2b,6,2,1,
,,,,,,,,,,,,,,,,,,,,,,,,,,images/exp2c_trial_21_colour1_distractors19_l.png,l,1,024,001,2021-04-23_15h22.22.957,searchDisc4,2020.2.10,Win32,60,,,space,0.23562,1,1,0.607195,,0,385,385,477,1,2c,21,1,19,
,,,,,,,,,,,,,,,,,,,,,,,,,,images/exp1b_trial_103_colour2_distractors19_l.png,l,1,024,001,2021-04-23_15h22.22.957,searchDisc4,2020.2.10,Win32,60,,,space,0.194655,2,0,0.53867,,0,386,386,217,1,1b,103,2,19,
,,,,,,,,,,,,,,,,,,,,,,,,,,images/exp1b_trial_96_colour1_distractors9_l.png,l,1,024,001,2021-04-23_15h22.22.957,searchDisc4,2020.2.10,Win32,60,,,space,0.228195,1,1,1.17756,,0,387,387,210,1,1b,96,1,9,
,,,,,,,,,,,,,,,,,,,,,,,,,,images/exp1a_trial_36_colour0_distractors0_r.png,r,2,024,001,2021-04-23_15h22.22.957,searchDisc4,2020.2.10,Win32,60,,,space,0.20167,2,1,0.65545,,0,388,388,36,1,1a,36,0,0,
,,,,,,,,,,,,,,,,,,,,,,,,,,images/exp1a_trial_87_colour2_distractors43_r.png,r,2,024,001,2021-04-23_15h22.22.957,searchDisc4,2020.2.10,Win32,60,,,space,0.14784,2,1,0.91104,,0,389,389,87,1,1a,87,2,43,
,,,,,,,,,,,,,,,,,,,,,,,,,,images/exp2a_trial_98_colour1_distractors31_l.png,l,1,024,001,2021-04-23_15h22.22.957,searchDisc4,2020.2.10,Win32,60,,,space,0.074675,1,1,0.77775,,0,390,390,326,1,2a,98,1,31,
,,,,,,,,,,,,,,,,,,,,,,,,,,images/exp1b_trial_77_colour1_distractors4_r.png,r,2,024,001,2021-04-23_15h22.22.957,searchDisc4,2020.2.10,Win32,60,,,space,0.117595,2,1,0.85543,,0,391,391,191,1,1b,77,1,4,
,,,,,,,,,,,,,,,,,,,,,,,,,,images/exp1b_trial_13_colour3_distractors4_r.png,r,2,024,001,2021-04-23_15h22.22.957,searchDisc4,2020.2.10,Win32,60,,,space,0.11668,1,0,0.90582,,0,392,392,127,1,1b,13,3,4,
,,,,,,,,,,,,,,,,,,,,,,,,,,images/exp2c_trial_19_colour1_distractors4_l.png,l,1,024,001,2021-04-23_15h22.22.957,searchDisc4,2020.2.10,Win32,60,,,space,0.12516,1,1,0.5676,,0,393,393,475,1,2c,19,1,4,
,,,,,,,,,,,,,,,,,,,,,,,,,,images/exp1b_trial_42_colour1_distractors31_r.png,r,2,024,001,2021-04-23_15h22.22.957,searchDisc4,2020.2.10,Win32,60,,,space,0.172585,1,0,0.88289,,0,394,394,156,1,1b,42,1,31,
,,,,,,,,,,,,,,,,,,,,,,,,,,images/exp2b_trial_7_colour2_distractors4_r.png,r,2,024,001,2021-04-23_15h22.22.957,searchDisc4,2020.2.10,Win32,60,,,space,0.079565,2,1,0.75452,,0,395,395,349,1,2b,7,2,4,
,,,,,,,,,,,,,,,,,,,,,,,,,,images/exp2c_trial_11_colour2_distractors43_r.png,r,2,024,001,2021-04-23_15h22.22.957,searchDisc4,2020.2.10,Win32,60,,,space,0.121835,2,1,0.7729,,0,396,396,467,1,2c,11,2,43,
,,,,,,,,,,,,,,,,,,,,,,,,,,images/exp2c_trial_52_colour3_distractors9_r.png,r,2,024,001,2021-04-23_15h22.22.957,searchDisc4,2020.2.10,Win32,60,,,space,0.139085,2,1,0.67215,,0,397,397,508,1,2c,52,3,9,
,,,,,,,,,,,,,,,,,,,,,,,,,,images/exp2b_trial_61_colour1_distractors43_l.png,l,1,024,001,2021-04-23_15h22.22.957,searchDisc4,2020.2.10,Win32,60,,,space,0.141775,2,0,0.849795,,0,398,398,403,1,2b,61,1,43,
,,,,,,,,,,,,,,,,,,,,,,,,,,images/exp1a_trial_7_colour2_distractors4_r.png,r,2,024,001,2021-04-23_15h22.22.957,searchDisc4,2020.2.10,Win32,60,,,space,0.136235,2,1,0.78209,,0,399,399,7,1,1a,7,2,4,
,,,,,,,,,,,,,,,,,,,,,,,,,,images/exp1a_trial_79_colour1_distractors19_r.png,r,2,024,001,2021-04-23_15h22.22.957,searchDisc4,2020.2.10,Win32,60,,,space,0.08253,2,1,0.75642,,0,400,400,79,1,1a,79,1,19,
,,,,,,,,,,,,,,,,,,,,,,,,,,images/exp2c_trial_67_colour2_distractors43_l.png,l,1,024,001,2021-04-23_15h22.22.957,searchDisc4,2020.2.10,Win32,60,,,space,0.165995,1,1,1.006,,0,401,401,523,1,2c,67,2,43,
,,,,,,,,,,,,,,,,,,,,,,,,,,images/exp1a_trial_20_colour1_distractors9_l.png,l,1,024,001,2021-04-23_15h22.22.957,searchDisc4,2020.2.10,Win32,60,,,space,0.17168,1,1,0.86711,,0,402,402,20,1,1a,20,1,9,
,,,,,,,,,,,,,,,,,,,,,,,,,,images/exp1b_trial_90_colour3_distractors9_r.png,r,2,024,001,2021-04-23_15h22.22.957,searchDisc4,2020.2.10,Win32,60,,,space,0.215435,2,1,1.0137,,0,403,403,204,1,1b,90,3,9,
,,,,,,,,,,,,,,,,,,,,,,,,,,images/exp2c_trial_91_colour3_distractors19_r.png,r,2,024,001,2021-04-23_15h22.22.957,searchDisc4,2020.2.10,Win32,60,,,space,0.142465,2,1,0.604935,,0,404,404,547,1,2c,91,3,19,
,,,,,,,,,,,,,,,,,,,,,,,,,,images/exp1a_trial_68_colour3_distractors1_l.png,l,1,024,001,2021-04-23_15h22.22.957,searchDisc4,2020.2.10,Win32,60,,,space,0.162035,1,1,0.59878,,0,405,405,68,1,1a,68,3,1,
,,,,,,,,,,,,,,,,,,,,,,,,,,images/exp2b_trial_96_colour1_distractors9_l.png,l,1,024,001,2021-04-23_15h22.22.957,searchDisc4,2020.2.10,Win32,60,,,space,0.142815,2,0,0.543235,,0,406,406,438,1,2b,96,1,9,
,,,,,,,,,,,,,,,,,,,,,,,,,,images/exp2a_trial_24_colour2_distractors1_l.png,l,1,024,001,2021-04-23_15h22.22.957,searchDisc4,2020.2.10,Win32,60,,,space,0.189385,1,1,0.614515,,0,407,407,252,1,2a,24,2,1,
,,,,,,,,,,,,,,,,,,,,,,,,,,images/exp1b_trial_73_colour3_distractors43_l.png,l,1,024,001,2021-04-23_15h22.22.957,searchDisc4,2020.2.10,Win32,60,,,space,0.18073,1,1,0.79043,,0,408,408,187,1,1b,73,3,43,
,,,,,,,,,,,,,,,,,,,,,,,,,,images/exp1a_trial_12_colour3_distractors1_r.png,r,2,024,001,2021-04-23_15h22.22.957,searchDisc4,2020.2.10,Win32,60,,,space,0.139405,2,1,0.74703,,0,409,409,12,1,1a,12,3,1,
,,,,,,,,,,,,,,,,,,,,,,,,,,images/exp2a_trial_92_colour3_distractors31_r.png,r,2,024,001,2021-04-23_15h22.22.957,searchDisc4,2020.2.10,Win32,60,,,space,0.14981,2,1,0.62326,,0,410,410,320,1,2a,92,3,31,
,,,,,,,,,,,,,,,,,,,,,,,,,,images/exp2b_trial_27_colour2_distractors19_l.png,l,1,024,001,2021-04-23_15h22.22.957,searchDisc4,2020.2.10,Win32,60,,,space,0.14218,1,1,0.8487,,0,411,411,369,1,2b,27,2,19,
,,,,,,,,,,,,,,,,,,,,,,,,,,images/exp2b_trial_1_colour1_distractors4_r.png,r,2,024,001,2021-04-23_15h22.22.957,searchDisc4,2020.2.10,Win32,60,,,space,0.287855,2,1,0.586985,,0,412,412,343,1,2b,1,1,4,
,,,,,,,,,,,,,,,,,,,,,,,,,,images/exp2b_trial_97_colour1_distractors19_l.png,l,1,024,001,2021-04-23_15h22.22.957,searchDisc4,2020.2.10,Win32,60,,,space,0.142785,1,1,0.58693,,0,413,413,439,1,2b,97,1,19,
,,,,,,,,,,,,,,,,,,,,,,,,,,images/exp1a_trial_110_colour3_distractors31_l.png,l,1,024,001,2021-04-23_15h22.22.957,searchDisc4,2020.2.10,Win32,60,,,space,0.20317,1,1,0.75366,,0,414,414,110,1,1a,110,3,31,
,,,,,,,,,,,,,,,,,,,,,,,,,,images/exp2b_trial_95_colour1_distractors4_l.png,l,1,024,001,2021-04-23_15h22.22.957,searchDisc4,2020.2.10,Win32,60,,,space,0.256125,1,1,0.618415,,0,415,415,437,1,2b,95,1,4,
,,,,,,,,,,,,,,,,,,,,,,,,,,images/exp1b_trial_20_colour1_distractors9_l.png,l,1,024,001,2021-04-23_15h22.22.957,searchDisc4,2020.2.10,Win32,60,,,space,0.222345,1,1,0.635825,,0,416,416,134,1,1b,20,1,9,
,,,,,,,,,,,,,,,,,,,,,,,,,,images/exp1b_trial_27_colour2_distractors19_l.png,l,1,024,001,2021-04-23_15h22.22.957,searchDisc4,2020.2.10,Win32,60,,,space,0.22338,1,1,0.71945,,0,417,417,141,1,1b,27,2,19,
,,,,,,,,,,,,,,,,,,,,,,,,,,images/exp1a_trial_76_colour1_distractors1_r.png,r,2,024,001,2021-04-23_15h22.22.957,searchDisc4,2020.2.10,Win32,60,,,space,0.183725,2,1,0.657615,,0,418,418,76,1,1a,76,1,1,
,,,,,,,,,,,,,,,,,,,,,,,,,,images/exp2c_trial_105_colour2_distractors43_l.png,l,1,024,001,2021-04-23_15h22.22.957,searchDisc4,2020.2.10,Win32,60,,,space,0.13323,1,1,0.985635,space,0,419,419,561,1,2c,105,2,43,0.27076
,,,,,,,,,,,,,,,,,,,,,,,,,,images/exp1b_trial_44_colour2_distractors1_r.png,r,2,024,001,2021-04-23_15h22.22.957,searchDisc4,2020.2.10,Win32,60,,,space,0.45871,2,1,0.54946,,0,420,420,158,1,1b,44,2,1,
,,,,,,,,,,,,,,,,,,,,,,,,,,images/exp1b_trial_7_colour2_distractors4_r.png,r,2,024,001,2021-04-23_15h22.22.957,searchDisc4,2020.2.10,Win32,60,,,space,0.188185,2,1,0.688235,,0,421,421,121,1,1b,7,2,4,
,,,,,,,,,,,,,,,,,,,,,,,,,,images/exp1a_trial_86_colour2_distractors31_r.png,r,2,024,001,2021-04-23_15h22.22.957,searchDisc4,2020.2.10,Win32,60,,,space,0.210505,2,1,0.556935,,0,422,422,86,1,1a,86,2,31,
,,,,,,,,,,,,,,,,,,,,,,,,,,images/exp2c_trial_22_colour1_distractors31_l.png,l,1,024,001,2021-04-23_15h22.22.957,searchDisc4,2020.2.10,Win32,60,,,space,0.1811,1,1,0.710905,,0,423,423,478,1,2c,22,1,31,
,,,,,,,,,,,,,,,,,,,,,,,,,,images/exp1b_trial_105_colour2_distractors43_l.png,l,1,024,001,2021-04-23_15h22.22.957,searchDisc4,2020.2.10,Win32,60,,,space,0.19576,1,1,1.13664,,0,424,424,219,1,1b,105,2,43,
,,,,,,,,,,,,,,,,,,,,,,,,,,images/exp1b_trial_69_colour3_distractors4_l.png,l,1,024,001,2021-04-23_15h22.22.957,searchDisc4,2020.2.10,Win32,60,,,space,0.177875,1,1,1.14635,,0,425,425,183,1,1b,69,3,4,
,,,,,,,,,,,,,,,,,,,,,,,,,,images/exp1a_trial_67_colour2_distractors43_l.png,l,1,024,001,2021-04-23_15h22.22.957,searchDisc4,2020.2.10,Win32,60,,,space,0.12092,1,1,0.791815,,0,426,426,67,1,1a,67,2,43,
,,,,,,,,,,,,,,,,,,,,,,,,,,images/exp1b_trial_63_colour2_distractors4_l.png,l,1,024,001,2021-04-23_15h22.22.957,searchDisc4,2020.2.10,Win32,60,,,space,0.14887,1,1,0.770635,,0,427,427,177,1,1b,63,2,4,
,,,,,,,,,,,,,,,,,,,,,,,,,,images/exp2a_trial_30_colour3_distractors1_l.png,l,1,024,001,2021-04-23_15h22.22.957,searchDisc4,2020.2.10,Win32,60,,,space,0.15734,1,1,0.65635,,0,428,428,258,1,2a,30,3,1,
,,,,,,,,,,,,,,,,,,,,,,,,,,images/exp1a_trial_78_colour1_distractors9_r.png,r,2,024,001,2021-04-23_15h22.22.957,searchDisc4,2020.2.10,Win32,60,,,space,0.152935,1,0,0.529935,,0,429,429,78,1,1a,78,1,9,
,,,,,,,,,,,,,,,,,,,,,,,,,,images/exp2a_trial_80_colour1_distractors31_r.png,r,2,024,001,2021-04-23_15h22.22.957,searchDisc4,2020.2.10,Win32,60,,,space,0.5803,2,1,0.667605,,0,430,430,308,1,2a,80,1,31,
,,,,,,,,,,,,,,,,,,,,,,,,,,images/exp2c_trial_89_colour3_distractors4_r.png,r,2,024,001,2021-04-23_15h22.22.957,searchDisc4,2020.2.10,Win32,60,,,space,0.173835,2,1,0.621635,,0,431,431,545,1,2c,89,3,4,
,,,,,,,,,,,,,,,,,,,,,,,,,,images/exp1b_trial_113_colour0_distractors0_l.png,l,1,024,001,2021-04-23_15h22.22.957,searchDisc4,2020.2.10,Win32,60,,,space,0.183295,2,0,0.430245,,0,432,432,227,1,1b,113,0,0,
,,,,,,,,,,,,,,,,,,,,,,,,,,images/exp2b_trial_111_colour3_distractors43_l.png,l,1,024,001,2021-04-23_15h22.22.957,searchDisc4,2020.2.10,Win32,60,,,space,0.52996,1,1,0.65907,,0,433,433,453,1,2b,111,3,43,
,,,,,,,,,,,,,,,,,,,,,,,,,,images/exp2a_trial_23_colour1_distractors43_l.png,l,1,024,001,2021-04-23_15h22.22.957,searchDisc4,2020.2.10,Win32,60,,,space,0.24294,1,1,0.857215,,0,434,434,251,1,2a,23,1,43,
,,,,,,,,,,,,,,,,,,,,,,,,,,images/exp2b_trial_89_colour3_distractors4_r.png,r,2,024,001,2021-04-23_15h22.22.957,searchDisc4,2020.2.10,Win32,60,,,space,0.43775,2,1,0.71156,,0,435,435,431,1,2b,89,3,4,
,,,,,,,,,,,,,,,,,,,,,,,,,,images/exp1b_trial_40_colour1_distractors9_r.png,r,2,024,001,2021-04-23_15h22.22.957,searchDisc4,2020.2.10,Win32,60,,,space,0.32566,2,1,0.87772,,0,436,436,154,1,1b,40,1,9,
,,,,,,,,,,,,,,,,,,,,,,,,,,images/exp1b_trial_110_colour3_distractors31_l.png,l,1,024,001,2021-04-23_15h22.22.957,searchDisc4,2020.2.10,Win32,60,,,space,0.21538,2,0,1.389335,,0,437,437,224,1,1b,110,3,31,
,,,,,,,,,,,,,,,,,,,,,,,,,,images/exp2b_trial_87_colour2_distractors43_r.png,r,2,024,001,2021-04-23_15h22.22.957,searchDisc4,2020.2.10,Win32,60,,,space,0.11095,2,1,0.7184,,0,438,438,429,1,2b,87,2,43,
,,,,,,,,,,,,,,,,,,,,,,,,,,images/exp1b_trial_41_colour1_distractors19_r.png,r,2,024,001,2021-04-23_15h22.22.957,searchDisc4,2020.2.10,Win32,60,,,space,0.12527,2,1,0.947635,,0,439,439,155,1,1b,41,1,19,
,,,,,,,,,,,,,,,,,,,,,,,,,,images/exp2a_trial_91_colour3_distractors19_r.png,r,2,024,001,2021-04-23_15h22.22.957,searchDisc4,2020.2.10,Win32,60,,,space,0.007085,2,1,0.725315,,0,440,440,319,1,2a,91,3,19,
,,,,,,,,,,,,,,,,,,,,,,,,,,images/exp2b_trial_67_colour2_distractors43_l.png,l,1,024,001,2021-04-23_15h22.22.957,searchDisc4,2020.2.10,Win32,60,,,space,0.125185,1,1,0.80645,,0,441,441,409,1,2b,67,2,43,
,,,,,,,,,,,,,,,,,,,,,,,,,,images/exp2b_trial_65_colour2_distractors19_l.png,l,1,024,001,2021-04-23_15h22.22.957,searchDisc4,2020.2.10,Win32,60,,,space,0.20642,1,1,0.65419,,0,442,442,407,1,2b,65,2,19,
,,,,,,,,,,,,,,,,,,,,,,,,,,images/exp2c_trial_16_colour3_distractors31_r.png,r,2,024,001,2021-04-23_15h22.22.957,searchDisc4,2020.2.10,Win32,60,,,space,0.244485,2,1,0.44194,,0,443,443,472,1,2c,16,3,31,
,,,,,,,,,,,,,,,,,,,,,,,,,,images/exp2c_trial_63_colour2_distractors4_l.png,l,1,024,001,2021-04-23_15h22.22.957,searchDisc4,2020.2.10,Win32,60,,,space,0.31557,2,0,0.508525,,0,444,444,519,1,2c,63,2,4,
,,,,,,,,,,,,,,,,,,,,,,,,,,images/exp1b_trial_93_colour3_distractors43_r.png,r,2,024,001,2021-04-23_15h22.22.957,searchDisc4,2020.2.10,Win32,60,,,space,0.332475,2,1,1.170575,,0,445,445,207,1,1b,93,3,43,
,,,,,,,,,,,,,,,,,,,,,,,,,,images/exp2c_trial_24_colour2_distractors1_l.png,l,1,024,001,2021-04-23_15h22.22.957,searchDisc4,2020.2.10,Win32,60,,,space,0.258065,1,1,0.69612,,0,446,446,480,1,2c,24,2,1,
,,,,,,,,,,,,,,,,,,,,,,,,,,images/exp1b_trial_48_colour2_distractors31_r.png,r,2,024,001,2021-04-23_15h22.22.957,searchDisc4,2020.2.10,Win32,60,,,space,0.2245,2,1,0.538255,,0,447,447,162,1,1b,48,2,31,
,,,,,,,,,,,,,,,,,,,,,,,,,,images/exp2a_trial_1_colour1_distractors4_r.png,r,2,024,001,2021-04-23_15h22.22.957,searchDisc4,2020.2.10,Win32,60,,,space,0.201615,2,1,0.62306,,0,448,448,229,1,2a,1,1,4,
,,,,,,,,,,,,,,,,,,,,,,,,,,images/exp1a_trial_106_colour3_distractors1_l.png,l,1,024,001,2021-04-23_15h22.22.957,searchDisc4,2020.2.10,Win32,60,,,space,0.252205,1,1,0.60659,,0,449,449,106,1,1a,106,3,1,
,,,,,,,,,,,,,,,,,,,,,,,,,,images/exp2a_trial_61_colour1_distractors43_l.png,l,1,024,001,2021-04-23_15h22.22.957,searchDisc4,2020.2.10,Win32,60,,,space,0.22934,1,1,0.862135,,0,450,450,289,1,2a,61,1,43,
,,,,,,,,,,,,,,,,,,,,,,,,,,images/exp2a_trial_84_colour2_distractors9_r.png,r,2,024,001,2021-04-23_15h22.22.957,searchDisc4,2020.2.10,Win32,60,,,space,0.174605,2,1,0.551955,,0,451,451,312,1,2a,84,2,9,
,,,,,,,,,,,,,,,,,,,,,,,,,,images/exp1b_trial_71_colour3_distractors19_l.png,l,1,024,001,2021-04-23_15h22.22.957,searchDisc4,2020.2.10,Win32,60,,,space,0.264525,1,1,1.04247,,0,452,452,185,1,1b,71,3,19,
,,,,,,,,,,,,,,,,,,,,,,,,,,images/exp2c_trial_112_colour0_distractors0_r.png,r,2,024,001,2021-04-23_15h22.22.957,searchDisc4,2020.2.10,Win32,60,,,space,0.191245,2,1,0.762035,,0,453,453,568,1,2c,112,0,0,
,,,,,,,,,,,,,,,,,,,,,,,,,,images/exp2b_trial_71_colour3_distractors19_l.png,l,1,024,001,2021-04-23_15h22.22.957,searchDisc4,2020.2.10,Win32,60,,,space,0.22243,1,1,0.53134,,0,454,454,413,1,2b,71,3,19,
,,,,,,,,,,,,,,,,,,,,,,,,,,images/exp1b_trial_100_colour2_distractors1_l.png,l,1,024,001,2021-04-23_15h22.22.957,searchDisc4,2020.2.10,Win32,60,,,space,0.29866,1,1,0.6157,,0,455,455,214,1,1b,100,2,1,
,,,,,,,,,,,,,,,,,,,,,,,,,,images/exp2c_trial_110_colour3_distractors31_l.png,l,1,024,001,2021-04-23_15h22.22.957,searchDisc4,2020.2.10,Win32,60,,,space,0.25461,1,1,0.603945,,0,456,456,566,1,2c,110,3,31,
,,,,,,,,,,,,,,,,,,,,,,,,,,images/exp2c_trial_97_colour1_distractors19_l.png,l,1,024,001,2021-04-23_15h22.22.957,searchDisc4,2020.2.10,Win32,60,,,space,0.25024,1,1,0.76189,,0,457,457,553,1,2c,97,1,19,
,,,,,,,,,,,,,,,,,,,,,,,,,,images/exp1a_trial_82_colour2_distractors1_r.png,r,2,024,001,2021-04-23_15h22.22.957,searchDisc4,2020.2.10,Win32,60,,,space,0.18797,2,1,0.68377,,0,458,458,82,1,1a,82,2,1,
,,,,,,,,,,,,,,,,,,,,,,,,,,images/exp1b_trial_74_colour0_distractors0_r.png,r,2,024,001,2021-04-23_15h22.22.957,searchDisc4,2020.2.10,Win32,60,,,space,0.198735,2,1,0.659605,,0,459,459,188,1,1b,74,0,0,
,,,,,,,,,,,,,,,,,,,,,,,,,,images/exp1b_trial_104_colour2_distractors31_l.png,l,1,024,001,2021-04-23_15h22.22.957,searchDisc4,2020.2.10,Win32,60,,,space,0.233295,1,1,0.833035,,0,460,460,218,1,1b,104,2,31,
,,,,,,,,,,,,,,,,,,,,,,,,,,images/exp1b_trial_75_colour0_distractors0_l.png,l,1,024,001,2021-04-23_15h22.22.957,searchDisc4,2020.2.10,Win32,60,,,space,0.18324,1,1,0.75161,,0,461,461,189,1,1b,75,0,0,
,,,,,,,,,,,,,,,,,,,,,,,,,,images/exp1b_trial_109_colour3_distractors19_l.png,l,1,024,001,2021-04-23_15h22.22.957,searchDisc4,2020.2.10,Win32,60,,,space,0.322115,1,1,0.84213,,0,462,462,223,1,1b,109,3,19,
,,,,,,,,,,,,,,,,,,,,,,,,,,images/exp1b_trial_39_colour1_distractors4_r.png,r,2,024,001,2021-04-23_15h22.22.957,searchDisc4,2020.2.10,Win32,60,,,space,0.19461,2,1,0.57441,,0,463,463,153,1,1b,39,1,4,
,,,,,,,,,,,,,,,,,,,,,,,,,,images/exp2b_trial_64_colour2_distractors9_l.png,l,1,024,001,2021-04-23_15h22.22.957,searchDisc4,2020.2.10,Win32,60,,,space,0.22247,1,1,0.63814,,0,464,464,406,1,2b,64,2,9,
,,,,,,,,,,,,,,,,,,,,,,,,,,images/exp1a_trial_21_colour1_distractors19_l.png,l,1,024,001,2021-04-23_15h22.22.957,searchDisc4,2020.2.10,Win32,60,,,space,0.19691,1,1,0.677675,,0,465,465,21,1,1a,21,1,19,
,,,,,,,,,,,,,,,,,,,,,,,,,,images/exp2b_trial_29_colour2_distractors43_l.png,l,1,024,001,2021-04-23_15h22.22.957,searchDisc4,2020.2.10,Win32,60,,,space,0.22077,1,1,0.554295,,0,466,466,371,1,2b,29,2,43,
,,,,,,,,,,,,,,,,,,,,,,,,,,images/exp2c_trial_3_colour1_distractors19_r.png,r,2,024,001,2021-04-23_15h22.22.957,searchDisc4,2020.2.10,Win32,60,,,space,0.26883,2,1,0.57241,,0,467,467,459,1,2c,3,1,19,
,,,,,,,,,,,,,,,,,,,,,,,,,,images/exp2a_trial_110_colour3_distractors31_l.png,l,1,024,001,2021-04-23_15h22.22.957,searchDisc4,2020.2.10,Win32,60,,,space,0.250155,1,1,0.62031,,0,468,468,338,1,2a,110,3,31,
,,,,,,,,,,,,,,,,,,,,,,,,,,images/exp1b_trial_50_colour3_distractors1_r.png,r,2,024,001,2021-04-23_15h22.22.957,searchDisc4,2020.2.10,Win32,60,,,space,0.264155,2,1,0.965795,,0,469,469,164,1,1b,50,3,1,
,,,,,,,,,,,,,,,,,,,,,,,,,,images/exp2c_trial_40_colour1_distractors9_r.png,r,2,024,001,2021-04-23_15h22.22.957,searchDisc4,2020.2.10,Win32,60,,,space,0.16601,2,1,0.620565,,0,470,470,496,1,2c,40,1,9,
,,,,,,,,,,,,,,,,,,,,,,,,,,images/exp2c_trial_14_colour3_distractors9_r.png,r,2,024,001,2021-04-23_15h22.22.957,searchDisc4,2020.2.10,Win32,60,,,space,0.255035,2,1,1.00768,,0,471,471,470,1,2c,14,3,9,
,,,,,,,,,,,,,,,,,,,,,,,,,,images/exp2a_trial_86_colour2_distractors31_r.png,r,2,024,001,2021-04-23_15h22.22.957,searchDisc4,2020.2.10,Win32,60,,,space,0.21376,2,1,0.4674,,0,472,472,314,1,2a,86,2,31,
,,,,,,,,,,,,,,,,,,,,,,,,,,images/exp2b_trial_2_colour1_distractors9_r.png,r,2,024,001,2021-04-23_15h22.22.957,searchDisc4,2020.2.10,Win32,60,,,space,0.24328,2,1,0.699515,,0,473,473,344,1,2b,2,1,9,
,,,,,,,,,,,,,,,,,,,,,,,,,,images/exp1b_trial_4_colour1_distractors31_r.png,r,2,024,001,2021-04-23_15h22.22.957,searchDisc4,2020.2.10,Win32,60,,,space,0.195685,2,1,0.496,,0,474,474,118,1,1b,4,1,31,
,,,,,,,,,,,,,,,,,,,,,,,,,,images/exp1a_trial_13_colour3_distractors4_r.png,r,2,024,001,2021-04-23_15h22.22.957,searchDisc4,2020.2.10,Win32,60,,,space,0.172645,2,1,0.454295,,0,475,475,13,1,1a,13,3,4,
,,,,,,,,,,,,,,,,,,,,,,,,,,images/exp1b_trial_87_colour2_distractors43_r.png,r,2,024,001,2021-04-23_15h22.22.957,searchDisc4,2020.2.10,Win32,60,,,space,0.15295,2,1,0.66443,,0,476,476,201,1,1b,87,2,43,
