X Scale,Y Scale,key_resp_10.keys,key_resp_10.rt,key_resp_11.keys,key_resp_11.rt,key_resp_12.keys,key_resp_12.rt,key_resp_13.keys,key_resp_13.rt,key_resp_5.keys,key_resp_5.rt,key_resp_8.keys,key_resp_8.rt,key_resp_6.keys,key_resp_6.rt,key_resp_7.keys,key_resp_7.rt,key_resp_4.keys,key_resp_4.corr,trials_2.thisRepN,trials_2.thisTrialN,trials_2.thisN,trials_2.thisIndex,trials_2.ran,ImageFile,targ_side,correctAnswer,participant,session,date,expName,psychopyVersion,OS,frameRate,key_resp_4.rt,key_resp_3.keys,key_resp_3.rt,key_resp_9.keys,key_resp_9.rt,key_resp_2.keys,key_resp_2.corr,key_resp_2.rt,key_resp.keys,trials.thisRepN,trials.thisTrialN,trials.thisN,trials.thisIndex,trials.ran,exp,trial,colour,distNo,key_resp.rt
24.2,23.9,space,44.63304,space,6.74583,space,7.659515,space,4.7531,space,5.874065,space,7.616825,space,10.304555,space,2.81122,,0,0,0,0,10,1,Practice arrays/exp1a_trial_20_colour1_distractors9_l.png,l,1,024,001,2021-04-23_17h57.56.076,searchDisc4,2020.2.10,Win32,60,,,,,,,,,,,,,,,,,,,
,,,,,,,,,,,,,,,,space,8.48616,1,1,0,1,1,11,1,Practice arrays/exp1a_trial_21_colour1_distractors19_l.png,l,1,024,001,2021-04-23_17h57.56.076,searchDisc4,2020.2.10,Win32,60,0.83717,,,,,,,,,,,,,,,,,,
,,,,,,,,,,,,,,,,space,0.98602,1,1,0,2,2,12,1,Practice arrays/exp1a_trial_25_colour2_distractors4_l.png,l,1,024,001,2021-04-23_17h57.56.076,searchDisc4,2020.2.10,Win32,60,0.94864,,,,,,,,,,,,,,,,,,
,,,,,,,,,,,,,,,,space,2.5561,2,1,0,3,3,8,1,Practice arrays/exp1a_trial_16_colour3_distractors31_r.png,r,2,024,001,2021-04-23_17h57.56.076,searchDisc4,2020.2.10,Win32,60,0.8843,,,,,,,,,,,,,,,,,,
,,,,,,,,,,,,,,,,space,0.545895,2,1,0,4,4,7,1,Practice arrays/exp1a_trial_13_colour3_distractors4_r.png,r,2,024,001,2021-04-23_17h57.56.076,searchDisc4,2020.2.10,Win32,60,0.60444,,,,,,,,,,,,,,,,,,
,,,,,,,,,,,,,,,,space,1.15769,2,0,0,5,5,13,1,Practice arrays/exp1a_trial_28_colour2_distractors31_l.png,l,1,024,001,2021-04-23_17h57.56.076,searchDisc4,2020.2.10,Win32,60,0.68078,,,,,,,,,,,,,,,,,,
,,,,,,,,,,,,,,,,space,0.549035,2,1,0,6,6,1,1,Practice arrays/exp1a_trial_3_colour1_distractors19_r.png,r,2,024,001,2021-04-23_17h57.56.076,searchDisc4,2020.2.10,Win32,60,0.67966,,,,,,,,,,,,,,,,,,
,,,,,,,,,,,,,,,,space,2.867195,1,1,0,7,7,14,1,Practice arrays/exp1a_trial_29_colour2_distractors43_l.png,l,1,024,001,2021-04-23_17h57.56.076,searchDisc4,2020.2.10,Win32,60,0.677935,,,,,,,,,,,,,,,,,,
,,,,,,,,,,,,,,,,space,0.1441,2,1,0,8,8,4,1,Practice arrays/exp1a_trial_8_colour2_distractors9_r.png,r,2,024,001,2021-04-23_17h57.56.076,searchDisc4,2020.2.10,Win32,60,1.074805,,,,,,,,,,,,,,,,,,
,,,,,,,,,,,,,,,,space,5.485425,2,1,0,9,9,6,1,Practice arrays/exp1a_trial_12_colour3_distractors1_r.png,r,2,024,001,2021-04-23_17h57.56.076,searchDisc4,2020.2.10,Win32,60,0.833945,,,,,,,,,,,,,,,,,,
,,,,,,,,,,,,,,,,space,0.12527,2,1,0,10,10,18,1,Practice arrays/exp1a_trial_36_colour0_distractors0_r.png,r,2,024,001,2021-04-23_17h57.56.076,searchDisc4,2020.2.10,Win32,60,0.71615,,,,,,,,,,,,,,,,,,
,,,,,,,,,,,,,,,,space,0.872735,1,0,0,11,11,5,1,Practice arrays/exp1a_trial_10_colour2_distractors31_r.png,r,2,024,001,2021-04-23_17h57.56.076,searchDisc4,2020.2.10,Win32,60,1.076645,,,,,,,,,,,,,,,,,,
,,,,,,,,,,,,,,,,space,2.9316,2,1,0,12,12,3,1,Practice arrays/exp1a_trial_7_colour2_distractors4_r.png,r,2,024,001,2021-04-23_17h57.56.076,searchDisc4,2020.2.10,Win32,60,0.685245,,,,,,,,,,,,,,,,,,
,,,,,,,,,,,,,,,,space,1.287875,1,1,0,13,13,17,1,Practice arrays/exp1a_trial_35_colour3_distractors43_l.png,l,1,024,001,2021-04-23_17h57.56.076,searchDisc4,2020.2.10,Win32,60,0.901625,,,,,,,,,,,,,,,,,,
,,,,,,,,,,,,,,,,space,1.306145,2,1,0,14,14,2,1,Practice arrays/exp1a_trial_5_colour1_distractors43_r.png,r,2,024,001,2021-04-23_17h57.56.076,searchDisc4,2020.2.10,Win32,60,0.93771,,,,,,,,,,,,,,,,,,
,,,,,,,,,,,,,,,,space,0.89962,1,1,0,15,15,15,1,Practice arrays/exp1a_trial_32_colour3_distractors9_l.png,l,1,024,001,2021-04-23_17h57.56.076,searchDisc4,2020.2.10,Win32,60,0.7951,,,,,,,,,,,,,,,,,,
,,,,,,,,,,,,,,,,space,0.85227,1,1,0,16,16,19,1,Practice arrays/exp1a_trial_37_colour0_distractors0_l.png,l,1,024,001,2021-04-23_17h57.56.076,searchDisc4,2020.2.10,Win32,60,0.60899,,,,,,,,,,,,,,,,,,
,,,,,,,,,,,,,,,,space,1.826785,1,1,0,17,17,16,1,Practice arrays/exp1a_trial_33_colour3_distractors19_l.png,l,1,024,001,2021-04-23_17h57.56.076,searchDisc4,2020.2.10,Win32,60,0.57551,,,,,,,,,,,,,,,,,,
,,,,,,,,,,,,,,,,space,2.37241,1,1,0,18,18,9,1,Practice arrays/exp1a_trial_19_colour1_distractors4_l.png,l,1,024,001,2021-04-23_17h57.56.076,searchDisc4,2020.2.10,Win32,60,0.54039,,,,,,,,,,,,,,,,,,
,,,,,,,,,,,,,,,,space,2.434765,1,0,0,19,19,0,1,Practice arrays/exp1a_trial_0_colour1_distractors1_r.png,r,2,024,001,2021-04-23_17h57.56.076,searchDisc4,2020.2.10,Win32,60,0.90811,,,,,,,,,,,,,,,,,,
,,,,,,,,,,,,,,,,,,,,,,,,,images/exp1b_trial_38_colour1_distractors1_r.png,r,2,024,001,2021-04-23_17h57.56.076,searchDisc4,2020.2.10,Win32,60,,space,6.28995,space,0.67474,2,1,1.321705,,0,0,0,152,1,1b,38,1,1,
,,,,,,,,,,,,,,,,,,,,,,,,,images/exp2a_trial_47_colour2_distractors19_r.png,r,2,024,001,2021-04-23_17h57.56.076,searchDisc4,2020.2.10,Win32,60,,,,space,1.943915,2,1,1.050585,,0,1,1,275,1,2a,47,2,19,
,,,,,,,,,,,,,,,,,,,,,,,,,images/exp1a_trial_90_colour3_distractors9_r.png,r,2,024,001,2021-04-23_17h57.56.076,searchDisc4,2020.2.10,Win32,60,,,,space,2.44902,2,1,1.09768,,0,2,2,90,1,1a,90,3,9,
,,,,,,,,,,,,,,,,,,,,,,,,,images/exp2a_trial_88_colour3_distractors1_r.png,r,2,024,001,2021-04-23_17h57.56.076,searchDisc4,2020.2.10,Win32,60,,,,space,1.45454,2,1,0.864065,,0,3,3,316,1,2a,88,3,1,
,,,,,,,,,,,,,,,,,,,,,,,,,images/exp2c_trial_74_colour0_distractors0_r.png,r,2,024,001,2021-04-23_17h57.56.076,searchDisc4,2020.2.10,Win32,60,,,,space,0.995765,2,1,0.607975,,0,4,4,530,1,2c,74,0,0,
,,,,,,,,,,,,,,,,,,,,,,,,,images/exp2c_trial_58_colour1_distractors9_l.png,l,1,024,001,2021-04-23_17h57.56.076,searchDisc4,2020.2.10,Win32,60,,,,space,0.85469,1,1,0.62064,,0,5,5,514,1,2c,58,1,9,
,,,,,,,,,,,,,,,,,,,,,,,,,images/exp1b_trial_75_colour0_distractors0_l.png,l,1,024,001,2021-04-23_17h57.56.076,searchDisc4,2020.2.10,Win32,60,,,,space,0.601415,1,1,1.211945,,0,6,6,189,1,1b,75,0,0,
,,,,,,,,,,,,,,,,,,,,,,,,,images/exp1b_trial_82_colour2_distractors1_r.png,r,2,024,001,2021-04-23_17h57.56.076,searchDisc4,2020.2.10,Win32,60,,,,space,0.738305,2,1,1.002745,,0,7,7,196,1,1b,82,2,1,
,,,,,,,,,,,,,,,,,,,,,,,,,images/exp1a_trial_10_colour2_distractors31_r.png,r,2,024,001,2021-04-23_17h57.56.076,searchDisc4,2020.2.10,Win32,60,,,,space,0.65458,2,1,1.21794,,0,8,8,10,1,1a,10,2,31,
,,,,,,,,,,,,,,,,,,,,,,,,,images/exp2a_trial_75_colour0_distractors0_l.png,l,1,024,001,2021-04-23_17h57.56.076,searchDisc4,2020.2.10,Win32,60,,,,space,0.649795,1,1,0.73947,,0,9,9,303,1,2a,75,0,0,
,,,,,,,,,,,,,,,,,,,,,,,,,images/exp2a_trial_56_colour1_distractors1_l.png,l,1,024,001,2021-04-23_17h57.56.076,searchDisc4,2020.2.10,Win32,60,,,,space,0.519965,1,1,0.93009,,0,10,10,284,1,2a,56,1,1,
,,,,,,,,,,,,,,,,,,,,,,,,,images/exp2a_trial_70_colour3_distractors9_l.png,l,1,024,001,2021-04-23_17h57.56.076,searchDisc4,2020.2.10,Win32,60,,,,space,0.50246,1,1,0.626115,,0,11,11,298,1,2a,70,3,9,
,,,,,,,,,,,,,,,,,,,,,,,,,images/exp2c_trial_0_colour1_distractors1_r.png,r,2,024,001,2021-04-23_17h57.56.076,searchDisc4,2020.2.10,Win32,60,,,,space,0.490335,2,1,0.83329,,0,12,12,456,1,2c,0,1,1,
,,,,,,,,,,,,,,,,,,,,,,,,,images/exp2b_trial_42_colour1_distractors31_r.png,r,2,024,001,2021-04-23_17h57.56.076,searchDisc4,2020.2.10,Win32,60,,,,space,0.43347,2,1,0.91752,,0,13,13,384,1,2b,42,1,31,
,,,,,,,,,,,,,,,,,,,,,,,,,images/exp1b_trial_48_colour2_distractors31_r.png,r,2,024,001,2021-04-23_17h57.56.076,searchDisc4,2020.2.10,Win32,60,,,,space,0.309505,2,1,1.15495,,0,14,14,162,1,1b,48,2,31,
,,,,,,,,,,,,,,,,,,,,,,,,,images/exp1a_trial_55_colour3_distractors43_r.png,r,2,024,001,2021-04-23_17h57.56.076,searchDisc4,2020.2.10,Win32,60,,,,space,0.32775,2,1,0.85502,,0,15,15,55,1,1a,55,3,43,
,,,,,,,,,,,,,,,,,,,,,,,,,images/exp2b_trial_39_colour1_distractors4_r.png,r,2,024,001,2021-04-23_17h57.56.076,searchDisc4,2020.2.10,Win32,60,,,,space,0.27512,2,1,0.893755,,0,16,16,381,1,2b,39,1,4,
,,,,,,,,,,,,,,,,,,,,,,,,,images/exp1a_trial_75_colour0_distractors0_l.png,l,1,024,001,2021-04-23_17h57.56.076,searchDisc4,2020.2.10,Win32,60,,,,space,0.2687,1,1,0.88879,,0,17,17,75,1,1a,75,0,0,
,,,,,,,,,,,,,,,,,,,,,,,,,images/exp2c_trial_90_colour3_distractors9_r.png,r,2,024,001,2021-04-23_17h57.56.076,searchDisc4,2020.2.10,Win32,60,,,,space,0.337685,2,1,0.92568,,0,18,18,546,1,2c,90,3,9,
,,,,,,,,,,,,,,,,,,,,,,,,,images/exp2a_trial_33_colour3_distractors19_l.png,l,1,024,001,2021-04-23_17h57.56.076,searchDisc4,2020.2.10,Win32,60,,,,space,0.371795,1,1,0.951875,,0,19,19,261,1,2a,33,3,19,
,,,,,,,,,,,,,,,,,,,,,,,,,images/exp2b_trial_108_colour3_distractors9_l.png,l,1,024,001,2021-04-23_17h57.56.076,searchDisc4,2020.2.10,Win32,60,,,,space,0.3938,1,1,0.99367,,0,20,20,450,1,2b,108,3,9,
,,,,,,,,,,,,,,,,,,,,,,,,,images/exp1a_trial_40_colour1_distractors9_r.png,r,2,024,001,2021-04-23_17h57.56.076,searchDisc4,2020.2.10,Win32,60,,,,space,0.26804,2,1,0.965985,,0,21,21,40,1,1a,40,1,9,
,,,,,,,,,,,,,,,,,,,,,,,,,images/exp2c_trial_56_colour1_distractors1_l.png,l,1,024,001,2021-04-23_17h57.56.076,searchDisc4,2020.2.10,Win32,60,,,,space,0.299555,1,1,0.876495,,0,22,22,512,1,2c,56,1,1,
,,,,,,,,,,,,,,,,,,,,,,,,,images/exp2a_trial_16_colour3_distractors31_r.png,r,2,024,001,2021-04-23_17h57.56.076,searchDisc4,2020.2.10,Win32,60,,,,space,0.31036,2,1,0.84362,,0,23,23,244,1,2a,16,3,31,
,,,,,,,,,,,,,,,,,,,,,,,,,images/exp2a_trial_81_colour1_distractors43_r.png,r,2,024,001,2021-04-23_17h57.56.076,searchDisc4,2020.2.10,Win32,60,,,,space,0.405575,2,1,1.12943,,0,24,24,309,1,2a,81,1,43,
,,,,,,,,,,,,,,,,,,,,,,,,,images/exp2c_trial_2_colour1_distractors9_r.png,r,2,024,001,2021-04-23_17h57.56.076,searchDisc4,2020.2.10,Win32,60,,,,space,0.335655,2,1,0.711355,,0,25,25,458,1,2c,2,1,9,
,,,,,,,,,,,,,,,,,,,,,,,,,images/exp2b_trial_86_colour2_distractors31_r.png,r,2,024,001,2021-04-23_17h57.56.076,searchDisc4,2020.2.10,Win32,60,,,,space,0.33421,2,1,0.62141,,0,26,26,428,1,2b,86,2,31,
,,,,,,,,,,,,,,,,,,,,,,,,,images/exp1a_trial_84_colour2_distractors9_r.png,r,2,024,001,2021-04-23_17h57.56.076,searchDisc4,2020.2.10,Win32,60,,,,space,0.309625,2,1,0.52359,,0,27,27,84,1,1a,84,2,9,
,,,,,,,,,,,,,,,,,,,,,,,,,images/exp2c_trial_30_colour3_distractors1_l.png,l,1,024,001,2021-04-23_17h57.56.076,searchDisc4,2020.2.10,Win32,60,,,,space,0.31898,1,1,0.955235,,0,28,28,486,1,2c,30,3,1,
,,,,,,,,,,,,,,,,,,,,,,,,,images/exp2b_trial_87_colour2_distractors43_r.png,r,2,024,001,2021-04-23_17h57.56.076,searchDisc4,2020.2.10,Win32,60,,,,space,0.24428,2,1,0.83184,,0,29,29,429,1,2b,87,2,43,
,,,,,,,,,,,,,,,,,,,,,,,,,images/exp1a_trial_94_colour1_distractors1_l.png,l,1,024,001,2021-04-23_17h57.56.076,searchDisc4,2020.2.10,Win32,60,,,,space,0.299855,1,1,0.974015,,0,30,30,94,1,1a,94,1,1,
,,,,,,,,,,,,,,,,,,,,,,,,,images/exp2b_trial_69_colour3_distractors4_l.png,l,1,024,001,2021-04-23_17h57.56.076,searchDisc4,2020.2.10,Win32,60,,,,space,0.226945,1,1,0.906585,,0,31,31,411,1,2b,69,3,4,
,,,,,,,,,,,,,,,,,,,,,,,,,images/exp2a_trial_21_colour1_distractors19_l.png,l,1,024,001,2021-04-23_17h57.56.076,searchDisc4,2020.2.10,Win32,60,,,,space,0.24855,1,1,0.891495,,0,32,32,249,1,2a,21,1,19,
,,,,,,,,,,,,,,,,,,,,,,,,,images/exp2a_trial_10_colour2_distractors31_r.png,r,2,024,001,2021-04-23_17h57.56.076,searchDisc4,2020.2.10,Win32,60,,,,space,0.229845,2,1,0.71696,,0,33,33,238,1,2a,10,2,31,
,,,,,,,,,,,,,,,,,,,,,,,,,images/exp1b_trial_110_colour3_distractors31_l.png,l,1,024,001,2021-04-23_17h57.56.076,searchDisc4,2020.2.10,Win32,60,,,,space,0.31874,1,1,3.003025,,0,34,34,224,1,1b,110,3,31,
,,,,,,,,,,,,,,,,,,,,,,,,,images/exp1a_trial_83_colour2_distractors4_r.png,r,2,024,001,2021-04-23_17h57.56.076,searchDisc4,2020.2.10,Win32,60,,,,space,0.287015,2,1,0.819175,,0,35,35,83,1,1a,83,2,4,
,,,,,,,,,,,,,,,,,,,,,,,,,images/exp2a_trial_37_colour0_distractors0_l.png,l,1,024,001,2021-04-23_17h57.56.076,searchDisc4,2020.2.10,Win32,60,,,,space,0.23441,1,1,0.58538,,0,36,36,265,1,2a,37,0,0,
,,,,,,,,,,,,,,,,,,,,,,,,,images/exp2a_trial_28_colour2_distractors31_l.png,l,1,024,001,2021-04-23_17h57.56.076,searchDisc4,2020.2.10,Win32,60,,,,space,0.289745,1,1,0.65072,,0,37,37,256,1,2a,28,2,31,
,,,,,,,,,,,,,,,,,,,,,,,,,images/exp1b_trial_20_colour1_distractors9_l.png,l,1,024,001,2021-04-23_17h57.56.076,searchDisc4,2020.2.10,Win32,60,,,,space,0.285365,1,1,0.74051,,0,38,38,134,1,1b,20,1,9,
,,,,,,,,,,,,,,,,,,,,,,,,,images/exp1a_trial_57_colour1_distractors4_l.png,l,1,024,001,2021-04-23_17h57.56.076,searchDisc4,2020.2.10,Win32,60,,,,space,0.252805,1,1,0.68033,,0,39,39,57,1,1a,57,1,4,
,,,,,,,,,,,,,,,,,,,,,,,,,images/exp1a_trial_39_colour1_distractors4_r.png,r,2,024,001,2021-04-23_17h57.56.076,searchDisc4,2020.2.10,Win32,60,,,,space,0.336515,2,1,0.69851,,0,40,40,39,1,1a,39,1,4,
,,,,,,,,,,,,,,,,,,,,,,,,,images/exp2b_trial_24_colour2_distractors1_l.png,l,1,024,001,2021-04-23_17h57.56.076,searchDisc4,2020.2.10,Win32,60,,,,space,0.29156,1,1,0.777025,,0,41,41,366,1,2b,24,2,1,
,,,,,,,,,,,,,,,,,,,,,,,,,images/exp1b_trial_74_colour0_distractors0_r.png,r,2,024,001,2021-04-23_17h57.56.076,searchDisc4,2020.2.10,Win32,60,,,,space,0.227825,2,1,0.77818,,0,42,42,188,1,1b,74,0,0,
,,,,,,,,,,,,,,,,,,,,,,,,,images/exp2b_trial_76_colour1_distractors1_r.png,r,2,024,001,2021-04-23_17h57.56.076,searchDisc4,2020.2.10,Win32,60,,,,space,0.21899,2,1,0.64425,,0,43,43,418,1,2b,76,1,1,
,,,,,,,,,,,,,,,,,,,,,,,,,images/exp2b_trial_60_colour1_distractors31_l.png,l,1,024,001,2021-04-23_17h57.56.076,searchDisc4,2020.2.10,Win32,60,,,,space,0.157335,1,1,0.617335,,0,44,44,402,1,2b,60,1,31,
,,,,,,,,,,,,,,,,,,,,,,,,,images/exp2a_trial_61_colour1_distractors43_l.png,l,1,024,001,2021-04-23_17h57.56.076,searchDisc4,2020.2.10,Win32,60,,,,space,0.16351,1,1,0.549845,,0,45,45,289,1,2a,61,1,43,
,,,,,,,,,,,,,,,,,,,,,,,,,images/exp2b_trial_79_colour1_distractors19_r.png,r,2,024,001,2021-04-23_17h57.56.076,searchDisc4,2020.2.10,Win32,60,,,,space,0.17769,2,1,1.514945,,0,46,46,421,1,2b,79,1,19,
,,,,,,,,,,,,,,,,,,,,,,,,,images/exp2b_trial_49_colour2_distractors43_r.png,r,2,024,001,2021-04-23_17h57.56.076,searchDisc4,2020.2.10,Win32,60,,,,space,0.396035,2,1,1.147545,,0,47,47,391,1,2b,49,2,43,
,,,,,,,,,,,,,,,,,,,,,,,,,images/exp2c_trial_45_colour2_distractors4_r.png,r,2,024,001,2021-04-23_17h57.56.076,searchDisc4,2020.2.10,Win32,60,,,,space,0.463855,2,1,0.980855,,0,48,48,501,1,2c,45,2,4,
,,,,,,,,,,,,,,,,,,,,,,,,,images/exp1a_trial_18_colour1_distractors1_l.png,l,1,024,001,2021-04-23_17h57.56.076,searchDisc4,2020.2.10,Win32,60,,,,space,0.316095,1,1,0.69574,,0,49,49,18,1,1a,18,1,1,
,,,,,,,,,,,,,,,,,,,,,,,,,images/exp1a_trial_36_colour0_distractors0_r.png,r,2,024,001,2021-04-23_17h57.56.076,searchDisc4,2020.2.10,Win32,60,,,,space,0.196905,2,1,0.82178,,0,50,50,36,1,1a,36,0,0,
,,,,,,,,,,,,,,,,,,,,,,,,,images/exp2b_trial_23_colour1_distractors43_l.png,l,1,024,001,2021-04-23_17h57.56.076,searchDisc4,2020.2.10,Win32,60,,,,space,0.19469,1,1,0.57279,,0,51,51,365,1,2b,23,1,43,
,,,,,,,,,,,,,,,,,,,,,,,,,images/exp2c_trial_11_colour2_distractors43_r.png,r,2,024,001,2021-04-23_17h57.56.076,searchDisc4,2020.2.10,Win32,60,,,,space,0.159915,2,1,0.875975,,0,52,52,467,1,2c,11,2,43,
,,,,,,,,,,,,,,,,,,,,,,,,,images/exp2b_trial_78_colour1_distractors9_r.png,r,2,024,001,2021-04-23_17h57.56.076,searchDisc4,2020.2.10,Win32,60,,,,space,0.18007,2,1,0.745655,,0,53,53,420,1,2b,78,1,9,
,,,,,,,,,,,,,,,,,,,,,,,,,images/exp1a_trial_27_colour2_distractors19_l.png,l,1,024,001,2021-04-23_17h57.56.076,searchDisc4,2020.2.10,Win32,60,,,,space,0.16874,1,1,0.766745,,0,54,54,27,1,1a,27,2,19,
,,,,,,,,,,,,,,,,,,,,,,,,,images/exp2b_trial_94_colour1_distractors1_l.png,l,1,024,001,2021-04-23_17h57.56.076,searchDisc4,2020.2.10,Win32,60,,,,space,0.135935,1,1,0.829675,,0,55,55,436,1,2b,94,1,1,
,,,,,,,,,,,,,,,,,,,,,,,,,images/exp1b_trial_66_colour2_distractors31_l.png,l,1,024,001,2021-04-23_17h57.56.076,searchDisc4,2020.2.10,Win32,60,,,,space,0.13352,1,1,1.24367,,0,56,56,180,1,1b,66,2,31,
,,,,,,,,,,,,,,,,,,,,,,,,,images/exp1a_trial_0_colour1_distractors1_r.png,r,2,024,001,2021-04-23_17h57.56.076,searchDisc4,2020.2.10,Win32,60,,,,space,0.151495,2,1,0.99056,,0,57,57,0,1,1a,0,1,1,
,,,,,,,,,,,,,,,,,,,,,,,,,images/exp2b_trial_6_colour2_distractors1_r.png,r,2,024,001,2021-04-23_17h57.56.076,searchDisc4,2020.2.10,Win32,60,,,,space,0.17811,2,1,0.617545,,0,58,58,348,1,2b,6,2,1,
,,,,,,,,,,,,,,,,,,,,,,,,,images/exp1a_trial_37_colour0_distractors0_l.png,l,1,024,001,2021-04-23_17h57.56.076,searchDisc4,2020.2.10,Win32,60,,,,space,0.17774,1,1,0.668875,space,0,59,59,37,1,1a,37,0,0,0.153225
,,,,,,,,,,,,,,,,,,,,,,,,,images/exp2c_trial_82_colour2_distractors1_r.png,r,2,024,001,2021-04-23_17h57.56.076,searchDisc4,2020.2.10,Win32,60,,,,space,1.41493,2,1,0.80727,,0,60,60,538,1,2c,82,2,1,
,,,,,,,,,,,,,,,,,,,,,,,,,images/exp2c_trial_53_colour3_distractors19_r.png,r,2,024,001,2021-04-23_17h57.56.076,searchDisc4,2020.2.10,Win32,60,,,,space,0.236165,2,1,0.74482,,0,61,61,509,1,2c,53,3,19,
,,,,,,,,,,,,,,,,,,,,,,,,,images/exp1b_trial_53_colour3_distractors19_r.png,r,2,024,001,2021-04-23_17h57.56.076,searchDisc4,2020.2.10,Win32,60,,,,space,0.147765,2,1,1.221435,,0,62,62,167,1,1b,53,3,19,
,,,,,,,,,,,,,,,,,,,,,,,,,images/exp2a_trial_79_colour1_distractors19_r.png,r,2,024,001,2021-04-23_17h57.56.076,searchDisc4,2020.2.10,Win32,60,,,,space,0.16054,2,1,0.94424,,0,63,63,307,1,2a,79,1,19,
,,,,,,,,,,,,,,,,,,,,,,,,,images/exp1a_trial_77_colour1_distractors4_r.png,r,2,024,001,2021-04-23_17h57.56.076,searchDisc4,2020.2.10,Win32,60,,,,space,0.21881,2,1,0.84321,,0,64,64,77,1,1a,77,1,4,
,,,,,,,,,,,,,,,,,,,,,,,,,images/exp2c_trial_39_colour1_distractors4_r.png,r,2,024,001,2021-04-23_17h57.56.076,searchDisc4,2020.2.10,Win32,60,,,,space,0.192825,2,1,0.553915,,0,65,65,495,1,2c,39,1,4,
,,,,,,,,,,,,,,,,,,,,,,,,,images/exp1b_trial_16_colour3_distractors31_r.png,r,2,024,001,2021-04-23_17h57.56.076,searchDisc4,2020.2.10,Win32,60,,,,space,0.16412,2,1,1.62295,,0,66,66,130,1,1b,16,3,31,
,,,,,,,,,,,,,,,,,,,,,,,,,images/exp1b_trial_57_colour1_distractors4_l.png,l,1,024,001,2021-04-23_17h57.56.076,searchDisc4,2020.2.10,Win32,60,,,,space,0.151275,1,1,0.9482,,0,67,67,171,1,1b,57,1,4,
,,,,,,,,,,,,,,,,,,,,,,,,,images/exp2c_trial_77_colour1_distractors4_r.png,r,2,024,001,2021-04-23_17h57.56.076,searchDisc4,2020.2.10,Win32,60,,,,space,0.13154,2,1,0.9662,,0,68,68,533,1,2c,77,1,4,
,,,,,,,,,,,,,,,,,,,,,,,,,images/exp2c_trial_37_colour0_distractors0_l.png,l,1,024,001,2021-04-23_17h57.56.076,searchDisc4,2020.2.10,Win32,60,,,,space,0.15133,1,1,0.71896,,0,69,69,493,1,2c,37,0,0,
,,,,,,,,,,,,,,,,,,,,,,,,,images/exp2b_trial_43_colour1_distractors43_r.png,r,2,024,001,2021-04-23_17h57.56.076,searchDisc4,2020.2.10,Win32,60,,,,space,0.13343,2,1,0.740975,,0,70,70,385,1,2b,43,1,43,
,,,,,,,,,,,,,,,,,,,,,,,,,images/exp1a_trial_64_colour2_distractors9_l.png,l,1,024,001,2021-04-23_17h57.56.076,searchDisc4,2020.2.10,Win32,60,,,,space,0.15151,1,1,0.97673,,0,71,71,64,1,1a,64,2,9,
,,,,,,,,,,,,,,,,,,,,,,,,,images/exp2b_trial_8_colour2_distractors9_r.png,r,2,024,001,2021-04-23_17h57.56.076,searchDisc4,2020.2.10,Win32,60,,,,space,0.11932,2,1,0.775615,,0,72,72,350,1,2b,8,2,9,
,,,,,,,,,,,,,,,,,,,,,,,,,images/exp2b_trial_12_colour3_distractors1_r.png,r,2,024,001,2021-04-23_17h57.56.076,searchDisc4,2020.2.10,Win32,60,,,,space,0.145765,2,1,0.697035,,0,73,73,354,1,2b,12,3,1,
,,,,,,,,,,,,,,,,,,,,,,,,,images/exp2c_trial_50_colour3_distractors1_r.png,r,2,024,001,2021-04-23_17h57.56.076,searchDisc4,2020.2.10,Win32,60,,,,space,0.119565,2,1,0.56072,,0,74,74,506,1,2c,50,3,1,
,,,,,,,,,,,,,,,,,,,,,,,,,images/exp1a_trial_2_colour1_distractors9_r.png,r,2,024,001,2021-04-23_17h57.56.076,searchDisc4,2020.2.10,Win32,60,,,,space,0.16159,2,1,0.61873,,0,75,75,2,1,1a,2,1,9,
,,,,,,,,,,,,,,,,,,,,,,,,,images/exp2c_trial_84_colour2_distractors9_r.png,r,2,024,001,2021-04-23_17h57.56.076,searchDisc4,2020.2.10,Win32,60,,,,space,0.128805,2,1,1.134015,,0,76,76,540,1,2c,84,2,9,
,,,,,,,,,,,,,,,,,,,,,,,,,images/exp2a_trial_0_colour1_distractors1_r.png,r,2,024,001,2021-04-23_17h57.56.076,searchDisc4,2020.2.10,Win32,60,,,,space,0.1121,2,1,0.695305,,0,77,77,228,1,2a,0,1,1,
,,,,,,,,,,,,,,,,,,,,,,,,,images/exp2c_trial_54_colour3_distractors31_r.png,r,2,024,001,2021-04-23_17h57.56.076,searchDisc4,2020.2.10,Win32,60,,,,space,0.13275,2,1,1.052805,,0,78,78,510,1,2c,54,3,31,
,,,,,,,,,,,,,,,,,,,,,,,,,images/exp2c_trial_81_colour1_distractors43_r.png,r,2,024,001,2021-04-23_17h57.56.076,searchDisc4,2020.2.10,Win32,60,,,,space,0.325945,2,1,0.70808,,0,79,79,537,1,2c,81,1,43,
,,,,,,,,,,,,,,,,,,,,,,,,,images/exp1b_trial_34_colour3_distractors31_l.png,l,1,024,001,2021-04-23_17h57.56.076,searchDisc4,2020.2.10,Win32,60,,,,space,0.218315,1,1,0.935025,,0,80,80,148,1,1b,34,3,31,
,,,,,,,,,,,,,,,,,,,,,,,,,images/exp2c_trial_17_colour3_distractors43_r.png,r,2,024,001,2021-04-23_17h57.56.076,searchDisc4,2020.2.10,Win32,60,,,,space,0.146815,2,1,0.599705,,0,81,81,473,1,2c,17,3,43,
,,,,,,,,,,,,,,,,,,,,,,,,,images/exp1a_trial_41_colour1_distractors19_r.png,r,2,024,001,2021-04-23_17h57.56.076,searchDisc4,2020.2.10,Win32,60,,,,space,0.743735,2,1,0.654005,,0,82,82,41,1,1a,41,1,19,
,,,,,,,,,,,,,,,,,,,,,,,,,images/exp2a_trial_40_colour1_distractors9_r.png,r,2,024,001,2021-04-23_17h57.56.076,searchDisc4,2020.2.10,Win32,60,,,,space,0.24477,2,1,0.843435,,0,83,83,268,1,2a,40,1,9,
,,,,,,,,,,,,,,,,,,,,,,,,,images/exp1b_trial_63_colour2_distractors4_l.png,l,1,024,001,2021-04-23_17h57.56.076,searchDisc4,2020.2.10,Win32,60,,,,space,0.150185,1,1,1.083915,,0,84,84,177,1,1b,63,2,4,
,,,,,,,,,,,,,,,,,,,,,,,,,images/exp1b_trial_97_colour1_distractors19_l.png,l,1,024,001,2021-04-23_17h57.56.076,searchDisc4,2020.2.10,Win32,60,,,,space,0.220075,1,1,0.89369,,0,85,85,211,1,1b,97,1,19,
,,,,,,,,,,,,,,,,,,,,,,,,,images/exp1b_trial_79_colour1_distractors19_r.png,r,2,024,001,2021-04-23_17h57.56.076,searchDisc4,2020.2.10,Win32,60,,,,space,0.242185,2,1,0.79214,,0,86,86,193,1,1b,79,1,19,
,,,,,,,,,,,,,,,,,,,,,,,,,images/exp2a_trial_84_colour2_distractors9_r.png,r,2,024,001,2021-04-23_17h57.56.076,searchDisc4,2020.2.10,Win32,60,,,,space,0.218205,2,1,0.689365,,0,87,87,312,1,2a,84,2,9,
,,,,,,,,,,,,,,,,,,,,,,,,,images/exp2c_trial_41_colour1_distractors19_r.png,r,2,024,001,2021-04-23_17h57.56.076,searchDisc4,2020.2.10,Win32,60,,,,space,0.23621,2,1,0.613835,,0,88,88,497,1,2c,41,1,19,
,,,,,,,,,,,,,,,,,,,,,,,,,images/exp1b_trial_86_colour2_distractors31_r.png,r,2,024,001,2021-04-23_17h57.56.076,searchDisc4,2020.2.10,Win32,60,,,,space,0.268875,2,1,1.59801,,0,89,89,200,1,1b,86,2,31,
,,,,,,,,,,,,,,,,,,,,,,,,,images/exp2b_trial_74_colour0_distractors0_r.png,r,2,024,001,2021-04-23_17h57.56.076,searchDisc4,2020.2.10,Win32,60,,,,space,0.23602,2,1,0.724305,,0,90,90,416,1,2b,74,0,0,
,,,,,,,,,,,,,,,,,,,,,,,,,images/exp2a_trial_92_colour3_distractors31_r.png,r,2,024,001,2021-04-23_17h57.56.076,searchDisc4,2020.2.10,Win32,60,,,,space,0.210205,2,1,0.72115,,0,91,91,320,1,2a,92,3,31,
,,,,,,,,,,,,,,,,,,,,,,,,,images/exp1b_trial_15_colour3_distractors19_r.png,r,2,024,001,2021-04-23_17h57.56.076,searchDisc4,2020.2.10,Win32,60,,,,space,0.168685,2,1,0.889745,,0,92,92,129,1,1b,15,3,19,
,,,,,,,,,,,,,,,,,,,,,,,,,images/exp2b_trial_38_colour1_distractors1_r.png,r,2,024,001,2021-04-23_17h57.56.076,searchDisc4,2020.2.10,Win32,60,,,,space,0.184985,2,1,0.633115,,0,93,93,380,1,2b,38,1,1,
,,,,,,,,,,,,,,,,,,,,,,,,,images/exp1b_trial_37_colour0_distractors0_l.png,l,1,024,001,2021-04-23_17h57.56.076,searchDisc4,2020.2.10,Win32,60,,,,space,0.17062,1,1,0.578515,,0,94,94,151,1,1b,37,0,0,
,,,,,,,,,,,,,,,,,,,,,,,,,images/exp1a_trial_93_colour3_distractors43_r.png,r,2,024,001,2021-04-23_17h57.56.076,searchDisc4,2020.2.10,Win32,60,,,,space,0.14992,2,1,0.714155,,0,95,95,93,1,1a,93,3,43,
,,,,,,,,,,,,,,,,,,,,,,,,,images/exp2a_trial_11_colour2_distractors43_r.png,r,2,024,001,2021-04-23_17h57.56.076,searchDisc4,2020.2.10,Win32,60,,,,space,0.16853,2,1,0.678975,,0,96,96,239,1,2a,11,2,43,
,,,,,,,,,,,,,,,,,,,,,,,,,images/exp2c_trial_14_colour3_distractors9_r.png,r,2,024,001,2021-04-23_17h57.56.076,searchDisc4,2020.2.10,Win32,60,,,,space,0.18977,2,1,0.571285,,0,97,97,470,1,2c,14,3,9,
,,,,,,,,,,,,,,,,,,,,,,,,,images/exp2a_trial_36_colour0_distractors0_r.png,r,2,024,001,2021-04-23_17h57.56.076,searchDisc4,2020.2.10,Win32,60,,,,space,0.296935,2,1,0.65382,,0,98,98,264,1,2a,36,0,0,
,,,,,,,,,,,,,,,,,,,,,,,,,images/exp1b_trial_24_colour2_distractors1_l.png,l,1,024,001,2021-04-23_17h57.56.076,searchDisc4,2020.2.10,Win32,60,,,,space,0.15156,1,1,0.85321,,0,99,99,138,1,1b,24,2,1,
,,,,,,,,,,,,,,,,,,,,,,,,,images/exp2a_trial_50_colour3_distractors1_r.png,r,2,024,001,2021-04-23_17h57.56.076,searchDisc4,2020.2.10,Win32,60,,,,space,0.14464,2,1,0.773175,,0,100,100,278,1,2a,50,3,1,
,,,,,,,,,,,,,,,,,,,,,,,,,images/exp2c_trial_16_colour3_distractors31_r.png,r,2,024,001,2021-04-23_17h57.56.076,searchDisc4,2020.2.10,Win32,60,,,,space,0.18382,2,1,0.95493,,0,101,101,472,1,2c,16,3,31,
,,,,,,,,,,,,,,,,,,,,,,,,,images/exp1b_trial_104_colour2_distractors31_l.png,l,1,024,001,2021-04-23_17h57.56.076,searchDisc4,2020.2.10,Win32,60,,,,space,0.16107,1,1,1.511075,,0,102,102,218,1,1b,104,2,31,
,,,,,,,,,,,,,,,,,,,,,,,,,images/exp2b_trial_88_colour3_distractors1_r.png,r,2,024,001,2021-04-23_17h57.56.076,searchDisc4,2020.2.10,Win32,60,,,,space,0.13501,2,1,0.86376,,0,103,103,430,1,2b,88,3,1,
,,,,,,,,,,,,,,,,,,,,,,,,,images/exp1b_trial_77_colour1_distractors4_r.png,r,2,024,001,2021-04-23_17h57.56.076,searchDisc4,2020.2.10,Win32,60,,,,space,0.178055,2,1,0.81853,,0,104,104,191,1,1b,77,1,4,
,,,,,,,,,,,,,,,,,,,,,,,,,images/exp2b_trial_5_colour1_distractors43_r.png,r,2,024,001,2021-04-23_17h57.56.076,searchDisc4,2020.2.10,Win32,60,,,,space,0.166415,2,1,0.766085,,0,105,105,347,1,2b,5,1,43,
,,,,,,,,,,,,,,,,,,,,,,,,,images/exp1b_trial_28_colour2_distractors31_l.png,l,1,024,001,2021-04-23_17h57.56.076,searchDisc4,2020.2.10,Win32,60,,,,space,0.129535,1,1,1.170085,,0,106,106,142,1,1b,28,2,31,
,,,,,,,,,,,,,,,,,,,,,,,,,images/exp1a_trial_108_colour3_distractors9_l.png,l,1,024,001,2021-04-23_17h57.56.076,searchDisc4,2020.2.10,Win32,60,,,,space,0.13056,1,1,0.743785,,0,107,107,108,1,1a,108,3,9,
,,,,,,,,,,,,,,,,,,,,,,,,,images/exp2b_trial_21_colour1_distractors19_l.png,l,1,024,001,2021-04-23_17h57.56.076,searchDisc4,2020.2.10,Win32,60,,,,space,0.384355,1,1,0.730495,,0,108,108,363,1,2b,21,1,19,
,,,,,,,,,,,,,,,,,,,,,,,,,images/exp1a_trial_66_colour2_distractors31_l.png,l,1,024,001,2021-04-23_17h57.56.076,searchDisc4,2020.2.10,Win32,60,,,,space,0.152735,1,1,0.833835,,0,109,109,66,1,1a,66,2,31,
,,,,,,,,,,,,,,,,,,,,,,,,,images/exp1b_trial_11_colour2_distractors43_r.png,r,2,024,001,2021-04-23_17h57.56.076,searchDisc4,2020.2.10,Win32,60,,,,space,0.11765,2,1,0.93554,,0,110,110,125,1,1b,11,2,43,
,,,,,,,,,,,,,,,,,,,,,,,,,images/exp1a_trial_78_colour1_distractors9_r.png,r,2,024,001,2021-04-23_17h57.56.076,searchDisc4,2020.2.10,Win32,60,,,,space,0.162205,2,1,0.841275,,0,111,111,78,1,1a,78,1,9,
,,,,,,,,,,,,,,,,,,,,,,,,,images/exp2a_trial_51_colour3_distractors4_r.png,r,2,024,001,2021-04-23_17h57.56.076,searchDisc4,2020.2.10,Win32,60,,,,space,0.168895,2,1,0.60388,,0,112,112,279,1,2a,51,3,4,
,,,,,,,,,,,,,,,,,,,,,,,,,images/exp2c_trial_99_colour1_distractors43_l.png,l,1,024,001,2021-04-23_17h57.56.076,searchDisc4,2020.2.10,Win32,60,,,,space,0.237195,1,1,0.643555,,0,113,113,555,1,2c,99,1,43,
,,,,,,,,,,,,,,,,,,,,,,,,,images/exp1a_trial_3_colour1_distractors19_r.png,r,2,024,001,2021-04-23_17h57.56.076,searchDisc4,2020.2.10,Win32,60,,,,space,0.19322,1,0,0.554645,,0,114,114,3,1,1a,3,1,19,
,,,,,,,,,,,,,,,,,,,,,,,,,images/exp1b_trial_12_colour3_distractors1_r.png,r,2,024,001,2021-04-23_17h57.56.076,searchDisc4,2020.2.10,Win32,60,,,,space,0.65158,2,1,0.72216,,0,115,115,126,1,1b,12,3,1,
,,,,,,,,,,,,,,,,,,,,,,,,,images/exp2a_trial_22_colour1_distractors31_l.png,l,1,024,001,2021-04-23_17h57.56.076,searchDisc4,2020.2.10,Win32,60,,,,space,0.214815,1,1,0.86042,,0,116,116,250,1,2a,22,1,31,
,,,,,,,,,,,,,,,,,,,,,,,,,images/exp2b_trial_68_colour3_distractors1_l.png,l,1,024,001,2021-04-23_17h57.56.076,searchDisc4,2020.2.10,Win32,60,,,,space,0.130005,1,1,0.727625,,0,117,117,410,1,2b,68,3,1,
,,,,,,,,,,,,,,,,,,,,,,,,,images/exp2c_trial_42_colour1_distractors31_r.png,r,2,024,001,2021-04-23_17h57.56.076,searchDisc4,2020.2.10,Win32,60,,,,space,0.196265,2,1,0.7129,,0,118,118,498,1,2c,42,1,31,
,,,,,,,,,,,,,,,,,,,,,,,,,images/exp2b_trial_16_colour3_distractors31_r.png,r,2,024,001,2021-04-23_17h57.56.076,searchDisc4,2020.2.10,Win32,60,,,,space,0.16872,2,1,1.4396,space,0,119,119,358,1,2b,16,3,31,0.105905
,,,,,,,,,,,,,,,,,,,,,,,,,images/exp2b_trial_35_colour3_distractors43_l.png,l,1,024,001,2021-04-23_17h57.56.076,searchDisc4,2020.2.10,Win32,60,,,,space,1.2486,1,1,0.609035,,0,120,120,377,1,2b,35,3,43,
,,,,,,,,,,,,,,,,,,,,,,,,,images/exp2a_trial_58_colour1_distractors9_l.png,l,1,024,001,2021-04-23_17h57.56.076,searchDisc4,2020.2.10,Win32,60,,,,space,0.142665,1,1,0.80083,,0,121,121,286,1,2a,58,1,9,
,,,,,,,,,,,,,,,,,,,,,,,,,images/exp2a_trial_86_colour2_distractors31_r.png,r,2,024,001,2021-04-23_17h57.56.076,searchDisc4,2020.2.10,Win32,60,,,,space,0.15342,2,1,0.660265,,0,122,122,314,1,2a,86,2,31,
,,,,,,,,,,,,,,,,,,,,,,,,,images/exp1b_trial_47_colour2_distractors19_r.png,r,2,024,001,2021-04-23_17h57.56.076,searchDisc4,2020.2.10,Win32,60,,,,space,0.17934,2,1,1.01439,,0,123,123,161,1,1b,47,2,19,
,,,,,,,,,,,,,,,,,,,,,,,,,images/exp2a_trial_76_colour1_distractors1_r.png,r,2,024,001,2021-04-23_17h57.56.076,searchDisc4,2020.2.10,Win32,60,,,,space,0.1472,2,1,0.78622,,0,124,124,304,1,2a,76,1,1,
,,,,,,,,,,,,,,,,,,,,,,,,,images/exp2a_trial_91_colour3_distractors19_r.png,r,2,024,001,2021-04-23_17h57.56.076,searchDisc4,2020.2.10,Win32,60,,,,space,0.119135,2,1,0.759325,,0,125,125,319,1,2a,91,3,19,
,,,,,,,,,,,,,,,,,,,,,,,,,images/exp2a_trial_2_colour1_distractors9_r.png,r,2,024,001,2021-04-23_17h57.56.076,searchDisc4,2020.2.10,Win32,60,,,,space,0.152875,2,1,1.041765,,0,126,126,230,1,2a,2,1,9,
,,,,,,,,,,,,,,,,,,,,,,,,,images/exp2b_trial_63_colour2_distractors4_l.png,l,1,024,001,2021-04-23_17h57.56.076,searchDisc4,2020.2.10,Win32,60,,,,space,0.655605,1,1,0.684635,,0,127,127,405,1,2b,63,2,4,
,,,,,,,,,,,,,,,,,,,,,,,,,images/exp2b_trial_70_colour3_distractors9_l.png,l,1,024,001,2021-04-23_17h57.56.076,searchDisc4,2020.2.10,Win32,60,,,,space,0.20687,1,1,0.99199,,0,128,128,412,1,2b,70,3,9,
,,,,,,,,,,,,,,,,,,,,,,,,,images/exp2a_trial_98_colour1_distractors31_l.png,l,1,024,001,2021-04-23_17h57.56.076,searchDisc4,2020.2.10,Win32,60,,,,space,0.12542,1,1,0.8965,,0,129,129,326,1,2a,98,1,31,
,,,,,,,,,,,,,,,,,,,,,,,,,images/exp1a_trial_1_colour1_distractors4_r.png,r,2,024,001,2021-04-23_17h57.56.076,searchDisc4,2020.2.10,Win32,60,,,,space,0.13683,2,1,0.59606,,0,130,130,1,1,1a,1,1,4,
,,,,,,,,,,,,,,,,,,,,,,,,,images/exp2a_trial_99_colour1_distractors43_l.png,l,1,024,001,2021-04-23_17h57.56.076,searchDisc4,2020.2.10,Win32,60,,,,space,0.13519,1,1,0.92021,,0,131,131,327,1,2a,99,1,43,
,,,,,,,,,,,,,,,,,,,,,,,,,images/exp2a_trial_80_colour1_distractors31_r.png,r,2,024,001,2021-04-23_17h57.56.076,searchDisc4,2020.2.10,Win32,60,,,,space,0.192515,2,1,0.690705,,0,132,132,308,1,2a,80,1,31,
,,,,,,,,,,,,,,,,,,,,,,,,,images/exp1a_trial_63_colour2_distractors4_l.png,l,1,024,001,2021-04-23_17h57.56.076,searchDisc4,2020.2.10,Win32,60,,,,space,0.169165,1,1,0.902395,,0,133,133,63,1,1a,63,2,4,
,,,,,,,,,,,,,,,,,,,,,,,,,images/exp2b_trial_109_colour3_distractors19_l.png,l,1,024,001,2021-04-23_17h57.56.076,searchDisc4,2020.2.10,Win32,60,,,,space,0.13587,1,1,0.64589,,0,134,134,451,1,2b,109,3,19,
,,,,,,,,,,,,,,,,,,,,,,,,,images/exp2a_trial_27_colour2_distractors19_l.png,l,1,024,001,2021-04-23_17h57.56.076,searchDisc4,2020.2.10,Win32,60,,,,space,0.126975,1,1,0.605295,,0,135,135,255,1,2a,27,2,19,
,,,,,,,,,,,,,,,,,,,,,,,,,images/exp1b_trial_60_colour1_distractors31_l.png,l,1,024,001,2021-04-23_17h57.56.076,searchDisc4,2020.2.10,Win32,60,,,,space,0.147775,1,1,0.59452,,0,136,136,174,1,1b,60,1,31,
,,,,,,,,,,,,,,,,,,,,,,,,,images/exp1a_trial_89_colour3_distractors4_r.png,r,2,024,001,2021-04-23_17h57.56.076,searchDisc4,2020.2.10,Win32,60,,,,space,0.11913,1,0,0.605395,,0,137,137,89,1,1a,89,3,4,
,,,,,,,,,,,,,,,,,,,,,,,,,images/exp2a_trial_97_colour1_distractors19_l.png,l,1,024,001,2021-04-23_17h57.56.076,searchDisc4,2020.2.10,Win32,60,,,,space,0.6848,1,1,0.72706,,0,138,138,325,1,2a,97,1,19,
,,,,,,,,,,,,,,,,,,,,,,,,,images/exp1b_trial_29_colour2_distractors43_l.png,l,1,024,001,2021-04-23_17h57.56.076,searchDisc4,2020.2.10,Win32,60,,,,space,0.16642,1,1,1.672085,,0,139,139,143,1,1b,29,2,43,
,,,,,,,,,,,,,,,,,,,,,,,,,images/exp2c_trial_19_colour1_distractors4_l.png,l,1,024,001,2021-04-23_17h57.56.076,searchDisc4,2020.2.10,Win32,60,,,,space,0.164095,1,1,0.62478,,0,140,140,475,1,2c,19,1,4,
,,,,,,,,,,,,,,,,,,,,,,,,,images/exp2b_trial_9_colour2_distractors19_r.png,r,2,024,001,2021-04-23_17h57.56.076,searchDisc4,2020.2.10,Win32,60,,,,space,0.151645,2,1,0.7686,,0,141,141,351,1,2b,9,2,19,
,,,,,,,,,,,,,,,,,,,,,,,,,images/exp1b_trial_65_colour2_distractors19_l.png,l,1,024,001,2021-04-23_17h57.56.076,searchDisc4,2020.2.10,Win32,60,,,,space,0.20899,1,1,0.65978,,0,142,142,179,1,1b,65,2,19,
,,,,,,,,,,,,,,,,,,,,,,,,,images/exp1a_trial_85_colour2_distractors19_r.png,r,2,024,001,2021-04-23_17h57.56.076,searchDisc4,2020.2.10,Win32,60,,,,space,0.362375,2,1,0.860885,,0,143,143,85,1,1a,85,2,19,
,,,,,,,,,,,,,,,,,,,,,,,,,images/exp1a_trial_50_colour3_distractors1_r.png,r,2,024,001,2021-04-23_17h57.56.076,searchDisc4,2020.2.10,Win32,60,,,,space,0.164385,2,1,1.00268,,0,144,144,50,1,1a,50,3,1,
,,,,,,,,,,,,,,,,,,,,,,,,,images/exp1a_trial_107_colour3_distractors4_l.png,l,1,024,001,2021-04-23_17h57.56.076,searchDisc4,2020.2.10,Win32,60,,,,space,0.14795,1,1,0.84841,,0,145,145,107,1,1a,107,3,4,
,,,,,,,,,,,,,,,,,,,,,,,,,images/exp1b_trial_10_colour2_distractors31_r.png,r,2,024,001,2021-04-23_17h57.56.076,searchDisc4,2020.2.10,Win32,60,,,,space,0.13546,2,1,0.908725,,0,146,146,124,1,1b,10,2,31,
,,,,,,,,,,,,,,,,,,,,,,,,,images/exp2a_trial_46_colour2_distractors9_r.png,r,2,024,001,2021-04-23_17h57.56.076,searchDisc4,2020.2.10,Win32,60,,,,space,0.132745,2,1,0.66086,,0,147,147,274,1,2a,46,2,9,
,,,,,,,,,,,,,,,,,,,,,,,,,images/exp2c_trial_70_colour3_distractors9_l.png,l,1,024,001,2021-04-23_17h57.56.076,searchDisc4,2020.2.10,Win32,60,,,,space,0.143225,1,1,0.629615,,0,148,148,526,1,2c,70,3,9,
,,,,,,,,,,,,,,,,,,,,,,,,,images/exp1a_trial_46_colour2_distractors9_r.png,r,2,024,001,2021-04-23_17h57.56.076,searchDisc4,2020.2.10,Win32,60,,,,space,0.16523,2,1,0.874695,,0,149,149,46,1,1a,46,2,9,
,,,,,,,,,,,,,,,,,,,,,,,,,images/exp2b_trial_57_colour1_distractors4_l.png,l,1,024,001,2021-04-23_17h57.56.076,searchDisc4,2020.2.10,Win32,60,,,,space,0.16802,1,1,0.604805,,0,150,150,399,1,2b,57,1,4,
,,,,,,,,,,,,,,,,,,,,,,,,,images/exp2c_trial_86_colour2_distractors31_r.png,r,2,024,001,2021-04-23_17h57.56.076,searchDisc4,2020.2.10,Win32,60,,,,space,0.3449,2,1,0.868385,,0,151,151,542,1,2c,86,2,31,
,,,,,,,,,,,,,,,,,,,,,,,,,images/exp1b_trial_92_colour3_distractors31_r.png,r,2,024,001,2021-04-23_17h57.56.076,searchDisc4,2020.2.10,Win32,60,,,,space,0.149915,2,1,1.109445,,0,152,152,206,1,1b,92,3,31,
,,,,,,,,,,,,,,,,,,,,,,,,,images/exp2c_trial_40_colour1_distractors9_r.png,r,2,024,001,2021-04-23_17h57.56.076,searchDisc4,2020.2.10,Win32,60,,,,space,0.251205,2,1,0.607435,,0,153,153,496,1,2c,40,1,9,
,,,,,,,,,,,,,,,,,,,,,,,,,images/exp2c_trial_85_colour2_distractors19_r.png,r,2,024,001,2021-04-23_17h57.56.076,searchDisc4,2020.2.10,Win32,60,,,,space,0.14928,2,1,1.243275,,0,154,154,541,1,2c,85,2,19,
,,,,,,,,,,,,,,,,,,,,,,,,,images/exp2b_trial_83_colour2_distractors4_r.png,r,2,024,001,2021-04-23_17h57.56.076,searchDisc4,2020.2.10,Win32,60,,,,space,0.135955,2,1,0.6838,,0,155,155,425,1,2b,83,2,4,
,,,,,,,,,,,,,,,,,,,,,,,,,images/exp2c_trial_95_colour1_distractors4_l.png,l,1,024,001,2021-04-23_17h57.56.076,searchDisc4,2020.2.10,Win32,60,,,,space,0.204155,1,1,0.69748,,0,156,156,551,1,2c,95,1,4,
,,,,,,,,,,,,,,,,,,,,,,,,,images/exp1a_trial_74_colour0_distractors0_r.png,r,2,024,001,2021-04-23_17h57.56.076,searchDisc4,2020.2.10,Win32,60,,,,space,0.160405,2,1,0.72632,,0,157,157,74,1,1a,74,0,0,
,,,,,,,,,,,,,,,,,,,,,,,,,images/exp2a_trial_29_colour2_distractors43_l.png,l,1,024,001,2021-04-23_17h57.56.076,searchDisc4,2020.2.10,Win32,60,,,,space,0.31447,1,1,0.666035,,0,158,158,257,1,2a,29,2,43,
,,,,,,,,,,,,,,,,,,,,,,,,,images/exp2c_trial_78_colour1_distractors9_r.png,r,2,024,001,2021-04-23_17h57.56.076,searchDisc4,2020.2.10,Win32,60,,,,space,0.185295,2,1,1.00562,,0,159,159,534,1,2c,78,1,9,
,,,,,,,,,,,,,,,,,,,,,,,,,images/exp2c_trial_105_colour2_distractors43_l.png,l,1,024,001,2021-04-23_17h57.56.076,searchDisc4,2020.2.10,Win32,60,,,,space,0.294995,1,1,1.165265,,0,160,160,561,1,2c,105,2,43,
,,,,,,,,,,,,,,,,,,,,,,,,,images/exp1b_trial_107_colour3_distractors4_l.png,l,1,024,001,2021-04-23_17h57.56.076,searchDisc4,2020.2.10,Win32,60,,,,space,0.184315,1,1,1.15895,,0,161,161,221,1,1b,107,3,4,
,,,,,,,,,,,,,,,,,,,,,,,,,images/exp1a_trial_28_colour2_distractors31_l.png,l,1,024,001,2021-04-23_17h57.56.076,searchDisc4,2020.2.10,Win32,60,,,,space,0.186185,1,1,0.823725,,0,162,162,28,1,1a,28,2,31,
,,,,,,,,,,,,,,,,,,,,,,,,,images/exp1a_trial_87_colour2_distractors43_r.png,r,2,024,001,2021-04-23_17h57.56.076,searchDisc4,2020.2.10,Win32,60,,,,space,0.18576,2,1,1.492315,,0,163,163,87,1,1a,87,2,43,
,,,,,,,,,,,,,,,,,,,,,,,,,images/exp2b_trial_101_colour2_distractors4_l.png,l,1,024,001,2021-04-23_17h57.56.076,searchDisc4,2020.2.10,Win32,60,,,,space,0.16839,1,1,0.80233,,0,164,164,443,1,2b,101,2,4,
,,,,,,,,,,,,,,,,,,,,,,,,,images/exp2b_trial_111_colour3_distractors43_l.png,l,1,024,001,2021-04-23_17h57.56.076,searchDisc4,2020.2.10,Win32,60,,,,space,0.18518,1,1,0.959915,,0,165,165,453,1,2b,111,3,43,
,,,,,,,,,,,,,,,,,,,,,,,,,images/exp2a_trial_108_colour3_distractors9_l.png,l,1,024,001,2021-04-23_17h57.56.076,searchDisc4,2020.2.10,Win32,60,,,,space,0.24384,1,1,0.508535,,0,166,166,336,1,2a,108,3,9,
,,,,,,,,,,,,,,,,,,,,,,,,,images/exp1b_trial_51_colour3_distractors4_r.png,r,2,024,001,2021-04-23_17h57.56.076,searchDisc4,2020.2.10,Win32,60,,,,space,0.592185,2,1,0.830765,,0,167,167,165,1,1b,51,3,4,
,,,,,,,,,,,,,,,,,,,,,,,,,images/exp1a_trial_81_colour1_distractors43_r.png,r,2,024,001,2021-04-23_17h57.56.076,searchDisc4,2020.2.10,Win32,60,,,,space,0.142475,2,1,0.667415,,0,168,168,81,1,1a,81,1,43,
,,,,,,,,,,,,,,,,,,,,,,,,,images/exp2c_trial_20_colour1_distractors9_l.png,l,1,024,001,2021-04-23_17h57.56.076,searchDisc4,2020.2.10,Win32,60,,,,space,0.144095,1,1,0.67461,,0,169,169,476,1,2c,20,1,9,
,,,,,,,,,,,,,,,,,,,,,,,,,images/exp1b_trial_59_colour1_distractors19_l.png,l,1,024,001,2021-04-23_17h57.56.076,searchDisc4,2020.2.10,Win32,60,,,,space,0.26175,1,1,0.79932,,0,170,170,173,1,1b,59,1,19,
,,,,,,,,,,,,,,,,,,,,,,,,,images/exp2b_trial_77_colour1_distractors4_r.png,r,2,024,001,2021-04-23_17h57.56.076,searchDisc4,2020.2.10,Win32,60,,,,space,0.15248,2,1,0.67026,,0,171,171,419,1,2b,77,1,4,
,,,,,,,,,,,,,,,,,,,,,,,,,images/exp2a_trial_100_colour2_distractors1_l.png,l,1,024,001,2021-04-23_17h57.56.076,searchDisc4,2020.2.10,Win32,60,,,,space,0.170845,1,1,0.53455,,0,172,172,328,1,2a,100,2,1,
,,,,,,,,,,,,,,,,,,,,,,,,,images/exp1a_trial_61_colour1_distractors43_l.png,l,1,024,001,2021-04-23_17h57.56.076,searchDisc4,2020.2.10,Win32,60,,,,space,0.11934,1,1,0.684915,,0,173,173,61,1,1a,61,1,43,
,,,,,,,,,,,,,,,,,,,,,,,,,images/exp2a_trial_42_colour1_distractors31_r.png,r,2,024,001,2021-04-23_17h57.56.076,searchDisc4,2020.2.10,Win32,60,,,,space,0.167815,2,1,0.763985,,0,174,174,270,1,2a,42,1,31,
,,,,,,,,,,,,,,,,,,,,,,,,,images/exp1b_trial_88_colour3_distractors1_r.png,r,2,024,001,2021-04-23_17h57.56.076,searchDisc4,2020.2.10,Win32,60,,,,space,0.16028,2,1,0.810955,,0,175,175,202,1,1b,88,3,1,
,,,,,,,,,,,,,,,,,,,,,,,,,images/exp2a_trial_64_colour2_distractors9_l.png,l,1,024,001,2021-04-23_17h57.56.076,searchDisc4,2020.2.10,Win32,60,,,,space,0.112205,1,1,0.797495,,0,176,176,292,1,2a,64,2,9,
,,,,,,,,,,,,,,,,,,,,,,,,,images/exp2b_trial_85_colour2_distractors19_r.png,r,2,024,001,2021-04-23_17h57.56.076,searchDisc4,2020.2.10,Win32,60,,,,space,0.15151,2,1,0.749625,,0,177,177,427,1,2b,85,2,19,
,,,,,,,,,,,,,,,,,,,,,,,,,images/exp2a_trial_34_colour3_distractors31_l.png,l,1,024,001,2021-04-23_17h57.56.076,searchDisc4,2020.2.10,Win32,60,,,,space,0.161125,1,1,0.84053,,0,178,178,262,1,2a,34,3,31,
,,,,,,,,,,,,,,,,,,,,,,,,,images/exp1b_trial_109_colour3_distractors19_l.png,l,1,024,001,2021-04-23_17h57.56.076,searchDisc4,2020.2.10,Win32,60,,,,space,0.196175,1,1,1.302345,space,0,179,179,223,1,1b,109,3,19,0.12399
,,,,,,,,,,,,,,,,,,,,,,,,,images/exp2a_trial_77_colour1_distractors4_r.png,r,2,024,001,2021-04-23_17h57.56.076,searchDisc4,2020.2.10,Win32,60,,,,space,1.486,2,1,0.59968,,0,180,180,305,1,2a,77,1,4,
,,,,,,,,,,,,,,,,,,,,,,,,,images/exp1a_trial_99_colour1_distractors43_l.png,l,1,024,001,2021-04-23_17h57.56.076,searchDisc4,2020.2.10,Win32,60,,,,space,0.170835,1,1,0.573755,,0,181,181,99,1,1a,99,1,43,
,,,,,,,,,,,,,,,,,,,,,,,,,images/exp2c_trial_4_colour1_distractors31_r.png,r,2,024,001,2021-04-23_17h57.56.076,searchDisc4,2020.2.10,Win32,60,,,,space,0.14465,2,1,0.55143,,0,182,182,460,1,2c,4,1,31,
,,,,,,,,,,,,,,,,,,,,,,,,,images/exp2a_trial_4_colour1_distractors31_r.png,r,2,024,001,2021-04-23_17h57.56.076,searchDisc4,2020.2.10,Win32,60,,,,space,0.356715,2,1,2.305135,,0,183,183,232,1,2a,4,1,31,
,,,,,,,,,,,,,,,,,,,,,,,,,images/exp2c_trial_88_colour3_distractors1_r.png,r,2,024,001,2021-04-23_17h57.56.076,searchDisc4,2020.2.10,Win32,60,,,,space,0.12081,2,1,1.02057,,0,184,184,544,1,2c,88,3,1,
,,,,,,,,,,,,,,,,,,,,,,,,,images/exp2a_trial_17_colour3_distractors43_r.png,r,2,024,001,2021-04-23_17h57.56.076,searchDisc4,2020.2.10,Win32,60,,,,space,0.09412,2,1,0.88939,,0,185,185,245,1,2a,17,3,43,
,,,,,,,,,,,,,,,,,,,,,,,,,images/exp2a_trial_15_colour3_distractors19_r.png,r,2,024,001,2021-04-23_17h57.56.076,searchDisc4,2020.2.10,Win32,60,,,,space,0.075395,2,1,0.733915,,0,186,186,243,1,2a,15,3,19,
,,,,,,,,,,,,,,,,,,,,,,,,,images/exp1b_trial_72_colour3_distractors31_l.png,l,1,024,001,2021-04-23_17h57.56.076,searchDisc4,2020.2.10,Win32,60,,,,space,0.111255,1,1,1.09263,,0,187,187,186,1,1b,72,3,31,
,,,,,,,,,,,,,,,,,,,,,,,,,images/exp2a_trial_8_colour2_distractors9_r.png,r,2,024,001,2021-04-23_17h57.56.076,searchDisc4,2020.2.10,Win32,60,,,,space,0.097455,2,1,0.66488,,0,188,188,236,1,2a,8,2,9,
,,,,,,,,,,,,,,,,,,,,,,,,,images/exp2b_trial_1_colour1_distractors4_r.png,r,2,024,001,2021-04-23_17h57.56.076,searchDisc4,2020.2.10,Win32,60,,,,space,0.135905,2,1,0.679485,,0,189,189,343,1,2b,1,1,4,
,,,,,,,,,,,,,,,,,,,,,,,,,images/exp2b_trial_89_colour3_distractors4_r.png,r,2,024,001,2021-04-23_17h57.56.076,searchDisc4,2020.2.10,Win32,60,,,,space,0.10778,2,1,0.571535,,0,190,190,431,1,2b,89,3,4,
,,,,,,,,,,,,,,,,,,,,,,,,,images/exp2c_trial_61_colour1_distractors43_l.png,l,1,024,001,2021-04-23_17h57.56.076,searchDisc4,2020.2.10,Win32,60,,,,space,0.14406,1,1,1.0822,,0,191,191,517,1,2c,61,1,43,
,,,,,,,,,,,,,,,,,,,,,,,,,images/exp1a_trial_12_colour3_distractors1_r.png,r,2,024,001,2021-04-23_17h57.56.076,searchDisc4,2020.2.10,Win32,60,,,,space,0.16086,2,1,0.81698,,0,192,192,12,1,1a,12,3,1,
,,,,,,,,,,,,,,,,,,,,,,,,,images/exp2b_trial_62_colour2_distractors1_l.png,l,1,024,001,2021-04-23_17h57.56.076,searchDisc4,2020.2.10,Win32,60,,,,space,0.08855,2,0,0.58267,,0,193,193,404,1,2b,62,2,1,
,,,,,,,,,,,,,,,,,,,,,,,,,images/exp2c_trial_68_colour3_distractors1_l.png,l,1,024,001,2021-04-23_17h57.56.076,searchDisc4,2020.2.10,Win32,60,,,,space,0.534065,1,1,0.60372,,0,194,194,524,1,2c,68,3,1,
,,,,,,,,,,,,,,,,,,,,,,,,,images/exp2a_trial_110_colour3_distractors31_l.png,l,1,024,001,2021-04-23_17h57.56.076,searchDisc4,2020.2.10,Win32,60,,,,space,0.10884,1,1,0.605015,,0,195,195,338,1,2a,110,3,31,
,,,,,,,,,,,,,,,,,,,,,,,,,images/exp2a_trial_71_colour3_distractors19_l.png,l,1,024,001,2021-04-23_17h57.56.076,searchDisc4,2020.2.10,Win32,60,,,,space,0.067535,1,1,0.542675,,0,196,196,299,1,2a,71,3,19,
,,,,,,,,,,,,,,,,,,,,,,,,,images/exp2b_trial_34_colour3_distractors31_l.png,l,1,024,001,2021-04-23_17h57.56.076,searchDisc4,2020.2.10,Win32,60,,,,space,0.11643,1,1,0.648885,,0,197,197,376,1,2b,34,3,31,
,,,,,,,,,,,,,,,,,,,,,,,,,images/exp2b_trial_25_colour2_distractors4_l.png,l,1,024,001,2021-04-23_17h57.56.076,searchDisc4,2020.2.10,Win32,60,,,,space,0.084365,1,1,0.557085,,0,198,198,367,1,2b,25,2,4,
,,,,,,,,,,,,,,,,,,,,,,,,,images/exp1a_trial_103_colour2_distractors19_l.png,l,1,024,001,2021-04-23_17h57.56.076,searchDisc4,2020.2.10,Win32,60,,,,space,0.113665,2,0,0.720965,,0,199,199,103,1,1a,103,2,19,
,,,,,,,,,,,,,,,,,,,,,,,,,images/exp2b_trial_64_colour2_distractors9_l.png,l,1,024,001,2021-04-23_17h57.56.076,searchDisc4,2020.2.10,Win32,60,,,,space,0.62073,1,1,0.480755,,0,200,200,406,1,2b,64,2,9,
,,,,,,,,,,,,,,,,,,,,,,,,,images/exp2c_trial_80_colour1_distractors31_r.png,r,2,024,001,2021-04-23_17h57.56.076,searchDisc4,2020.2.10,Win32,60,,,,space,0.10578,2,1,1.071915,,0,201,201,536,1,2c,80,1,31,
,,,,,,,,,,,,,,,,,,,,,,,,,images/exp1a_trial_29_colour2_distractors43_l.png,l,1,024,001,2021-04-23_17h57.56.076,searchDisc4,2020.2.10,Win32,60,,,,space,0.20049,1,1,1.4414,,0,202,202,29,1,1a,29,2,43,
,,,,,,,,,,,,,,,,,,,,,,,,,images/exp1a_trial_73_colour3_distractors43_l.png,l,1,024,001,2021-04-23_17h57.56.076,searchDisc4,2020.2.10,Win32,60,,,,space,0.103395,1,1,0.65913,,0,203,203,73,1,1a,73,3,43,
,,,,,,,,,,,,,,,,,,,,,,,,,images/exp1b_trial_30_colour3_distractors1_l.png,l,1,024,001,2021-04-23_17h57.56.076,searchDisc4,2020.2.10,Win32,60,,,,space,0.141615,1,1,0.95796,,0,204,204,144,1,1b,30,3,1,
,,,,,,,,,,,,,,,,,,,,,,,,,images/exp1a_trial_31_colour3_distractors4_l.png,l,1,024,001,2021-04-23_17h57.56.076,searchDisc4,2020.2.10,Win32,60,,,,space,0.149845,1,1,0.749605,,0,205,205,31,1,1a,31,3,4,
,,,,,,,,,,,,,,,,,,,,,,,,,images/exp1a_trial_30_colour3_distractors1_l.png,l,1,024,001,2021-04-23_17h57.56.076,searchDisc4,2020.2.10,Win32,60,,,,space,0.185355,1,1,0.5317,,0,206,206,30,1,1a,30,3,1,
,,,,,,,,,,,,,,,,,,,,,,,,,images/exp1b_trial_84_colour2_distractors9_r.png,r,2,024,001,2021-04-23_17h57.56.076,searchDisc4,2020.2.10,Win32,60,,,,space,0.21003,1,0,0.85195,,0,207,207,198,1,1b,84,2,9,
,,,,,,,,,,,,,,,,,,,,,,,,,images/exp2a_trial_93_colour3_distractors43_r.png,r,2,024,001,2021-04-23_17h57.56.076,searchDisc4,2020.2.10,Win32,60,,,,space,0.60839,2,1,0.4877,,0,208,208,321,1,2a,93,3,43,
,,,,,,,,,,,,,,,,,,,,,,,,,images/exp1a_trial_16_colour3_distractors31_r.png,r,2,024,001,2021-04-23_17h57.56.076,searchDisc4,2020.2.10,Win32,60,,,,space,0.17871,2,1,0.672425,,0,209,209,16,1,1a,16,3,31,
,,,,,,,,,,,,,,,,,,,,,,,,,images/exp2a_trial_103_colour2_distractors19_l.png,l,1,024,001,2021-04-23_17h57.56.076,searchDisc4,2020.2.10,Win32,60,,,,space,0.18553,1,1,0.824755,,0,210,210,331,1,2a,103,2,19,
,,,,,,,,,,,,,,,,,,,,,,,,,images/exp2b_trial_48_colour2_distractors31_r.png,r,2,024,001,2021-04-23_17h57.56.076,searchDisc4,2020.2.10,Win32,60,,,,space,0.24116,2,1,0.89095,,0,211,211,390,1,2b,48,2,31,
,,,,,,,,,,,,,,,,,,,,,,,,,images/exp1a_trial_51_colour3_distractors4_r.png,r,2,024,001,2021-04-23_17h57.56.076,searchDisc4,2020.2.10,Win32,60,,,,space,0.20215,2,1,0.692585,,0,212,212,51,1,1a,51,3,4,
,,,,,,,,,,,,,,,,,,,,,,,,,images/exp1b_trial_42_colour1_distractors31_r.png,r,2,024,001,2021-04-23_17h57.56.076,searchDisc4,2020.2.10,Win32,60,,,,space,0.194545,2,1,2.025315,,0,213,213,156,1,1b,42,1,31,
,,,,,,,,,,,,,,,,,,,,,,,,,images/exp2b_trial_45_colour2_distractors4_r.png,r,2,024,001,2021-04-23_17h57.56.076,searchDisc4,2020.2.10,Win32,60,,,,space,0.23543,2,1,0.78308,,0,214,214,387,1,2b,45,2,4,
,,,,,,,,,,,,,,,,,,,,,,,,,images/exp2a_trial_39_colour1_distractors4_r.png,r,2,024,001,2021-04-23_17h57.56.076,searchDisc4,2020.2.10,Win32,60,,,,space,0.17988,2,1,0.62941,,0,215,215,267,1,2a,39,1,4,
,,,,,,,,,,,,,,,,,,,,,,,,,images/exp2c_trial_100_colour2_distractors1_l.png,l,1,024,001,2021-04-23_17h57.56.076,searchDisc4,2020.2.10,Win32,60,,,,space,0.202855,1,1,0.74447,,0,216,216,556,1,2c,100,2,1,
,,,,,,,,,,,,,,,,,,,,,,,,,images/exp2c_trial_23_colour1_distractors43_l.png,l,1,024,001,2021-04-23_17h57.56.076,searchDisc4,2020.2.10,Win32,60,,,,space,0.2753,1,1,0.89697,,0,217,217,479,1,2c,23,1,43,
,,,,,,,,,,,,,,,,,,,,,,,,,images/exp2a_trial_49_colour2_distractors43_r.png,r,2,024,001,2021-04-23_17h57.56.076,searchDisc4,2020.2.10,Win32,60,,,,space,0.15078,2,1,0.640425,,0,218,218,277,1,2a,49,2,43,
,,,,,,,,,,,,,,,,,,,,,,,,,images/exp2b_trial_30_colour3_distractors1_l.png,l,1,024,001,2021-04-23_17h57.56.076,searchDisc4,2020.2.10,Win32,60,,,,space,0.18575,1,1,1.14318,,0,219,219,372,1,2b,30,3,1,
,,,,,,,,,,,,,,,,,,,,,,,,,images/exp1b_trial_33_colour3_distractors19_l.png,l,1,024,001,2021-04-23_17h57.56.076,searchDisc4,2020.2.10,Win32,60,,,,space,0.23508,1,1,1.80448,,0,220,220,147,1,1b,33,3,19,
,,,,,,,,,,,,,,,,,,,,,,,,,images/exp2b_trial_90_colour3_distractors9_r.png,r,2,024,001,2021-04-23_17h57.56.076,searchDisc4,2020.2.10,Win32,60,,,,space,0.167975,2,1,0.968545,,0,221,221,432,1,2b,90,3,9,
,,,,,,,,,,,,,,,,,,,,,,,,,images/exp2b_trial_0_colour1_distractors1_r.png,r,2,024,001,2021-04-23_17h57.56.076,searchDisc4,2020.2.10,Win32,60,,,,space,0.149125,2,1,0.603015,,0,222,222,342,1,2b,0,1,1,
,,,,,,,,,,,,,,,,,,,,,,,,,images/exp1a_trial_13_colour3_distractors4_r.png,r,2,024,001,2021-04-23_17h57.56.076,searchDisc4,2020.2.10,Win32,60,,,,space,0.22066,2,1,0.54663,,0,223,223,13,1,1a,13,3,4,
,,,,,,,,,,,,,,,,,,,,,,,,,images/exp1a_trial_67_colour2_distractors43_l.png,l,1,024,001,2021-04-23_17h57.56.076,searchDisc4,2020.2.10,Win32,60,,,,space,0.209915,1,1,1.14677,,0,224,224,67,1,1a,67,2,43,
,,,,,,,,,,,,,,,,,,,,,,,,,images/exp2c_trial_15_colour3_distractors19_r.png,r,2,024,001,2021-04-23_17h57.56.076,searchDisc4,2020.2.10,Win32,60,,,,space,0.21542,2,1,0.79505,,0,225,225,471,1,2c,15,3,19,
,,,,,,,,,,,,,,,,,,,,,,,,,images/exp1a_trial_65_colour2_distractors19_l.png,l,1,024,001,2021-04-23_17h57.56.076,searchDisc4,2020.2.10,Win32,60,,,,space,0.16942,1,1,0.78138,,0,226,226,65,1,1a,65,2,19,
,,,,,,,,,,,,,,,,,,,,,,,,,images/exp2a_trial_18_colour1_distractors1_l.png,l,1,024,001,2021-04-23_17h57.56.076,searchDisc4,2020.2.10,Win32,60,,,,space,0.22736,1,1,0.583115,,0,227,227,246,1,2a,18,1,1,
,,,,,,,,,,,,,,,,,,,,,,,,,images/exp2b_trial_7_colour2_distractors4_r.png,r,2,024,001,2021-04-23_17h57.56.076,searchDisc4,2020.2.10,Win32,60,,,,space,0.19748,1,0,0.51394,,0,228,228,349,1,2b,7,2,4,
,,,,,,,,,,,,,,,,,,,,,,,,,images/exp1a_trial_33_colour3_distractors19_l.png,l,1,024,001,2021-04-23_17h57.56.076,searchDisc4,2020.2.10,Win32,60,,,,space,0.4522,2,0,0.472365,,0,229,229,33,1,1a,33,3,19,
,,,,,,,,,,,,,,,,,,,,,,,,,images/exp1b_trial_19_colour1_distractors4_l.png,l,1,024,001,2021-04-23_17h57.56.076,searchDisc4,2020.2.10,Win32,60,,,,space,0.432885,1,1,0.79566,,0,230,230,133,1,1b,19,1,4,
,,,,,,,,,,,,,,,,,,,,,,,,,images/exp1b_trial_99_colour1_distractors43_l.png,l,1,024,001,2021-04-23_17h57.56.076,searchDisc4,2020.2.10,Win32,60,,,,space,0.185095,1,1,0.89644,,0,231,231,213,1,1b,99,1,43,
,,,,,,,,,,,,,,,,,,,,,,,,,images/exp2c_trial_33_colour3_distractors19_l.png,l,1,024,001,2021-04-23_17h57.56.076,searchDisc4,2020.2.10,Win32,60,,,,space,0.18327,1,1,0.67348,,0,232,232,489,1,2c,33,3,19,
,,,,,,,,,,,,,,,,,,,,,,,,,images/exp2a_trial_67_colour2_distractors43_l.png,l,1,024,001,2021-04-23_17h57.56.076,searchDisc4,2020.2.10,Win32,60,,,,space,0.18281,1,1,1.011125,,0,233,233,295,1,2a,67,2,43,
,,,,,,,,,,,,,,,,,,,,,,,,,images/exp2a_trial_107_colour3_distractors4_l.png,l,1,024,001,2021-04-23_17h57.56.076,searchDisc4,2020.2.10,Win32,60,,,,space,0.201965,1,1,0.831435,,0,234,234,335,1,2a,107,3,4,
,,,,,,,,,,,,,,,,,,,,,,,,,images/exp1a_trial_92_colour3_distractors31_r.png,r,2,024,001,2021-04-23_17h57.56.076,searchDisc4,2020.2.10,Win32,60,,,,space,0.177745,2,1,0.825215,,0,235,235,92,1,1a,92,3,31,
,,,,,,,,,,,,,,,,,,,,,,,,,images/exp2b_trial_66_colour2_distractors31_l.png,l,1,024,001,2021-04-23_17h57.56.076,searchDisc4,2020.2.10,Win32,60,,,,space,0.132535,1,1,0.78018,,0,236,236,408,1,2b,66,2,31,
,,,,,,,,,,,,,,,,,,,,,,,,,images/exp1b_trial_76_colour1_distractors1_r.png,r,2,024,001,2021-04-23_17h57.56.076,searchDisc4,2020.2.10,Win32,60,,,,space,0.148945,2,1,0.963735,,0,237,237,190,1,1b,76,1,1,
,,,,,,,,,,,,,,,,,,,,,,,,,images/exp2b_trial_37_colour0_distractors0_l.png,l,1,024,001,2021-04-23_17h57.56.076,searchDisc4,2020.2.10,Win32,60,,,,space,0.177795,1,1,0.83419,,0,238,238,379,1,2b,37,0,0,
,,,,,,,,,,,,,,,,,,,,,,,,,images/exp2a_trial_20_colour1_distractors9_l.png,l,1,024,001,2021-04-23_17h57.56.076,searchDisc4,2020.2.10,Win32,60,,,,space,0.151875,1,1,0.841945,space,0,239,239,248,1,2a,20,1,9,0.136485
,,,,,,,,,,,,,,,,,,,,,,,,,images/exp2b_trial_40_colour1_distractors9_r.png,r,2,024,001,2021-04-23_17h57.56.076,searchDisc4,2020.2.10,Win32,60,,,,space,1.235765,2,1,0.56605,,0,240,240,382,1,2b,40,1,9,
,,,,,,,,,,,,,,,,,,,,,,,,,images/exp1a_trial_47_colour2_distractors19_r.png,r,2,024,001,2021-04-23_17h57.56.076,searchDisc4,2020.2.10,Win32,60,,,,space,0.1709,2,1,0.576295,,0,241,241,47,1,1a,47,2,19,
,,,,,,,,,,,,,,,,,,,,,,,,,images/exp2c_trial_46_colour2_distractors9_r.png,r,2,024,001,2021-04-23_17h57.56.076,searchDisc4,2020.2.10,Win32,60,,,,space,0.14768,2,1,0.605105,,0,242,242,502,1,2c,46,2,9,
,,,,,,,,,,,,,,,,,,,,,,,,,images/exp2b_trial_93_colour3_distractors43_r.png,r,2,024,001,2021-04-23_17h57.56.076,searchDisc4,2020.2.10,Win32,60,,,,space,0.21016,2,1,0.98634,,0,243,243,435,1,2b,93,3,43,
,,,,,,,,,,,,,,,,,,,,,,,,,images/exp1b_trial_40_colour1_distractors9_r.png,r,2,024,001,2021-04-23_17h57.56.076,searchDisc4,2020.2.10,Win32,60,,,,space,0.11642,2,1,1.171195,,0,244,244,154,1,1b,40,1,9,
,,,,,,,,,,,,,,,,,,,,,,,,,images/exp2b_trial_75_colour0_distractors0_l.png,l,1,024,001,2021-04-23_17h57.56.076,searchDisc4,2020.2.10,Win32,60,,,,space,0.12073,1,1,0.704835,,0,245,245,417,1,2b,75,0,0,
,,,,,,,,,,,,,,,,,,,,,,,,,images/exp1b_trial_50_colour3_distractors1_r.png,r,2,024,001,2021-04-23_17h57.56.076,searchDisc4,2020.2.10,Win32,60,,,,space,0.10563,2,1,0.71798,,0,246,246,164,1,1b,50,3,1,
,,,,,,,,,,,,,,,,,,,,,,,,,images/exp1b_trial_44_colour2_distractors1_r.png,r,2,024,001,2021-04-23_17h57.56.076,searchDisc4,2020.2.10,Win32,60,,,,space,0.14163,2,1,0.9665,,0,247,247,158,1,1b,44,2,1,
,,,,,,,,,,,,,,,,,,,,,,,,,images/exp2a_trial_83_colour2_distractors4_r.png,r,2,024,001,2021-04-23_17h57.56.076,searchDisc4,2020.2.10,Win32,60,,,,space,0.09625,2,1,0.647765,,0,248,248,311,1,2a,83,2,4,
,,,,,,,,,,,,,,,,,,,,,,,,,images/exp2b_trial_27_colour2_distractors19_l.png,l,1,024,001,2021-04-23_17h57.56.076,searchDisc4,2020.2.10,Win32,60,,,,space,0.144075,1,1,0.865795,,0,249,249,369,1,2b,27,2,19,
,,,,,,,,,,,,,,,,,,,,,,,,,images/exp1a_trial_59_colour1_distractors19_l.png,l,1,024,001,2021-04-23_17h57.56.076,searchDisc4,2020.2.10,Win32,60,,,,space,0.113715,1,1,0.736135,,0,250,250,59,1,1a,59,1,19,
,,,,,,,,,,,,,,,,,,,,,,,,,images/exp1a_trial_21_colour1_distractors19_l.png,l,1,024,001,2021-04-23_17h57.56.076,searchDisc4,2020.2.10,Win32,60,,,,space,0.062525,1,1,0.63655,,0,251,251,21,1,1a,21,1,19,
,,,,,,,,,,,,,,,,,,,,,,,,,images/exp2a_trial_7_colour2_distractors4_r.png,r,2,024,001,2021-04-23_17h57.56.076,searchDisc4,2020.2.10,Win32,60,,,,space,0.404725,2,1,0.74461,,0,252,252,235,1,2a,7,2,4,
,,,,,,,,,,,,,,,,,,,,,,,,,images/exp2b_trial_80_colour1_distractors31_r.png,r,2,024,001,2021-04-23_17h57.56.076,searchDisc4,2020.2.10,Win32,60,,,,space,0.200245,2,1,0.82951,,0,253,253,422,1,2b,80,1,31,
,,,,,,,,,,,,,,,,,,,,,,,,,images/exp2a_trial_69_colour3_distractors4_l.png,l,1,024,001,2021-04-23_17h57.56.076,searchDisc4,2020.2.10,Win32,60,,,,space,0.167825,1,1,0.657145,,0,254,254,297,1,2a,69,3,4,
,,,,,,,,,,,,,,,,,,,,,,,,,images/exp1a_trial_45_colour2_distractors4_r.png,r,2,024,001,2021-04-23_17h57.56.076,searchDisc4,2020.2.10,Win32,60,,,,space,0.153705,2,1,0.97831,,0,255,255,45,1,1a,45,2,4,
,,,,,,,,,,,,,,,,,,,,,,,,,images/exp2b_trial_84_colour2_distractors9_r.png,r,2,024,001,2021-04-23_17h57.56.076,searchDisc4,2020.2.10,Win32,60,,,,space,0.138015,2,1,0.616035,,0,256,256,426,1,2b,84,2,9,
,,,,,,,,,,,,,,,,,,,,,,,,,images/exp2a_trial_52_colour3_distractors9_r.png,r,2,024,001,2021-04-23_17h57.56.076,searchDisc4,2020.2.10,Win32,60,,,,space,0.19994,2,1,0.554225,,0,257,257,280,1,2a,52,3,9,
,,,,,,,,,,,,,,,,,,,,,,,,,images/exp1a_trial_60_colour1_distractors31_l.png,l,1,024,001,2021-04-23_17h57.56.076,searchDisc4,2020.2.10,Win32,60,,,,space,0.181705,1,1,0.64417,,0,258,258,60,1,1a,60,1,31,
,,,,,,,,,,,,,,,,,,,,,,,,,images/exp2a_trial_82_colour2_distractors1_r.png,r,2,024,001,2021-04-23_17h57.56.076,searchDisc4,2020.2.10,Win32,60,,,,space,0.16551,2,1,0.70696,,0,259,259,310,1,2a,82,2,1,
,,,,,,,,,,,,,,,,,,,,,,,,,images/exp2c_trial_22_colour1_distractors31_l.png,l,1,024,001,2021-04-23_17h57.56.076,searchDisc4,2020.2.10,Win32,60,,,,space,0.166595,1,1,0.902935,,0,260,260,478,1,2c,22,1,31,
,,,,,,,,,,,,,,,,,,,,,,,,,images/exp2a_trial_63_colour2_distractors4_l.png,l,1,024,001,2021-04-23_17h57.56.076,searchDisc4,2020.2.10,Win32,60,,,,space,0.18332,1,1,0.83646,,0,261,261,291,1,2a,63,2,4,
,,,,,,,,,,,,,,,,,,,,,,,,,images/exp2b_trial_104_colour2_distractors31_l.png,l,1,024,001,2021-04-23_17h57.56.076,searchDisc4,2020.2.10,Win32,60,,,,space,0.11184,1,1,0.7248,,0,262,262,446,1,2b,104,2,31,
,,,,,,,,,,,,,,,,,,,,,,,,,images/exp1b_trial_90_colour3_distractors9_r.png,r,2,024,001,2021-04-23_17h57.56.076,searchDisc4,2020.2.10,Win32,60,,,,space,0.35304,2,1,0.728775,,0,263,263,204,1,1b,90,3,9,
,,,,,,,,,,,,,,,,,,,,,,,,,images/exp2b_trial_103_colour2_distractors19_l.png,l,1,024,001,2021-04-23_17h57.56.076,searchDisc4,2020.2.10,Win32,60,,,,space,0.21266,1,1,0.63752,,0,264,264,445,1,2b,103,2,19,
,,,,,,,,,,,,,,,,,,,,,,,,,images/exp1b_trial_18_colour1_distractors1_l.png,l,1,024,001,2021-04-23_17h57.56.076,searchDisc4,2020.2.10,Win32,60,,,,space,0.145505,1,1,0.66596,,0,265,265,132,1,1b,18,1,1,
,,,,,,,,,,,,,,,,,,,,,,,,,images/exp1b_trial_41_colour1_distractors19_r.png,r,2,024,001,2021-04-23_17h57.56.076,searchDisc4,2020.2.10,Win32,60,,,,space,0.15012,2,1,0.885795,,0,266,266,155,1,1b,41,1,19,
,,,,,,,,,,,,,,,,,,,,,,,,,images/exp2a_trial_106_colour3_distractors1_l.png,l,1,024,001,2021-04-23_17h57.56.076,searchDisc4,2020.2.10,Win32,60,,,,space,0.203225,1,1,0.597065,,0,267,267,334,1,2a,106,3,1,
,,,,,,,,,,,,,,,,,,,,,,,,,images/exp2b_trial_95_colour1_distractors4_l.png,l,1,024,001,2021-04-23_17h57.56.076,searchDisc4,2020.2.10,Win32,60,,,,space,0.17047,1,1,0.6085,,0,268,268,437,1,2b,95,1,4,
,,,,,,,,,,,,,,,,,,,,,,,,,images/exp1b_trial_46_colour2_distractors9_r.png,r,2,024,001,2021-04-23_17h57.56.076,searchDisc4,2020.2.10,Win32,60,,,,space,0.131465,2,1,0.6737,,0,269,269,160,1,1b,46,2,9,
,,,,,,,,,,,,,,,,,,,,,,,,,images/exp2a_trial_30_colour3_distractors1_l.png,l,1,024,001,2021-04-23_17h57.56.076,searchDisc4,2020.2.10,Win32,60,,,,space,0.181845,1,1,0.745485,,0,270,270,258,1,2a,30,3,1,
,,,,,,,,,,,,,,,,,,,,,,,,,images/exp2b_trial_112_colour0_distractors0_r.png,r,2,024,001,2021-04-23_17h57.56.076,searchDisc4,2020.2.10,Win32,60,,,,space,0.08987,2,1,0.580725,,0,271,271,454,1,2b,112,0,0,
,,,,,,,,,,,,,,,,,,,,,,,,,images/exp1a_trial_19_colour1_distractors4_l.png,l,1,024,001,2021-04-23_17h57.56.076,searchDisc4,2020.2.10,Win32,60,,,,space,0.14746,1,1,0.582535,,0,272,272,19,1,1a,19,1,4,
,,,,,,,,,,,,,,,,,,,,,,,,,images/exp2b_trial_53_colour3_distractors19_r.png,r,2,024,001,2021-04-23_17h57.56.076,searchDisc4,2020.2.10,Win32,60,,,,space,0.199755,2,1,0.65536,,0,273,273,395,1,2b,53,3,19,
,,,,,,,,,,,,,,,,,,,,,,,,,images/exp2b_trial_51_colour3_distractors4_r.png,r,2,024,001,2021-04-23_17h57.56.076,searchDisc4,2020.2.10,Win32,60,,,,space,0.161165,2,1,0.71779,,0,274,274,393,1,2b,51,3,4,
,,,,,,,,,,,,,,,,,,,,,,,,,images/exp1a_trial_106_colour3_distractors1_l.png,l,1,024,001,2021-04-23_17h57.56.076,searchDisc4,2020.2.10,Win32,60,,,,space,0.184445,1,1,0.78183,,0,275,275,106,1,1a,106,3,1,
,,,,,,,,,,,,,,,,,,,,,,,,,images/exp2c_trial_113_colour0_distractors0_l.png,l,1,024,001,2021-04-23_17h57.56.076,searchDisc4,2020.2.10,Win32,60,,,,space,0.182975,1,1,0.598375,,0,276,276,569,1,2c,113,0,0,
,,,,,,,,,,,,,,,,,,,,,,,,,images/exp1b_trial_68_colour3_distractors1_l.png,l,1,024,001,2021-04-23_17h57.56.076,searchDisc4,2020.2.10,Win32,60,,,,space,0.166935,1,1,0.67495,,0,277,277,182,1,1b,68,3,1,
,,,,,,,,,,,,,,,,,,,,,,,,,images/exp2b_trial_47_colour2_distractors19_r.png,r,2,024,001,2021-04-23_17h57.56.076,searchDisc4,2020.2.10,Win32,60,,,,space,0.151865,2,1,0.94381,,0,278,278,389,1,2b,47,2,19,
,,,,,,,,,,,,,,,,,,,,,,,,,images/exp2b_trial_98_colour1_distractors31_l.png,l,1,024,001,2021-04-23_17h57.56.076,searchDisc4,2020.2.10,Win32,60,,,,space,0.14945,1,1,0.904855,,0,279,279,440,1,2b,98,1,31,
,,,,,,,,,,,,,,,,,,,,,,,,,images/exp2c_trial_5_colour1_distractors43_r.png,r,2,024,001,2021-04-23_17h57.56.076,searchDisc4,2020.2.10,Win32,60,,,,space,0.137935,2,1,0.90786,,0,280,280,461,1,2c,5,1,43,
,,,,,,,,,,,,,,,,,,,,,,,,,images/exp1b_trial_78_colour1_distractors9_r.png,r,2,024,001,2021-04-23_17h57.56.076,searchDisc4,2020.2.10,Win32,60,,,,space,0.159315,2,1,0.685115,,0,281,281,192,1,1b,78,1,9,
,,,,,,,,,,,,,,,,,,,,,,,,,images/exp2c_trial_63_colour2_distractors4_l.png,l,1,024,001,2021-04-23_17h57.56.076,searchDisc4,2020.2.10,Win32,60,,,,space,0.18376,1,1,0.656515,,0,282,282,519,1,2c,63,2,4,
,,,,,,,,,,,,,,,,,,,,,,,,,images/exp2c_trial_69_colour3_distractors4_l.png,l,1,024,001,2021-04-23_17h57.56.076,searchDisc4,2020.2.10,Win32,60,,,,space,0.163425,1,1,0.59793,,0,283,283,525,1,2c,69,3,4,
,,,,,,,,,,,,,,,,,,,,,,,,,images/exp1a_trial_72_colour3_distractors31_l.png,l,1,024,001,2021-04-23_17h57.56.076,searchDisc4,2020.2.10,Win32,60,,,,space,0.165755,1,1,0.55295,,0,284,284,72,1,1a,72,3,31,
,,,,,,,,,,,,,,,,,,,,,,,,,images/exp1a_trial_7_colour2_distractors4_r.png,r,2,024,001,2021-04-23_17h57.56.076,searchDisc4,2020.2.10,Win32,60,,,,space,0.137855,2,1,0.78709,,0,285,285,7,1,1a,7,2,4,
,,,,,,,,,,,,,,,,,,,,,,,,,images/exp2b_trial_72_colour3_distractors31_l.png,l,1,024,001,2021-04-23_17h57.56.076,searchDisc4,2020.2.10,Win32,60,,,,space,0.12921,1,1,0.954965,,0,286,286,414,1,2b,72,3,31,
,,,,,,,,,,,,,,,,,,,,,,,,,images/exp2c_trial_13_colour3_distractors4_r.png,r,2,024,001,2021-04-23_17h57.56.076,searchDisc4,2020.2.10,Win32,60,,,,space,0.126055,2,1,0.667105,,0,287,287,469,1,2c,13,3,4,
,,,,,,,,,,,,,,,,,,,,,,,,,images/exp2a_trial_89_colour3_distractors4_r.png,r,2,024,001,2021-04-23_17h57.56.076,searchDisc4,2020.2.10,Win32,60,,,,space,0.128915,2,1,0.764005,,0,288,288,317,1,2a,89,3,4,
,,,,,,,,,,,,,,,,,,,,,,,,,images/exp1a_trial_69_colour3_distractors4_l.png,l,1,024,001,2021-04-23_17h57.56.076,searchDisc4,2020.2.10,Win32,60,,,,space,0.143095,1,1,1.028215,,0,289,289,69,1,1a,69,3,4,
,,,,,,,,,,,,,,,,,,,,,,,,,images/exp2a_trial_95_colour1_distractors4_l.png,l,1,024,001,2021-04-23_17h57.56.076,searchDisc4,2020.2.10,Win32,60,,,,space,0.073085,1,1,0.85929,,0,290,290,323,1,2a,95,1,4,
,,,,,,,,,,,,,,,,,,,,,,,,,images/exp2c_trial_7_colour2_distractors4_r.png,r,2,024,001,2021-04-23_17h57.56.076,searchDisc4,2020.2.10,Win32,60,,,,space,0.093565,2,1,0.721355,,0,291,291,463,1,2c,7,2,4,
,,,,,,,,,,,,,,,,,,,,,,,,,images/exp1b_trial_35_colour3_distractors43_l.png,l,1,024,001,2021-04-23_17h57.56.076,searchDisc4,2020.2.10,Win32,60,,,,space,0.117435,1,1,3.24987,,0,292,292,149,1,1b,35,3,43,
,,,,,,,,,,,,,,,,,,,,,,,,,images/exp2a_trial_66_colour2_distractors31_l.png,l,1,024,001,2021-04-23_17h57.56.076,searchDisc4,2020.2.10,Win32,60,,,,space,0.15888,1,1,0.833525,,0,293,293,294,1,2a,66,2,31,
,,,,,,,,,,,,,,,,,,,,,,,,,images/exp2a_trial_3_colour1_distractors19_r.png,r,2,024,001,2021-04-23_17h57.56.076,searchDisc4,2020.2.10,Win32,60,,,,space,0.136555,2,1,0.709705,,0,294,294,231,1,2a,3,1,19,
,,,,,,,,,,,,,,,,,,,,,,,,,images/exp2b_trial_32_colour3_distractors9_l.png,l,1,024,001,2021-04-23_17h57.56.076,searchDisc4,2020.2.10,Win32,60,,,,space,0.118695,1,1,0.90309,,0,295,295,374,1,2b,32,3,9,
,,,,,,,,,,,,,,,,,,,,,,,,,images/exp1b_trial_70_colour3_distractors9_l.png,l,1,024,001,2021-04-23_17h57.56.076,searchDisc4,2020.2.10,Win32,60,,,,space,0.111175,1,1,1.22877,,0,296,296,184,1,1b,70,3,9,
,,,,,,,,,,,,,,,,,,,,,,,,,images/exp1b_trial_8_colour2_distractors9_r.png,r,2,024,001,2021-04-23_17h57.56.076,searchDisc4,2020.2.10,Win32,60,,,,space,0.10332,2,1,1.005265,,0,297,297,122,1,1b,8,2,9,
,,,,,,,,,,,,,,,,,,,,,,,,,images/exp2c_trial_55_colour3_distractors43_r.png,r,2,024,001,2021-04-23_17h57.56.076,searchDisc4,2020.2.10,Win32,60,,,,space,0.25133,2,1,0.60862,,0,298,298,511,1,2c,55,3,43,
,,,,,,,,,,,,,,,,,,,,,,,,,images/exp2c_trial_36_colour0_distractors0_r.png,r,2,024,001,2021-04-23_17h57.56.076,searchDisc4,2020.2.10,Win32,60,,,,space,0.150875,2,1,0.867115,space,0,299,299,492,1,2c,36,0,0,0.10074
,,,,,,,,,,,,,,,,,,,,,,,,,images/exp2a_trial_94_colour1_distractors1_l.png,l,1,024,001,2021-04-23_17h57.56.076,searchDisc4,2020.2.10,Win32,60,,,,space,0.97224,1,1,0.77905,,0,300,300,322,1,2a,94,1,1,
,,,,,,,,,,,,,,,,,,,,,,,,,images/exp2b_trial_3_colour1_distractors19_r.png,r,2,024,001,2021-04-23_17h57.56.076,searchDisc4,2020.2.10,Win32,60,,,,space,0.3719,2,1,0.943135,,0,301,301,345,1,2b,3,1,19,
,,,,,,,,,,,,,,,,,,,,,,,,,images/exp1a_trial_111_colour3_distractors43_l.png,l,1,024,001,2021-04-23_17h57.56.076,searchDisc4,2020.2.10,Win32,60,,,,space,0.151125,1,1,0.56702,,0,302,302,111,1,1a,111,3,43,
,,,,,,,,,,,,,,,,,,,,,,,,,images/exp2b_trial_11_colour2_distractors43_r.png,r,2,024,001,2021-04-23_17h57.56.076,searchDisc4,2020.2.10,Win32,60,,,,space,0.16597,1,0,0.532055,,0,303,303,353,1,2b,11,2,43,
,,,,,,,,,,,,,,,,,,,,,,,,,images/exp2a_trial_65_colour2_distractors19_l.png,l,1,024,001,2021-04-23_17h57.56.076,searchDisc4,2020.2.10,Win32,60,,,,space,0.58681,2,0,0.55073,,0,304,304,293,1,2a,65,2,19,
,,,,,,,,,,,,,,,,,,,,,,,,,images/exp2a_trial_9_colour2_distractors19_r.png,r,2,024,001,2021-04-23_17h57.56.076,searchDisc4,2020.2.10,Win32,60,,,,space,0.47795,2,1,0.654065,,0,305,305,237,1,2a,9,2,19,
,,,,,,,,,,,,,,,,,,,,,,,,,images/exp2c_trial_43_colour1_distractors43_r.png,r,2,024,001,2021-04-23_17h57.56.076,searchDisc4,2020.2.10,Win32,60,,,,space,0.21931,2,1,0.565325,,0,306,306,499,1,2c,43,1,43,
,,,,,,,,,,,,,,,,,,,,,,,,,images/exp2a_trial_113_colour0_distractors0_l.png,l,1,024,001,2021-04-23_17h57.56.076,searchDisc4,2020.2.10,Win32,60,,,,space,0.166995,1,1,0.579135,,0,307,307,341,1,2a,113,0,0,
,,,,,,,,,,,,,,,,,,,,,,,,,images/exp2c_trial_103_colour2_distractors19_l.png,l,1,024,001,2021-04-23_17h57.56.076,searchDisc4,2020.2.10,Win32,60,,,,space,0.20396,1,1,0.62783,,0,308,308,559,1,2c,103,2,19,
,,,,,,,,,,,,,,,,,,,,,,,,,images/exp1b_trial_101_colour2_distractors4_l.png,l,1,024,001,2021-04-23_17h57.56.076,searchDisc4,2020.2.10,Win32,60,,,,space,0.166305,1,1,0.665405,,0,309,309,215,1,1b,101,2,4,
,,,,,,,,,,,,,,,,,,,,,,,,,images/exp2c_trial_10_colour2_distractors31_r.png,r,2,024,001,2021-04-23_17h57.56.076,searchDisc4,2020.2.10,Win32,60,,,,space,0.272525,2,1,0.66625,,0,310,310,466,1,2c,10,2,31,
,,,,,,,,,,,,,,,,,,,,,,,,,images/exp1a_trial_34_colour3_distractors31_l.png,l,1,024,001,2021-04-23_17h57.56.076,searchDisc4,2020.2.10,Win32,60,,,,space,0.142395,1,1,0.60518,,0,311,311,34,1,1a,34,3,31,
,,,,,,,,,,,,,,,,,,,,,,,,,images/exp1a_trial_48_colour2_distractors31_r.png,r,2,024,001,2021-04-23_17h57.56.076,searchDisc4,2020.2.10,Win32,60,,,,space,0.137275,2,1,0.76668,,0,312,312,48,1,1a,48,2,31,
,,,,,,,,,,,,,,,,,,,,,,,,,images/exp1b_trial_93_colour3_distractors43_r.png,r,2,024,001,2021-04-23_17h57.56.076,searchDisc4,2020.2.10,Win32,60,,,,space,0.197705,2,1,1.255755,,0,313,313,207,1,1b,93,3,43,
,,,,,,,,,,,,,,,,,,,,,,,,,images/exp2c_trial_47_colour2_distractors19_r.png,r,2,024,001,2021-04-23_17h57.56.076,searchDisc4,2020.2.10,Win32,60,,,,space,0.3676,2,1,0.7711,,0,314,314,503,1,2c,47,2,19,
,,,,,,,,,,,,,,,,,,,,,,,,,images/exp1b_trial_85_colour2_distractors19_r.png,r,2,024,001,2021-04-23_17h57.56.076,searchDisc4,2020.2.10,Win32,60,,,,space,0.32336,2,1,0.919525,,0,315,315,199,1,1b,85,2,19,
,,,,,,,,,,,,,,,,,,,,,,,,,images/exp1a_trial_104_colour2_distractors31_l.png,l,1,024,001,2021-04-23_17h57.56.076,searchDisc4,2020.2.10,Win32,60,,,,space,0.17543,1,1,1.046525,,0,316,316,104,1,1a,104,2,31,
,,,,,,,,,,,,,,,,,,,,,,,,,images/exp1b_trial_36_colour0_distractors0_r.png,r,2,024,001,2021-04-23_17h57.56.076,searchDisc4,2020.2.10,Win32,60,,,,space,0.34655,2,1,1.005185,,0,317,317,150,1,1b,36,0,0,
,,,,,,,,,,,,,,,,,,,,,,,,,images/exp2c_trial_28_colour2_distractors31_l.png,l,1,024,001,2021-04-23_17h57.56.076,searchDisc4,2020.2.10,Win32,60,,,,space,0.31971,1,1,0.961305,,0,318,318,484,1,2c,28,2,31,
,,,,,,,,,,,,,,,,,,,,,,,,,images/exp2a_trial_104_colour2_distractors31_l.png,l,1,024,001,2021-04-23_17h57.56.076,searchDisc4,2020.2.10,Win32,60,,,,space,0.16691,1,1,0.862025,,0,319,319,332,1,2a,104,2,31,
,,,,,,,,,,,,,,,,,,,,,,,,,images/exp1a_trial_54_colour3_distractors31_r.png,r,2,024,001,2021-04-23_17h57.56.076,searchDisc4,2020.2.10,Win32,60,,,,space,0.16833,2,1,0.8977,,0,320,320,54,1,1a,54,3,31,
,,,,,,,,,,,,,,,,,,,,,,,,,images/exp2b_trial_26_colour2_distractors9_l.png,l,1,024,001,2021-04-23_17h57.56.076,searchDisc4,2020.2.10,Win32,60,,,,space,0.193655,1,1,0.72259,,0,321,321,368,1,2b,26,2,9,
,,,,,,,,,,,,,,,,,,,,,,,,,images/exp2a_trial_72_colour3_distractors31_l.png,l,1,024,001,2021-04-23_17h57.56.076,searchDisc4,2020.2.10,Win32,60,,,,space,0.26032,1,1,0.63765,,0,322,322,300,1,2a,72,3,31,
,,,,,,,,,,,,,,,,,,,,,,,,,images/exp1a_trial_105_colour2_distractors43_l.png,l,1,024,001,2021-04-23_17h57.56.076,searchDisc4,2020.2.10,Win32,60,,,,space,0.27928,1,1,0.66833,,0,323,323,105,1,1a,105,2,43,
,,,,,,,,,,,,,,,,,,,,,,,,,images/exp2b_trial_92_colour3_distractors31_r.png,r,2,024,001,2021-04-23_17h57.56.076,searchDisc4,2020.2.10,Win32,60,,,,space,0.294565,2,1,0.796405,,0,324,324,434,1,2b,92,3,31,
,,,,,,,,,,,,,,,,,,,,,,,,,images/exp1a_trial_58_colour1_distractors9_l.png,l,1,024,001,2021-04-23_17h57.56.076,searchDisc4,2020.2.10,Win32,60,,,,space,0.209745,1,1,0.57872,,0,325,325,58,1,1a,58,1,9,
,,,,,,,,,,,,,,,,,,,,,,,,,images/exp2b_trial_107_colour3_distractors4_l.png,l,1,024,001,2021-04-23_17h57.56.076,searchDisc4,2020.2.10,Win32,60,,,,space,0.23625,1,1,0.580715,,0,326,326,449,1,2b,107,3,4,
,,,,,,,,,,,,,,,,,,,,,,,,,images/exp2b_trial_22_colour1_distractors31_l.png,l,1,024,001,2021-04-23_17h57.56.076,searchDisc4,2020.2.10,Win32,60,,,,space,0.267715,1,1,0.544545,,0,327,327,364,1,2b,22,1,31,
,,,,,,,,,,,,,,,,,,,,,,,,,images/exp2b_trial_54_colour3_distractors31_r.png,r,2,024,001,2021-04-23_17h57.56.076,searchDisc4,2020.2.10,Win32,60,,,,space,0.234425,2,1,0.98893,,0,328,328,396,1,2b,54,3,31,
,,,,,,,,,,,,,,,,,,,,,,,,,images/exp1b_trial_73_colour3_distractors43_l.png,l,1,024,001,2021-04-23_17h57.56.076,searchDisc4,2020.2.10,Win32,60,,,,space,0.183285,1,1,1.40723,,0,329,329,187,1,1b,73,3,43,
,,,,,,,,,,,,,,,,,,,,,,,,,images/exp1a_trial_53_colour3_distractors19_r.png,r,2,024,001,2021-04-23_17h57.56.076,searchDisc4,2020.2.10,Win32,60,,,,space,0.248675,2,1,0.793245,,0,330,330,53,1,1a,53,3,19,
,,,,,,,,,,,,,,,,,,,,,,,,,images/exp2c_trial_8_colour2_distractors9_r.png,r,2,024,001,2021-04-23_17h57.56.076,searchDisc4,2020.2.10,Win32,60,,,,space,0.220205,2,1,0.98657,,0,331,331,464,1,2c,8,2,9,
,,,,,,,,,,,,,,,,,,,,,,,,,images/exp1b_trial_31_colour3_distractors4_l.png,l,1,024,001,2021-04-23_17h57.56.076,searchDisc4,2020.2.10,Win32,60,,,,space,0.17221,1,1,0.69413,,0,332,332,145,1,1b,31,3,4,
,,,,,,,,,,,,,,,,,,,,,,,,,images/exp2c_trial_91_colour3_distractors19_r.png,r,2,024,001,2021-04-23_17h57.56.076,searchDisc4,2020.2.10,Win32,60,,,,space,0.1177,2,1,0.556435,,0,333,333,547,1,2c,91,3,19,
,,,,,,,,,,,,,,,,,,,,,,,,,images/exp2c_trial_38_colour1_distractors1_r.png,r,2,024,001,2021-04-23_17h57.56.076,searchDisc4,2020.2.10,Win32,60,,,,space,0.209825,2,1,0.565035,,0,334,334,494,1,2c,38,1,1,
,,,,,,,,,,,,,,,,,,,,,,,,,images/exp2b_trial_14_colour3_distractors9_r.png,r,2,024,001,2021-04-23_17h57.56.076,searchDisc4,2020.2.10,Win32,60,,,,space,0.281735,2,1,0.68304,,0,335,335,356,1,2b,14,3,9,
,,,,,,,,,,,,,,,,,,,,,,,,,images/exp1b_trial_100_colour2_distractors1_l.png,l,1,024,001,2021-04-23_17h57.56.076,searchDisc4,2020.2.10,Win32,60,,,,space,0.19915,1,1,0.66013,,0,336,336,214,1,1b,100,2,1,
,,,,,,,,,,,,,,,,,,,,,,,,,images/exp1a_trial_52_colour3_distractors9_r.png,r,2,024,001,2021-04-23_17h57.56.076,searchDisc4,2020.2.10,Win32,60,,,,space,0.190635,2,1,0.875885,,0,337,337,52,1,1a,52,3,9,
,,,,,,,,,,,,,,,,,,,,,,,,,images/exp2b_trial_56_colour1_distractors1_l.png,l,1,024,001,2021-04-23_17h57.56.076,searchDisc4,2020.2.10,Win32,60,,,,space,0.32955,1,1,0.52831,,0,338,338,398,1,2b,56,1,1,
,,,,,,,,,,,,,,,,,,,,,,,,,images/exp1b_trial_5_colour1_distractors43_r.png,r,2,024,001,2021-04-23_17h57.56.076,searchDisc4,2020.2.10,Win32,60,,,,space,0.249905,2,1,1.09029,,0,339,339,119,1,1b,5,1,43,
,,,,,,,,,,,,,,,,,,,,,,,,,images/exp2c_trial_72_colour3_distractors31_l.png,l,1,024,001,2021-04-23_17h57.56.076,searchDisc4,2020.2.10,Win32,60,,,,space,0.224265,1,1,0.864365,,0,340,340,528,1,2c,72,3,31,
,,,,,,,,,,,,,,,,,,,,,,,,,images/exp1b_trial_69_colour3_distractors4_l.png,l,1,024,001,2021-04-23_17h57.56.076,searchDisc4,2020.2.10,Win32,60,,,,space,0.15835,1,1,0.918495,,0,341,341,183,1,1b,69,3,4,
,,,,,,,,,,,,,,,,,,,,,,,,,images/exp2c_trial_52_colour3_distractors9_r.png,r,2,024,001,2021-04-23_17h57.56.076,searchDisc4,2020.2.10,Win32,60,,,,space,0.707535,2,1,0.64671,,0,342,342,508,1,2c,52,3,9,
,,,,,,,,,,,,,,,,,,,,,,,,,images/exp2a_trial_19_colour1_distractors4_l.png,l,1,024,001,2021-04-23_17h57.56.076,searchDisc4,2020.2.10,Win32,60,,,,space,0.24634,1,1,0.76805,,0,343,343,247,1,2a,19,1,4,
,,,,,,,,,,,,,,,,,,,,,,,,,images/exp2c_trial_27_colour2_distractors19_l.png,l,1,024,001,2021-04-23_17h57.56.076,searchDisc4,2020.2.10,Win32,60,,,,space,0.21452,1,1,0.60626,,0,344,344,483,1,2c,27,2,19,
,,,,,,,,,,,,,,,,,,,,,,,,,images/exp2c_trial_89_colour3_distractors4_r.png,r,2,024,001,2021-04-23_17h57.56.076,searchDisc4,2020.2.10,Win32,60,,,,space,0.236215,1,0,0.495285,,0,345,345,545,1,2c,89,3,4,
,,,,,,,,,,,,,,,,,,,,,,,,,images/exp2b_trial_2_colour1_distractors9_r.png,r,2,024,001,2021-04-23_17h57.56.076,searchDisc4,2020.2.10,Win32,60,,,,space,0.585635,2,1,0.41958,,0,346,346,344,1,2b,2,1,9,
,,,,,,,,,,,,,,,,,,,,,,,,,images/exp2a_trial_41_colour1_distractors19_r.png,r,2,024,001,2021-04-23_17h57.56.076,searchDisc4,2020.2.10,Win32,60,,,,space,0.299545,2,1,0.657745,,0,347,347,269,1,2a,41,1,19,
,,,,,,,,,,,,,,,,,,,,,,,,,images/exp2b_trial_29_colour2_distractors43_l.png,l,1,024,001,2021-04-23_17h57.56.076,searchDisc4,2020.2.10,Win32,60,,,,space,0.201555,1,1,0.83268,,0,348,348,371,1,2b,29,2,43,
,,,,,,,,,,,,,,,,,,,,,,,,,images/exp2a_trial_109_colour3_distractors19_l.png,l,1,024,001,2021-04-23_17h57.56.076,searchDisc4,2020.2.10,Win32,60,,,,space,0.207295,1,1,0.46383,,0,349,349,337,1,2a,109,3,19,
,,,,,,,,,,,,,,,,,,,,,,,,,images/exp2c_trial_26_colour2_distractors9_l.png,l,1,024,001,2021-04-23_17h57.56.076,searchDisc4,2020.2.10,Win32,60,,,,space,0.20041,1,1,0.6676,,0,350,350,482,1,2c,26,2,9,
,,,,,,,,,,,,,,,,,,,,,,,,,images/exp2a_trial_59_colour1_distractors19_l.png,l,1,024,001,2021-04-23_17h57.56.076,searchDisc4,2020.2.10,Win32,60,,,,space,0.17891,1,1,0.58681,,0,351,351,287,1,2a,59,1,19,
,,,,,,,,,,,,,,,,,,,,,,,,,images/exp2c_trial_1_colour1_distractors4_r.png,r,2,024,001,2021-04-23_17h57.56.076,searchDisc4,2020.2.10,Win32,60,,,,space,0.220245,2,1,0.757695,,0,352,352,457,1,2c,1,1,4,
,,,,,,,,,,,,,,,,,,,,,,,,,images/exp2c_trial_51_colour3_distractors4_r.png,r,2,024,001,2021-04-23_17h57.56.076,searchDisc4,2020.2.10,Win32,60,,,,space,0.163615,2,1,0.72592,,0,353,353,507,1,2c,51,3,4,
,,,,,,,,,,,,,,,,,,,,,,,,,images/exp1a_trial_68_colour3_distractors1_l.png,l,1,024,001,2021-04-23_17h57.56.076,searchDisc4,2020.2.10,Win32,60,,,,space,0.16543,2,0,0.6975,,0,354,354,68,1,1a,68,3,1,
,,,,,,,,,,,,,,,,,,,,,,,,,images/exp2a_trial_111_colour3_distractors43_l.png,l,1,024,001,2021-04-23_17h57.56.076,searchDisc4,2020.2.10,Win32,60,,,,space,0.518705,1,1,0.462245,,0,355,355,339,1,2a,111,3,43,
,,,,,,,,,,,,,,,,,,,,,,,,,images/exp2b_trial_4_colour1_distractors31_r.png,r,2,024,001,2021-04-23_17h57.56.076,searchDisc4,2020.2.10,Win32,60,,,,space,0.13651,2,1,0.634325,,0,356,356,346,1,2b,4,1,31,
,,,,,,,,,,,,,,,,,,,,,,,,,images/exp2b_trial_73_colour3_distractors43_l.png,l,1,024,001,2021-04-23_17h57.56.076,searchDisc4,2020.2.10,Win32,60,,,,space,0.216575,1,1,1.02089,,0,357,357,415,1,2b,73,3,43,
,,,,,,,,,,,,,,,,,,,,,,,,,images/exp1b_trial_87_colour2_distractors43_r.png,r,2,024,001,2021-04-23_17h57.56.076,searchDisc4,2020.2.10,Win32,60,,,,space,0.248245,2,1,0.951685,,0,358,358,201,1,1b,87,2,43,
,,,,,,,,,,,,,,,,,,,,,,,,,images/exp2c_trial_87_colour2_distractors43_r.png,r,2,024,001,2021-04-23_17h57.56.076,searchDisc4,2020.2.10,Win32,60,,,,space,0.18222,2,1,0.82699,space,0,359,359,543,1,2c,87,2,43,0.222335
,,,,,,,,,,,,,,,,,,,,,,,,,images/exp2a_trial_44_colour2_distractors1_r.png,r,2,024,001,2021-04-23_17h57.56.076,searchDisc4,2020.2.10,Win32,60,,,,space,1.05789,2,1,0.543135,,0,360,360,272,1,2a,44,2,1,
,,,,,,,,,,,,,,,,,,,,,,,,,images/exp2a_trial_87_colour2_distractors43_r.png,r,2,024,001,2021-04-23_17h57.56.076,searchDisc4,2020.2.10,Win32,60,,,,space,0.261715,2,1,0.742645,,0,361,361,315,1,2a,87,2,43,
,,,,,,,,,,,,,,,,,,,,,,,,,images/exp2c_trial_92_colour3_distractors31_r.png,r,2,024,001,2021-04-23_17h57.56.076,searchDisc4,2020.2.10,Win32,60,,,,space,0.151755,2,1,0.72109,,0,362,362,548,1,2c,92,3,31,
,,,,,,,,,,,,,,,,,,,,,,,,,images/exp1b_trial_95_colour1_distractors4_l.png,l,1,024,001,2021-04-23_17h57.56.076,searchDisc4,2020.2.10,Win32,60,,,,space,0.152055,1,1,0.60841,,0,363,363,209,1,1b,95,1,4,
,,,,,,,,,,,,,,,,,,,,,,,,,images/exp2c_trial_111_colour3_distractors43_l.png,l,1,024,001,2021-04-23_17h57.56.076,searchDisc4,2020.2.10,Win32,60,,,,space,0.195055,2,0,0.581375,,0,364,364,567,1,2c,111,3,43,
,,,,,,,,,,,,,,,,,,,,,,,,,images/exp2c_trial_101_colour2_distractors4_l.png,l,1,024,001,2021-04-23_17h57.56.076,searchDisc4,2020.2.10,Win32,60,,,,space,0.568935,1,1,0.645395,,0,365,365,557,1,2c,101,2,4,
,,,,,,,,,,,,,,,,,,,,,,,,,images/exp2b_trial_52_colour3_distractors9_r.png,r,2,024,001,2021-04-23_17h57.56.076,searchDisc4,2020.2.10,Win32,60,,,,space,0.217315,2,1,0.76663,,0,366,366,394,1,2b,52,3,9,
,,,,,,,,,,,,,,,,,,,,,,,,,images/exp2a_trial_31_colour3_distractors4_l.png,l,1,024,001,2021-04-23_17h57.56.076,searchDisc4,2020.2.10,Win32,60,,,,space,0.194865,1,1,0.926265,,0,367,367,259,1,2a,31,3,4,
,,,,,,,,,,,,,,,,,,,,,,,,,images/exp1a_trial_112_colour0_distractors0_r.png,r,2,024,001,2021-04-23_17h57.56.076,searchDisc4,2020.2.10,Win32,60,,,,space,0.14869,2,1,0.84548,,0,368,368,112,1,1a,112,0,0,
,,,,,,,,,,,,,,,,,,,,,,,,,images/exp2b_trial_81_colour1_distractors43_r.png,r,2,024,001,2021-04-23_17h57.56.076,searchDisc4,2020.2.10,Win32,60,,,,space,0.199915,2,1,0.78401,,0,369,369,423,1,2b,81,1,43,
,,,,,,,,,,,,,,,,,,,,,,,,,images/exp1a_trial_91_colour3_distractors19_r.png,r,2,024,001,2021-04-23_17h57.56.076,searchDisc4,2020.2.10,Win32,60,,,,space,0.213905,2,1,0.66609,,0,370,370,91,1,1a,91,3,19,
,,,,,,,,,,,,,,,,,,,,,,,,,images/exp1b_trial_0_colour1_distractors1_r.png,r,2,024,001,2021-04-23_17h57.56.076,searchDisc4,2020.2.10,Win32,60,,,,space,0.204715,2,1,0.8597,,0,371,371,114,1,1b,0,1,1,
,,,,,,,,,,,,,,,,,,,,,,,,,images/exp1a_trial_20_colour1_distractors9_l.png,l,1,024,001,2021-04-23_17h57.56.076,searchDisc4,2020.2.10,Win32,60,,,,space,0.161485,1,1,0.66681,,0,372,372,20,1,1a,20,1,9,
,,,,,,,,,,,,,,,,,,,,,,,,,images/exp2c_trial_93_colour3_distractors43_r.png,r,2,024,001,2021-04-23_17h57.56.076,searchDisc4,2020.2.10,Win32,60,,,,space,0.302765,2,1,0.92526,,0,373,373,549,1,2c,93,3,43,
,,,,,,,,,,,,,,,,,,,,,,,,,images/exp2b_trial_10_colour2_distractors31_r.png,r,2,024,001,2021-04-23_17h57.56.076,searchDisc4,2020.2.10,Win32,60,,,,space,0.134455,2,1,0.701645,,0,374,374,352,1,2b,10,2,31,
,,,,,,,,,,,,,,,,,,,,,,,,,images/exp2a_trial_13_colour3_distractors4_r.png,r,2,024,001,2021-04-23_17h57.56.076,searchDisc4,2020.2.10,Win32,60,,,,space,0.17837,2,1,0.713915,,0,375,375,241,1,2a,13,3,4,
,,,,,,,,,,,,,,,,,,,,,,,,,images/exp1b_trial_98_colour1_distractors31_l.png,l,1,024,001,2021-04-23_17h57.56.076,searchDisc4,2020.2.10,Win32,60,,,,space,0.169275,1,1,1.170515,,0,376,376,212,1,1b,98,1,31,
,,,,,,,,,,,,,,,,,,,,,,,,,images/exp2b_trial_71_colour3_distractors19_l.png,l,1,024,001,2021-04-23_17h57.56.076,searchDisc4,2020.2.10,Win32,60,,,,space,0.205445,1,1,0.782155,,0,377,377,413,1,2b,71,3,19,
,,,,,,,,,,,,,,,,,,,,,,,,,images/exp1a_trial_95_colour1_distractors4_l.png,l,1,024,001,2021-04-23_17h57.56.076,searchDisc4,2020.2.10,Win32,60,,,,space,0.25814,1,1,0.672535,,0,378,378,95,1,1a,95,1,4,
,,,,,,,,,,,,,,,,,,,,,,,,,images/exp1b_trial_23_colour1_distractors43_l.png,l,1,024,001,2021-04-23_17h57.56.076,searchDisc4,2020.2.10,Win32,60,,,,space,0.202835,1,1,0.64607,,0,379,379,137,1,1b,23,1,43,
,,,,,,,,,,,,,,,,,,,,,,,,,images/exp1b_trial_80_colour1_distractors31_r.png,r,2,024,001,2021-04-23_17h57.56.076,searchDisc4,2020.2.10,Win32,60,,,,space,0.3007,2,1,1.327285,,0,380,380,194,1,1b,80,1,31,
,,,,,,,,,,,,,,,,,,,,,,,,,images/exp1b_trial_62_colour2_distractors1_l.png,l,1,024,001,2021-04-23_17h57.56.076,searchDisc4,2020.2.10,Win32,60,,,,space,0.243415,1,1,0.67967,,0,381,381,176,1,1b,62,2,1,
,,,,,,,,,,,,,,,,,,,,,,,,,images/exp2c_trial_49_colour2_distractors43_r.png,r,2,024,001,2021-04-23_17h57.56.076,searchDisc4,2020.2.10,Win32,60,,,,space,0.227455,2,1,0.75583,,0,382,382,505,1,2c,49,2,43,
,,,,,,,,,,,,,,,,,,,,,,,,,images/exp1a_trial_17_colour3_distractors43_r.png,r,2,024,001,2021-04-23_17h57.56.076,searchDisc4,2020.2.10,Win32,60,,,,space,0.183075,2,1,0.57422,,0,383,383,17,1,1a,17,3,43,
,,,,,,,,,,,,,,,,,,,,,,,,,images/exp2a_trial_35_colour3_distractors43_l.png,l,1,024,001,2021-04-23_17h57.56.076,searchDisc4,2020.2.10,Win32,60,,,,space,0.24026,1,1,0.5787,,0,384,384,263,1,2a,35,3,43,
,,,,,,,,,,,,,,,,,,,,,,,,,images/exp2c_trial_96_colour1_distractors9_l.png,l,1,024,001,2021-04-23_17h57.56.076,searchDisc4,2020.2.10,Win32,60,,,,space,0.233185,1,1,0.58282,,0,385,385,552,1,2c,96,1,9,
,,,,,,,,,,,,,,,,,,,,,,,,,images/exp2c_trial_98_colour1_distractors31_l.png,l,1,024,001,2021-04-23_17h57.56.076,searchDisc4,2020.2.10,Win32,60,,,,space,0.210985,1,1,0.499905,,0,386,386,554,1,2c,98,1,31,
,,,,,,,,,,,,,,,,,,,,,,,,,images/exp2b_trial_97_colour1_distractors19_l.png,l,1,024,001,2021-04-23_17h57.56.076,searchDisc4,2020.2.10,Win32,60,,,,space,0.2284,1,1,0.440335,,0,387,387,439,1,2b,97,1,19,
,,,,,,,,,,,,,,,,,,,,,,,,,images/exp2b_trial_82_colour2_distractors1_r.png,r,2,024,001,2021-04-23_17h57.56.076,searchDisc4,2020.2.10,Win32,60,,,,space,0.198075,2,1,0.51153,,0,388,388,424,1,2b,82,2,1,
,,,,,,,,,,,,,,,,,,,,,,,,,images/exp1a_trial_56_colour1_distractors1_l.png,l,1,024,001,2021-04-23_17h57.56.076,searchDisc4,2020.2.10,Win32,60,,,,space,0.147335,1,1,0.74167,,0,389,389,56,1,1a,56,1,1,
,,,,,,,,,,,,,,,,,,,,,,,,,images/exp2c_trial_29_colour2_distractors43_l.png,l,1,024,001,2021-04-23_17h57.56.076,searchDisc4,2020.2.10,Win32,60,,,,space,0.22928,1,1,0.572385,,0,390,390,485,1,2c,29,2,43,
,,,,,,,,,,,,,,,,,,,,,,,,,images/exp2a_trial_60_colour1_distractors31_l.png,l,1,024,001,2021-04-23_17h57.56.076,searchDisc4,2020.2.10,Win32,60,,,,space,0.20105,1,1,0.675345,,0,391,391,288,1,2a,60,1,31,
,,,,,,,,,,,,,,,,,,,,,,,,,images/exp2a_trial_43_colour1_distractors43_r.png,r,2,024,001,2021-04-23_17h57.56.076,searchDisc4,2020.2.10,Win32,60,,,,space,0.161055,2,1,0.894315,,0,392,392,271,1,2a,43,1,43,
,,,,,,,,,,,,,,,,,,,,,,,,,images/exp2c_trial_44_colour2_distractors1_r.png,r,2,024,001,2021-04-23_17h57.56.076,searchDisc4,2020.2.10,Win32,60,,,,space,0.15208,2,1,0.49033,,0,393,393,500,1,2c,44,2,1,
,,,,,,,,,,,,,,,,,,,,,,,,,images/exp1b_trial_83_colour2_distractors4_r.png,r,2,024,001,2021-04-23_17h57.56.076,searchDisc4,2020.2.10,Win32,60,,,,space,0.141575,2,1,0.55214,,0,394,394,197,1,1b,83,2,4,
,,,,,,,,,,,,,,,,,,,,,,,,,images/exp1a_trial_4_colour1_distractors31_r.png,r,2,024,001,2021-04-23_17h57.56.076,searchDisc4,2020.2.10,Win32,60,,,,space,0.159045,2,1,0.49983,,0,395,395,4,1,1a,4,1,31,
,,,,,,,,,,,,,,,,,,,,,,,,,images/exp1b_trial_56_colour1_distractors1_l.png,l,1,024,001,2021-04-23_17h57.56.076,searchDisc4,2020.2.10,Win32,60,,,,space,0.128465,2,0,0.494765,,0,396,396,170,1,1b,56,1,1,
,,,,,,,,,,,,,,,,,,,,,,,,,images/exp2b_trial_91_colour3_distractors19_r.png,r,2,024,001,2021-04-23_17h57.56.076,searchDisc4,2020.2.10,Win32,60,,,,space,0.505855,1,0,0.46993,,0,397,397,433,1,2b,91,3,19,
,,,,,,,,,,,,,,,,,,,,,,,,,images/exp1b_trial_22_colour1_distractors31_l.png,l,1,024,001,2021-04-23_17h57.56.076,searchDisc4,2020.2.10,Win32,60,,,,space,0.662405,1,1,0.84325,,0,398,398,136,1,1b,22,1,31,
,,,,,,,,,,,,,,,,,,,,,,,,,images/exp1a_trial_24_colour2_distractors1_l.png,l,1,024,001,2021-04-23_17h57.56.076,searchDisc4,2020.2.10,Win32,60,,,,space,0.303425,1,1,0.66588,,0,399,399,24,1,1a,24,2,1,
,,,,,,,,,,,,,,,,,,,,,,,,,images/exp1a_trial_38_colour1_distractors1_r.png,r,2,024,001,2021-04-23_17h57.56.076,searchDisc4,2020.2.10,Win32,60,,,,space,0.166125,1,0,0.740785,,0,400,400,38,1,1a,38,1,1,
,,,,,,,,,,,,,,,,,,,,,,,,,images/exp2c_trial_76_colour1_distractors1_r.png,r,2,024,001,2021-04-23_17h57.56.076,searchDisc4,2020.2.10,Win32,60,,,,space,0.643245,2,1,0.399475,,0,401,401,532,1,2c,76,1,1,
,,,,,,,,,,,,,,,,,,,,,,,,,images/exp2a_trial_62_colour2_distractors1_l.png,l,1,024,001,2021-04-23_17h57.56.076,searchDisc4,2020.2.10,Win32,60,,,,space,0.517055,1,1,0.565725,,0,402,402,290,1,2a,62,2,1,
,,,,,,,,,,,,,,,,,,,,,,,,,images/exp1b_trial_55_colour3_distractors43_r.png,r,2,024,001,2021-04-23_17h57.56.076,searchDisc4,2020.2.10,Win32,60,,,,space,0.529525,2,1,2.292515,,0,403,403,169,1,1b,55,3,43,
,,,,,,,,,,,,,,,,,,,,,,,,,images/exp2a_trial_5_colour1_distractors43_r.png,r,2,024,001,2021-04-23_17h57.56.076,searchDisc4,2020.2.10,Win32,60,,,,space,0.237025,2,1,1.228065,,0,404,404,233,1,2a,5,1,43,
,,,,,,,,,,,,,,,,,,,,,,,,,images/exp1a_trial_110_colour3_distractors31_l.png,l,1,024,001,2021-04-23_17h57.56.076,searchDisc4,2020.2.10,Win32,60,,,,space,0.25292,1,1,0.850105,,0,405,405,110,1,1a,110,3,31,
,,,,,,,,,,,,,,,,,,,,,,,,,images/exp2c_trial_97_colour1_distractors19_l.png,l,1,024,001,2021-04-23_17h57.56.076,searchDisc4,2020.2.10,Win32,60,,,,space,0.193015,1,1,0.70535,,0,406,406,553,1,2c,97,1,19,
,,,,,,,,,,,,,,,,,,,,,,,,,images/exp2b_trial_65_colour2_distractors19_l.png,l,1,024,001,2021-04-23_17h57.56.076,searchDisc4,2020.2.10,Win32,60,,,,space,0.22944,1,1,0.67689,,0,407,407,407,1,2b,65,2,19,
,,,,,,,,,,,,,,,,,,,,,,,,,images/exp2a_trial_112_colour0_distractors0_r.png,r,2,024,001,2021-04-23_17h57.56.076,searchDisc4,2020.2.10,Win32,60,,,,space,0.185135,2,1,0.671745,,0,408,408,340,1,2a,112,0,0,
,,,,,,,,,,,,,,,,,,,,,,,,,images/exp2b_trial_99_colour1_distractors43_l.png,l,1,024,001,2021-04-23_17h57.56.076,searchDisc4,2020.2.10,Win32,60,,,,space,0.19673,1,1,0.74707,,0,409,409,441,1,2b,99,1,43,
,,,,,,,,,,,,,,,,,,,,,,,,,images/exp2c_trial_62_colour2_distractors1_l.png,l,1,024,001,2021-04-23_17h57.56.076,searchDisc4,2020.2.10,Win32,60,,,,space,0.172055,1,1,0.674175,,0,410,410,518,1,2c,62,2,1,
,,,,,,,,,,,,,,,,,,,,,,,,,images/exp2c_trial_48_colour2_distractors31_r.png,r,2,024,001,2021-04-23_17h57.56.076,searchDisc4,2020.2.10,Win32,60,,,,space,0.197865,2,1,0.757175,,0,411,411,504,1,2c,48,2,31,
,,,,,,,,,,,,,,,,,,,,,,,,,images/exp2a_trial_96_colour1_distractors9_l.png,l,1,024,001,2021-04-23_17h57.56.076,searchDisc4,2020.2.10,Win32,60,,,,space,0.22916,1,1,0.632605,,0,412,412,324,1,2a,96,1,9,
,,,,,,,,,,,,,,,,,,,,,,,,,images/exp2a_trial_55_colour3_distractors43_r.png,r,2,024,001,2021-04-23_17h57.56.076,searchDisc4,2020.2.10,Win32,60,,,,space,0.226135,2,1,0.70818,,0,413,413,283,1,2a,55,3,43,
,,,,,,,,,,,,,,,,,,,,,,,,,images/exp1a_trial_70_colour3_distractors9_l.png,l,1,024,001,2021-04-23_17h57.56.076,searchDisc4,2020.2.10,Win32,60,,,,space,0.172475,1,1,0.844575,,0,414,414,70,1,1a,70,3,9,
,,,,,,,,,,,,,,,,,,,,,,,,,images/exp2a_trial_57_colour1_distractors4_l.png,l,1,024,001,2021-04-23_17h57.56.076,searchDisc4,2020.2.10,Win32,60,,,,space,0.270715,1,1,0.766515,,0,415,415,285,1,2a,57,1,4,
,,,,,,,,,,,,,,,,,,,,,,,,,images/exp1b_trial_17_colour3_distractors43_r.png,r,2,024,001,2021-04-23_17h57.56.076,searchDisc4,2020.2.10,Win32,60,,,,space,0.262535,2,1,1.041575,,0,416,416,131,1,1b,17,3,43,
,,,,,,,,,,,,,,,,,,,,,,,,,images/exp1a_trial_82_colour2_distractors1_r.png,r,2,024,001,2021-04-23_17h57.56.076,searchDisc4,2020.2.10,Win32,60,,,,space,0.248355,2,1,0.62872,,0,417,417,82,1,1a,82,2,1,
,,,,,,,,,,,,,,,,,,,,,,,,,images/exp2b_trial_110_colour3_distractors31_l.png,l,1,024,001,2021-04-23_17h57.56.076,searchDisc4,2020.2.10,Win32,60,,,,space,0.25997,1,1,0.679775,,0,418,418,452,1,2b,110,3,31,
,,,,,,,,,,,,,,,,,,,,,,,,,images/exp2b_trial_61_colour1_distractors43_l.png,l,1,024,001,2021-04-23_17h57.56.076,searchDisc4,2020.2.10,Win32,60,,,,space,0.230605,1,1,0.82378,space,0,419,419,403,1,2b,61,1,43,0.221625
,,,,,,,,,,,,,,,,,,,,,,,,,images/exp1b_trial_49_colour2_distractors43_r.png,r,2,024,001,2021-04-23_17h57.56.076,searchDisc4,2020.2.10,Win32,60,,,,space,1.46123,2,1,0.595485,,0,420,420,163,1,1b,49,2,43,
,,,,,,,,,,,,,,,,,,,,,,,,,images/exp1b_trial_71_colour3_distractors19_l.png,l,1,024,001,2021-04-23_17h57.56.076,searchDisc4,2020.2.10,Win32,60,,,,space,0.27802,1,1,1.121875,,0,421,421,185,1,1b,71,3,19,
,,,,,,,,,,,,,,,,,,,,,,,,,images/exp2a_trial_68_colour3_distractors1_l.png,l,1,024,001,2021-04-23_17h57.56.076,searchDisc4,2020.2.10,Win32,60,,,,space,0.20418,1,1,0.61882,,0,422,422,296,1,2a,68,3,1,
,,,,,,,,,,,,,,,,,,,,,,,,,images/exp1b_trial_67_colour2_distractors43_l.png,l,1,024,001,2021-04-23_17h57.56.076,searchDisc4,2020.2.10,Win32,60,,,,space,0.18384,2,0,0.955015,,0,423,423,181,1,1b,67,2,43,
,,,,,,,,,,,,,,,,,,,,,,,,,images/exp2b_trial_17_colour3_distractors43_r.png,r,2,024,001,2021-04-23_17h57.56.076,searchDisc4,2020.2.10,Win32,60,,,,space,0.67808,2,1,0.778925,,0,424,424,359,1,2b,17,3,43,
,,,,,,,,,,,,,,,,,,,,,,,,,images/exp1a_trial_23_colour1_distractors43_l.png,l,1,024,001,2021-04-23_17h57.56.076,searchDisc4,2020.2.10,Win32,60,,,,space,0.201175,1,1,0.61559,,0,425,425,23,1,1a,23,1,43,
,,,,,,,,,,,,,,,,,,,,,,,,,images/exp1b_trial_112_colour0_distractors0_r.png,r,2,024,001,2021-04-23_17h57.56.076,searchDisc4,2020.2.10,Win32,60,,,,space,0.19165,2,1,0.60995,,0,426,426,226,1,1b,112,0,0,
,,,,,,,,,,,,,,,,,,,,,,,,,images/exp1b_trial_91_colour3_distractors19_r.png,r,2,024,001,2021-04-23_17h57.56.076,searchDisc4,2020.2.10,Win32,60,,,,space,0.14208,2,1,1.66188,,0,427,427,205,1,1b,91,3,19,
,,,,,,,,,,,,,,,,,,,,,,,,,images/exp2a_trial_32_colour3_distractors9_l.png,l,1,024,001,2021-04-23_17h57.56.076,searchDisc4,2020.2.10,Win32,60,,,,space,0.14717,1,1,0.67177,,0,428,428,260,1,2a,32,3,9,
,,,,,,,,,,,,,,,,,,,,,,,,,images/exp1b_trial_27_colour2_distractors19_l.png,l,1,024,001,2021-04-23_17h57.56.076,searchDisc4,2020.2.10,Win32,60,,,,space,0.16833,2,0,0.661355,,0,429,429,141,1,1b,27,2,19,
,,,,,,,,,,,,,,,,,,,,,,,,,images/exp2c_trial_104_colour2_distractors31_l.png,l,1,024,001,2021-04-23_17h57.56.076,searchDisc4,2020.2.10,Win32,60,,,,space,0.401025,1,1,1.14962,,0,430,430,560,1,2c,104,2,31,
,,,,,,,,,,,,,,,,,,,,,,,,,images/exp1b_trial_3_colour1_distractors19_r.png,r,2,024,001,2021-04-23_17h57.56.076,searchDisc4,2020.2.10,Win32,60,,,,space,0.235255,1,0,0.718965,,0,431,431,117,1,1b,3,1,19,
,,,,,,,,,,,,,,,,,,,,,,,,,images/exp2c_trial_75_colour0_distractors0_l.png,l,1,024,001,2021-04-23_17h57.56.076,searchDisc4,2020.2.10,Win32,60,,,,space,0.42047,1,1,0.55351,,0,432,432,531,1,2c,75,0,0,
,,,,,,,,,,,,,,,,,,,,,,,,,images/exp2c_trial_106_colour3_distractors1_l.png,l,1,024,001,2021-04-23_17h57.56.076,searchDisc4,2020.2.10,Win32,60,,,,space,0.287515,1,1,0.656275,,0,433,433,562,1,2c,106,3,1,
,,,,,,,,,,,,,,,,,,,,,,,,,images/exp2a_trial_101_colour2_distractors4_l.png,l,1,024,001,2021-04-23_17h57.56.076,searchDisc4,2020.2.10,Win32,60,,,,space,0.211045,1,1,0.612555,,0,434,434,329,1,2a,101,2,4,
,,,,,,,,,,,,,,,,,,,,,,,,,images/exp2c_trial_24_colour2_distractors1_l.png,l,1,024,001,2021-04-23_17h57.56.076,searchDisc4,2020.2.10,Win32,60,,,,space,0.20681,1,1,0.56912,,0,435,435,480,1,2c,24,2,1,
,,,,,,,,,,,,,,,,,,,,,,,,,images/exp2b_trial_100_colour2_distractors1_l.png,l,1,024,001,2021-04-23_17h57.56.076,searchDisc4,2020.2.10,Win32,60,,,,space,0.201965,1,1,0.64547,,0,436,436,442,1,2b,100,2,1,
,,,,,,,,,,,,,,,,,,,,,,,,,images/exp1b_trial_39_colour1_distractors4_r.png,r,2,024,001,2021-04-23_17h57.56.076,searchDisc4,2020.2.10,Win32,60,,,,space,0.18587,2,1,0.570755,,0,437,437,153,1,1b,39,1,4,
,,,,,,,,,,,,,,,,,,,,,,,,,images/exp1b_trial_61_colour1_distractors43_l.png,l,1,024,001,2021-04-23_17h57.56.076,searchDisc4,2020.2.10,Win32,60,,,,space,0.16054,1,1,0.91275,,0,438,438,175,1,1b,61,1,43,
,,,,,,,,,,,,,,,,,,,,,,,,,images/exp2b_trial_55_colour3_distractors43_r.png,r,2,024,001,2021-04-23_17h57.56.076,searchDisc4,2020.2.10,Win32,60,,,,space,0.15763,2,1,0.805105,,0,439,439,397,1,2b,55,3,43,
,,,,,,,,,,,,,,,,,,,,,,,,,images/exp2a_trial_38_colour1_distractors1_r.png,r,2,024,001,2021-04-23_17h57.56.076,searchDisc4,2020.2.10,Win32,60,,,,space,0.121505,2,1,0.63977,,0,440,440,266,1,2a,38,1,1,
,,,,,,,,,,,,,,,,,,,,,,,,,images/exp1b_trial_108_colour3_distractors9_l.png,l,1,024,001,2021-04-23_17h57.56.076,searchDisc4,2020.2.10,Win32,60,,,,space,0.18366,1,1,0.70238,,0,441,441,222,1,1b,108,3,9,
,,,,,,,,,,,,,,,,,,,,,,,,,images/exp1a_trial_15_colour3_distractors19_r.png,r,2,024,001,2021-04-23_17h57.56.076,searchDisc4,2020.2.10,Win32,60,,,,space,0.213445,2,1,0.65961,,0,442,442,15,1,1a,15,3,19,
,,,,,,,,,,,,,,,,,,,,,,,,,images/exp1a_trial_49_colour2_distractors43_r.png,r,2,024,001,2021-04-23_17h57.56.076,searchDisc4,2020.2.10,Win32,60,,,,space,0.223625,2,1,0.64717,,0,443,443,49,1,1a,49,2,43,
,,,,,,,,,,,,,,,,,,,,,,,,,images/exp2a_trial_105_colour2_distractors43_l.png,l,1,024,001,2021-04-23_17h57.56.076,searchDisc4,2020.2.10,Win32,60,,,,space,0.2004,1,1,0.717765,,0,444,444,333,1,2a,105,2,43,
,,,,,,,,,,,,,,,,,,,,,,,,,images/exp1a_trial_100_colour2_distractors1_l.png,l,1,024,001,2021-04-23_17h57.56.076,searchDisc4,2020.2.10,Win32,60,,,,space,0.27211,1,1,0.627765,,0,445,445,100,1,1a,100,2,1,
,,,,,,,,,,,,,,,,,,,,,,,,,images/exp2a_trial_26_colour2_distractors9_l.png,l,1,024,001,2021-04-23_17h57.56.076,searchDisc4,2020.2.10,Win32,60,,,,space,0.28412,1,1,0.56074,,0,446,446,254,1,2a,26,2,9,
,,,,,,,,,,,,,,,,,,,,,,,,,images/exp2c_trial_65_colour2_distractors19_l.png,l,1,024,001,2021-04-23_17h57.56.076,searchDisc4,2020.2.10,Win32,60,,,,space,0.174775,1,1,0.730565,,0,447,447,521,1,2c,65,2,19,
,,,,,,,,,,,,,,,,,,,,,,,,,images/exp2b_trial_106_colour3_distractors1_l.png,l,1,024,001,2021-04-23_17h57.56.076,searchDisc4,2020.2.10,Win32,60,,,,space,0.197175,1,1,1.38158,,0,448,448,448,1,2b,106,3,1,
,,,,,,,,,,,,,,,,,,,,,,,,,images/exp2c_trial_67_colour2_distractors43_l.png,l,1,024,001,2021-04-23_17h57.56.076,searchDisc4,2020.2.10,Win32,60,,,,space,0.168775,1,1,1.14228,,0,449,449,523,1,2c,67,2,43,
,,,,,,,,,,,,,,,,,,,,,,,,,images/exp2c_trial_6_colour2_distractors1_r.png,r,2,024,001,2021-04-23_17h57.56.076,searchDisc4,2020.2.10,Win32,60,,,,space,0.17937,2,1,0.836985,,0,450,450,462,1,2c,6,2,1,
,,,,,,,,,,,,,,,,,,,,,,,,,images/exp2c_trial_110_colour3_distractors31_l.png,l,1,024,001,2021-04-23_17h57.56.076,searchDisc4,2020.2.10,Win32,60,,,,space,0.127385,1,1,1.106135,,0,451,451,566,1,2c,110,3,31,
,,,,,,,,,,,,,,,,,,,,,,,,,images/exp2c_trial_31_colour3_distractors4_l.png,l,1,024,001,2021-04-23_17h57.56.076,searchDisc4,2020.2.10,Win32,60,,,,space,0.18725,1,1,0.69303,,0,452,452,487,1,2c,31,3,4,
,,,,,,,,,,,,,,,,,,,,,,,,,images/exp2b_trial_113_colour0_distractors0_l.png,l,1,024,001,2021-04-23_17h57.56.076,searchDisc4,2020.2.10,Win32,60,,,,space,0.16592,1,1,0.488735,,0,453,453,455,1,2b,113,0,0,
,,,,,,,,,,,,,,,,,,,,,,,,,images/exp2c_trial_21_colour1_distractors19_l.png,l,1,024,001,2021-04-23_17h57.56.076,searchDisc4,2020.2.10,Win32,60,,,,space,0.232965,1,1,0.70614,,0,454,454,477,1,2c,21,1,19,
,,,,,,,,,,,,,,,,,,,,,,,,,images/exp2b_trial_33_colour3_distractors19_l.png,l,1,024,001,2021-04-23_17h57.56.076,searchDisc4,2020.2.10,Win32,60,,,,space,0.242865,1,1,0.678205,,0,455,455,375,1,2b,33,3,19,
,,,,,,,,,,,,,,,,,,,,,,,,,images/exp2c_trial_94_colour1_distractors1_l.png,l,1,024,001,2021-04-23_17h57.56.076,searchDisc4,2020.2.10,Win32,60,,,,space,0.25934,1,1,0.59909,,0,456,456,550,1,2c,94,1,1,
,,,,,,,,,,,,,,,,,,,,,,,,,images/exp1b_trial_13_colour3_distractors4_r.png,r,2,024,001,2021-04-23_17h57.56.076,searchDisc4,2020.2.10,Win32,60,,,,space,0.252815,2,1,0.703235,,0,457,457,127,1,1b,13,3,4,
,,,,,,,,,,,,,,,,,,,,,,,,,images/exp1a_trial_102_colour2_distractors9_l.png,l,1,024,001,2021-04-23_17h57.56.076,searchDisc4,2020.2.10,Win32,60,,,,space,0.202605,1,1,1.03727,,0,458,458,102,1,1a,102,2,9,
,,,,,,,,,,,,,,,,,,,,,,,,,images/exp2b_trial_20_colour1_distractors9_l.png,l,1,024,001,2021-04-23_17h57.56.076,searchDisc4,2020.2.10,Win32,60,,,,space,0.16164,1,1,0.64,,0,459,459,362,1,2b,20,1,9,
,,,,,,,,,,,,,,,,,,,,,,,,,images/exp1b_trial_106_colour3_distractors1_l.png,l,1,024,001,2021-04-23_17h57.56.076,searchDisc4,2020.2.10,Win32,60,,,,space,0.160915,1,1,0.599955,,0,460,460,220,1,1b,106,3,1,
,,,,,,,,,,,,,,,,,,,,,,,,,images/exp2c_trial_108_colour3_distractors9_l.png,l,1,024,001,2021-04-23_17h57.56.076,searchDisc4,2020.2.10,Win32,60,,,,space,0.212005,1,1,0.8029,,0,461,461,564,1,2c,108,3,9,
,,,,,,,,,,,,,,,,,,,,,,,,,images/exp2c_trial_59_colour1_distractors19_l.png,l,1,024,001,2021-04-23_17h57.56.076,searchDisc4,2020.2.10,Win32,60,,,,space,0.166495,1,1,0.594955,,0,462,462,515,1,2c,59,1,19,
,,,,,,,,,,,,,,,,,,,,,,,,,images/exp2a_trial_102_colour2_distractors9_l.png,l,1,024,001,2021-04-23_17h57.56.076,searchDisc4,2020.2.10,Win32,60,,,,space,0.212265,1,1,0.525535,,0,463,463,330,1,2a,102,2,9,
,,,,,,,,,,,,,,,,,,,,,,,,,images/exp1a_trial_79_colour1_distractors19_r.png,r,2,024,001,2021-04-23_17h57.56.076,searchDisc4,2020.2.10,Win32,60,,,,space,0.24984,2,1,0.67642,,0,464,464,79,1,1a,79,1,19,
,,,,,,,,,,,,,,,,,,,,,,,,,images/exp1a_trial_109_colour3_distractors19_l.png,l,1,024,001,2021-04-23_17h57.56.076,searchDisc4,2020.2.10,Win32,60,,,,space,0.253285,1,1,0.526765,,0,465,465,109,1,1a,109,3,19,
,,,,,,,,,,,,,,,,,,,,,,,,,images/exp1a_trial_5_colour1_distractors43_r.png,r,2,024,001,2021-04-23_17h57.56.076,searchDisc4,2020.2.10,Win32,60,,,,space,0.26309,1,0,0.57132,,0,466,466,5,1,1a,5,1,43,
,,,,,,,,,,,,,,,,,,,,,,,,,images/exp2c_trial_57_colour1_distractors4_l.png,l,1,024,001,2021-04-23_17h57.56.076,searchDisc4,2020.2.10,Win32,60,,,,space,0.435205,1,1,0.5294,,0,467,467,513,1,2c,57,1,4,
,,,,,,,,,,,,,,,,,,,,,,,,,images/exp1a_trial_8_colour2_distractors9_r.png,r,2,024,001,2021-04-23_17h57.56.076,searchDisc4,2020.2.10,Win32,60,,,,space,0.280125,2,1,0.51298,,0,468,468,8,1,1a,8,2,9,
,,,,,,,,,,,,,,,,,,,,,,,,,images/exp2c_trial_25_colour2_distractors4_l.png,l,1,024,001,2021-04-23_17h57.56.076,searchDisc4,2020.2.10,Win32,60,,,,space,0.23813,1,1,0.54282,,0,469,469,481,1,2c,25,2,4,
,,,,,,,,,,,,,,,,,,,,,,,,,images/exp2a_trial_25_colour2_distractors4_l.png,l,1,024,001,2021-04-23_17h57.56.076,searchDisc4,2020.2.10,Win32,60,,,,space,0.29184,1,1,0.51093,,0,470,470,253,1,2a,25,2,4,
,,,,,,,,,,,,,,,,,,,,,,,,,images/exp2b_trial_15_colour3_distractors19_r.png,r,2,024,001,2021-04-23_17h57.56.076,searchDisc4,2020.2.10,Win32,60,,,,space,0.31793,2,1,1.021845,,0,471,471,357,1,2b,15,3,19,
,,,,,,,,,,,,,,,,,,,,,,,,,images/exp1a_trial_88_colour3_distractors1_r.png,r,2,024,001,2021-04-23_17h57.56.076,searchDisc4,2020.2.10,Win32,60,,,,space,0.242815,2,1,0.442605,,0,472,472,88,1,1a,88,3,1,
,,,,,,,,,,,,,,,,,,,,,,,,,images/exp2c_trial_32_colour3_distractors9_l.png,l,1,024,001,2021-04-23_17h57.56.076,searchDisc4,2020.2.10,Win32,60,,,,space,0.229255,2,0,0.541975,,0,473,473,488,1,2c,32,3,9,
,,,,,,,,,,,,,,,,,,,,,,,,,images/exp1a_trial_9_colour2_distractors19_r.png,r,2,024,001,2021-04-23_17h57.56.076,searchDisc4,2020.2.10,Win32,60,,,,space,0.4679,2,1,0.88029,,0,474,474,9,1,1a,9,2,19,
,,,,,,,,,,,,,,,,,,,,,,,,,images/exp2c_trial_64_colour2_distractors9_l.png,l,1,024,001,2021-04-23_17h57.56.076,searchDisc4,2020.2.10,Win32,60,,,,space,0.29917,1,1,0.71019,,0,475,475,520,1,2c,64,2,9,
,,,,,,,,,,,,,,,,,,,,,,,,,images/exp1a_trial_113_colour0_distractors0_l.png,l,1,024,001,2021-04-23_17h57.56.076,searchDisc4,2020.2.10,Win32,60,,,,space,0.227265,1,1,0.518,,0,476,476,113,1,1a,113,0,0,
