X Scale,Y Scale,key_resp_10.keys,key_resp_10.rt,key_resp_11.keys,key_resp_11.rt,key_resp_12.keys,key_resp_12.rt,key_resp_13.keys,key_resp_13.rt,key_resp_5.keys,key_resp_5.rt,key_resp_8.keys,key_resp_8.rt,key_resp_6.keys,key_resp_6.rt,key_resp_7.keys,key_resp_7.rt,key_resp_4.keys,key_resp_4.corr,trials_2.thisRepN,trials_2.thisTrialN,trials_2.thisN,trials_2.thisIndex,trials_2.ran,ImageFile,targ_side,correctAnswer,participant,session,date,expName,psychopyVersion,OS,frameRate,key_resp_4.rt,key_resp_3.keys,key_resp_3.rt,key_resp_9.keys,key_resp_9.rt,key_resp_2.keys,key_resp_2.corr,key_resp_2.rt,key_resp.keys,trials.thisRepN,trials.thisTrialN,trials.thisN,trials.thisIndex,trials.ran,exp,trial,colour,distNo,key_resp.rt
23.2,22.4,space,9.259985,space,32.17185,space,4.66058,space,3.948905,space,10.34897,space,20.56464,space,39.01547,space,12.757125,,0,0,0,0,2,1,Practice arrays/exp1a_trial_5_colour1_distractors43_r.png,r,2,024,001,2021-04-23_19h11.24.605,searchDisc4,2020.2.10,Win32,60,,,,,,,,,,,,,,,,,,,
,,,,,,,,,,,,,,,,space,6.509855,,0,0,1,1,5,1,Practice arrays/exp1a_trial_10_colour2_distractors31_r.png,r,2,024,001,2021-04-23_19h11.24.605,searchDisc4,2020.2.10,Win32,60,,,,,,,,,,,,,,,,,,,
,,,,,,,,,,,,,,,,space,3.45633,2,0,0,2,2,11,1,Practice arrays/exp1a_trial_21_colour1_distractors19_l.png,l,1,024,001,2021-04-23_19h11.24.605,searchDisc4,2020.2.10,Win32,60,3.09073,,,,,,,,,,,,,,,,,,
,,,,,,,,,,,,,,,,space,1.86951,1,1,0,3,3,10,1,Practice arrays/exp1a_trial_20_colour1_distractors9_l.png,l,1,024,001,2021-04-23_19h11.24.605,searchDisc4,2020.2.10,Win32,60,2.05061,,,,,,,,,,,,,,,,,,
,,,,,,,,,,,,,,,,space,4.66191,1,1,0,4,4,15,1,Practice arrays/exp1a_trial_32_colour3_distractors9_l.png,l,1,024,001,2021-04-23_19h11.24.605,searchDisc4,2020.2.10,Win32,60,1.50175,,,,,,,,,,,,,,,,,,
,,,,,,,,,,,,,,,,space,1.50157,2,1,0,5,5,4,1,Practice arrays/exp1a_trial_8_colour2_distractors9_r.png,r,2,024,001,2021-04-23_19h11.24.605,searchDisc4,2020.2.10,Win32,60,1.276235,,,,,,,,,,,,,,,,,,
,,,,,,,,,,,,,,,,space,1.618145,2,1,0,6,6,1,1,Practice arrays/exp1a_trial_3_colour1_distractors19_r.png,r,2,024,001,2021-04-23_19h11.24.605,searchDisc4,2020.2.10,Win32,60,2.58614,,,,,,,,,,,,,,,,,,
,,,,,,,,,,,,,,,,space,1.922715,1,1,0,7,7,13,1,Practice arrays/exp1a_trial_28_colour2_distractors31_l.png,l,1,024,001,2021-04-23_19h11.24.605,searchDisc4,2020.2.10,Win32,60,1.08971,,,,,,,,,,,,,,,,,,
,,,,,,,,,,,,,,,,space,1.25672,2,1,0,8,8,18,1,Practice arrays/exp1a_trial_36_colour0_distractors0_r.png,r,2,024,001,2021-04-23_19h11.24.605,searchDisc4,2020.2.10,Win32,60,0.852895,,,,,,,,,,,,,,,,,,
,,,,,,,,,,,,,,,,space,1.14627,2,1,0,9,9,8,1,Practice arrays/exp1a_trial_16_colour3_distractors31_r.png,r,2,024,001,2021-04-23_19h11.24.605,searchDisc4,2020.2.10,Win32,60,1.220525,,,,,,,,,,,,,,,,,,
,,,,,,,,,,,,,,,,space,0.9584,1,1,0,10,10,19,1,Practice arrays/exp1a_trial_37_colour0_distractors0_l.png,l,1,024,001,2021-04-23_19h11.24.605,searchDisc4,2020.2.10,Win32,60,1.111755,,,,,,,,,,,,,,,,,,
,,,,,,,,,,,,,,,,space,0.726445,1,1,0,11,11,12,1,Practice arrays/exp1a_trial_25_colour2_distractors4_l.png,l,1,024,001,2021-04-23_19h11.24.605,searchDisc4,2020.2.10,Win32,60,1.15242,,,,,,,,,,,,,,,,,,
,,,,,,,,,,,,,,,,space,1.35704,1,1,0,12,12,16,1,Practice arrays/exp1a_trial_33_colour3_distractors19_l.png,l,1,024,001,2021-04-23_19h11.24.605,searchDisc4,2020.2.10,Win32,60,1.051625,,,,,,,,,,,,,,,,,,
,,,,,,,,,,,,,,,,space,0.75111,1,1,0,13,13,9,1,Practice arrays/exp1a_trial_19_colour1_distractors4_l.png,l,1,024,001,2021-04-23_19h11.24.605,searchDisc4,2020.2.10,Win32,60,1.285515,,,,,,,,,,,,,,,,,,
,,,,,,,,,,,,,,,,space,0.73616,2,1,0,14,14,0,1,Practice arrays/exp1a_trial_0_colour1_distractors1_r.png,r,2,024,001,2021-04-23_19h11.24.605,searchDisc4,2020.2.10,Win32,60,1.128395,,,,,,,,,,,,,,,,,,
,,,,,,,,,,,,,,,,space,0.753475,2,1,0,15,15,7,1,Practice arrays/exp1a_trial_13_colour3_distractors4_r.png,r,2,024,001,2021-04-23_19h11.24.605,searchDisc4,2020.2.10,Win32,60,1.0008,,,,,,,,,,,,,,,,,,
,,,,,,,,,,,,,,,,space,0.528205,2,1,0,16,16,6,1,Practice arrays/exp1a_trial_12_colour3_distractors1_r.png,r,2,024,001,2021-04-23_19h11.24.605,searchDisc4,2020.2.10,Win32,60,1.179205,,,,,,,,,,,,,,,,,,
,,,,,,,,,,,,,,,,space,1.519995,1,1,0,17,17,14,1,Practice arrays/exp1a_trial_29_colour2_distractors43_l.png,l,1,024,001,2021-04-23_19h11.24.605,searchDisc4,2020.2.10,Win32,60,2.22049,,,,,,,,,,,,,,,,,,
,,,,,,,,,,,,,,,,space,0.764865,2,1,0,18,18,3,1,Practice arrays/exp1a_trial_7_colour2_distractors4_r.png,r,2,024,001,2021-04-23_19h11.24.605,searchDisc4,2020.2.10,Win32,60,1.36094,,,,,,,,,,,,,,,,,,
,,,,,,,,,,,,,,,,space,0.201605,1,1,0,19,19,17,1,Practice arrays/exp1a_trial_35_colour3_distractors43_l.png,l,1,024,001,2021-04-23_19h11.24.605,searchDisc4,2020.2.10,Win32,60,1.109245,,,,,,,,,,,,,,,,,,
,,,,,,,,,,,,,,,,,,,,,,,,,images/exp1b_trial_46_colour2_distractors9_r.png,r,2,024,001,2021-04-23_19h11.24.605,searchDisc4,2020.2.10,Win32,60,,space,10.17432,space,3.060375,2,1,2.32687,,0,0,0,160,1,1b,46,2,9,
,,,,,,,,,,,,,,,,,,,,,,,,,images/exp2a_trial_75_colour0_distractors0_l.png,l,1,024,001,2021-04-23_19h11.24.605,searchDisc4,2020.2.10,Win32,60,,,,space,1.230275,1,1,0.750265,,0,1,1,303,1,2a,75,0,0,
,,,,,,,,,,,,,,,,,,,,,,,,,images/exp2b_trial_14_colour3_distractors9_r.png,r,2,024,001,2021-04-23_19h11.24.605,searchDisc4,2020.2.10,Win32,60,,,,space,1.258355,2,1,0.951895,,0,2,2,356,1,2b,14,3,9,
,,,,,,,,,,,,,,,,,,,,,,,,,images/exp2b_trial_92_colour3_distractors31_r.png,r,2,024,001,2021-04-23_19h11.24.605,searchDisc4,2020.2.10,Win32,60,,,,space,0.822045,2,1,0.896615,,0,3,3,434,1,2b,92,3,31,
,,,,,,,,,,,,,,,,,,,,,,,,,images/exp2c_trial_65_colour2_distractors19_l.png,l,1,024,001,2021-04-23_19h11.24.605,searchDisc4,2020.2.10,Win32,60,,,,space,0.87971,1,1,1.06138,,0,4,4,521,1,2c,65,2,19,
,,,,,,,,,,,,,,,,,,,,,,,,,images/exp2b_trial_32_colour3_distractors9_l.png,l,1,024,001,2021-04-23_19h11.24.605,searchDisc4,2020.2.10,Win32,60,,,,space,0.81672,1,1,0.99493,,0,5,5,374,1,2b,32,3,9,
,,,,,,,,,,,,,,,,,,,,,,,,,images/exp2b_trial_48_colour2_distractors31_r.png,r,2,024,001,2021-04-23_19h11.24.605,searchDisc4,2020.2.10,Win32,60,,,,space,0.93062,2,1,1.20647,,0,6,6,390,1,2b,48,2,31,
,,,,,,,,,,,,,,,,,,,,,,,,,images/exp2c_trial_113_colour0_distractors0_l.png,l,1,024,001,2021-04-23_19h11.24.605,searchDisc4,2020.2.10,Win32,60,,,,space,0.747395,1,1,0.84049,,0,7,7,569,1,2c,113,0,0,
,,,,,,,,,,,,,,,,,,,,,,,,,images/exp1b_trial_88_colour3_distractors1_r.png,r,2,024,001,2021-04-23_19h11.24.605,searchDisc4,2020.2.10,Win32,60,,,,space,0.651185,2,1,1.00381,,0,8,8,202,1,1b,88,3,1,
,,,,,,,,,,,,,,,,,,,,,,,,,images/exp1a_trial_73_colour3_distractors43_l.png,l,1,024,001,2021-04-23_19h11.24.605,searchDisc4,2020.2.10,Win32,60,,,,space,1.02363,1,1,0.97736,,0,9,9,73,1,1a,73,3,43,
,,,,,,,,,,,,,,,,,,,,,,,,,images/exp2c_trial_86_colour2_distractors31_r.png,r,2,024,001,2021-04-23_19h11.24.605,searchDisc4,2020.2.10,Win32,60,,,,space,0.995585,2,1,1.245395,,0,10,10,542,1,2c,86,2,31,
,,,,,,,,,,,,,,,,,,,,,,,,,images/exp2a_trial_85_colour2_distractors19_r.png,r,2,024,001,2021-04-23_19h11.24.605,searchDisc4,2020.2.10,Win32,60,,,,space,0.542145,2,1,1.04025,,0,11,11,313,1,2a,85,2,19,
,,,,,,,,,,,,,,,,,,,,,,,,,images/exp2a_trial_46_colour2_distractors9_r.png,r,2,024,001,2021-04-23_19h11.24.605,searchDisc4,2020.2.10,Win32,60,,,,space,0.53947,2,1,0.800335,,0,12,12,274,1,2a,46,2,9,
,,,,,,,,,,,,,,,,,,,,,,,,,images/exp1b_trial_69_colour3_distractors4_l.png,l,1,024,001,2021-04-23_19h11.24.605,searchDisc4,2020.2.10,Win32,60,,,,space,0.67597,1,1,1.832865,,0,13,13,183,1,1b,69,3,4,
,,,,,,,,,,,,,,,,,,,,,,,,,images/exp2b_trial_97_colour1_distractors19_l.png,l,1,024,001,2021-04-23_19h11.24.605,searchDisc4,2020.2.10,Win32,60,,,,space,0.655135,1,1,1.26023,,0,14,14,439,1,2b,97,1,19,
,,,,,,,,,,,,,,,,,,,,,,,,,images/exp2a_trial_94_colour1_distractors1_l.png,l,1,024,001,2021-04-23_19h11.24.605,searchDisc4,2020.2.10,Win32,60,,,,space,0.67207,1,1,0.76272,,0,15,15,322,1,2a,94,1,1,
,,,,,,,,,,,,,,,,,,,,,,,,,images/exp1a_trial_35_colour3_distractors43_l.png,l,1,024,001,2021-04-23_19h11.24.605,searchDisc4,2020.2.10,Win32,60,,,,space,0.71436,1,1,0.74452,,0,16,16,35,1,1a,35,3,43,
,,,,,,,,,,,,,,,,,,,,,,,,,images/exp2a_trial_77_colour1_distractors4_r.png,r,2,024,001,2021-04-23_19h11.24.605,searchDisc4,2020.2.10,Win32,60,,,,space,0.76276,2,1,0.793605,,0,17,17,305,1,2a,77,1,4,
,,,,,,,,,,,,,,,,,,,,,,,,,images/exp2c_trial_50_colour3_distractors1_r.png,r,2,024,001,2021-04-23_19h11.24.605,searchDisc4,2020.2.10,Win32,60,,,,space,0.643475,2,1,1.122855,,0,18,18,506,1,2c,50,3,1,
,,,,,,,,,,,,,,,,,,,,,,,,,images/exp1b_trial_49_colour2_distractors43_r.png,r,2,024,001,2021-04-23_19h11.24.605,searchDisc4,2020.2.10,Win32,60,,,,space,0.74549,2,1,1.95921,,0,19,19,163,1,1b,49,2,43,
,,,,,,,,,,,,,,,,,,,,,,,,,images/exp2a_trial_62_colour2_distractors1_l.png,l,1,024,001,2021-04-23_19h11.24.605,searchDisc4,2020.2.10,Win32,60,,,,space,0.817985,1,1,0.90543,,0,20,20,290,1,2a,62,2,1,
,,,,,,,,,,,,,,,,,,,,,,,,,images/exp2a_trial_1_colour1_distractors4_r.png,r,2,024,001,2021-04-23_19h11.24.605,searchDisc4,2020.2.10,Win32,60,,,,space,0.856355,2,1,1.240205,,0,21,21,229,1,2a,1,1,4,
,,,,,,,,,,,,,,,,,,,,,,,,,images/exp2a_trial_10_colour2_distractors31_r.png,r,2,024,001,2021-04-23_19h11.24.605,searchDisc4,2020.2.10,Win32,60,,,,space,0.552,2,1,0.837515,,0,22,22,238,1,2a,10,2,31,
,,,,,,,,,,,,,,,,,,,,,,,,,images/exp1a_trial_27_colour2_distractors19_l.png,l,1,024,001,2021-04-23_19h11.24.605,searchDisc4,2020.2.10,Win32,60,,,,space,0.71737,1,1,0.899095,,0,23,23,27,1,1a,27,2,19,
,,,,,,,,,,,,,,,,,,,,,,,,,images/exp2c_trial_4_colour1_distractors31_r.png,r,2,024,001,2021-04-23_19h11.24.605,searchDisc4,2020.2.10,Win32,60,,,,space,0.617895,2,1,0.968295,,0,24,24,460,1,2c,4,1,31,
,,,,,,,,,,,,,,,,,,,,,,,,,images/exp2b_trial_70_colour3_distractors9_l.png,l,1,024,001,2021-04-23_19h11.24.605,searchDisc4,2020.2.10,Win32,60,,,,space,0.550895,1,1,0.996395,,0,25,25,412,1,2b,70,3,9,
,,,,,,,,,,,,,,,,,,,,,,,,,images/exp2a_trial_2_colour1_distractors9_r.png,r,2,024,001,2021-04-23_19h11.24.605,searchDisc4,2020.2.10,Win32,60,,,,space,0.597855,2,1,1.03747,,0,26,26,230,1,2a,2,1,9,
,,,,,,,,,,,,,,,,,,,,,,,,,images/exp1b_trial_113_colour0_distractors0_l.png,l,1,024,001,2021-04-23_19h11.24.605,searchDisc4,2020.2.10,Win32,60,,,,space,0.55146,1,1,0.644915,,0,27,27,227,1,1b,113,0,0,
,,,,,,,,,,,,,,,,,,,,,,,,,images/exp1a_trial_31_colour3_distractors4_l.png,l,1,024,001,2021-04-23_19h11.24.605,searchDisc4,2020.2.10,Win32,60,,,,space,0.508415,1,1,1.12788,,0,28,28,31,1,1a,31,3,4,
,,,,,,,,,,,,,,,,,,,,,,,,,images/exp1a_trial_11_colour2_distractors43_r.png,r,2,024,001,2021-04-23_19h11.24.605,searchDisc4,2020.2.10,Win32,60,,,,space,0.609805,2,1,0.922005,,0,29,29,11,1,1a,11,2,43,
,,,,,,,,,,,,,,,,,,,,,,,,,images/exp2b_trial_12_colour3_distractors1_r.png,r,2,024,001,2021-04-23_19h11.24.605,searchDisc4,2020.2.10,Win32,60,,,,space,1.455495,2,1,0.87913,,0,30,30,354,1,2b,12,3,1,
,,,,,,,,,,,,,,,,,,,,,,,,,images/exp2a_trial_15_colour3_distractors19_r.png,r,2,024,001,2021-04-23_19h11.24.605,searchDisc4,2020.2.10,Win32,60,,,,space,0.642805,2,1,0.797015,,0,31,31,243,1,2a,15,3,19,
,,,,,,,,,,,,,,,,,,,,,,,,,images/exp2b_trial_11_colour2_distractors43_r.png,r,2,024,001,2021-04-23_19h11.24.605,searchDisc4,2020.2.10,Win32,60,,,,space,0.481245,2,1,0.91193,,0,32,32,353,1,2b,11,2,43,
,,,,,,,,,,,,,,,,,,,,,,,,,images/exp2a_trial_104_colour2_distractors31_l.png,l,1,024,001,2021-04-23_19h11.24.605,searchDisc4,2020.2.10,Win32,60,,,,space,0.3509,1,1,1.040115,,0,33,33,332,1,2a,104,2,31,
,,,,,,,,,,,,,,,,,,,,,,,,,images/exp2c_trial_37_colour0_distractors0_l.png,l,1,024,001,2021-04-23_19h11.24.605,searchDisc4,2020.2.10,Win32,60,,,,space,0.466575,1,1,0.678175,,0,34,34,493,1,2c,37,0,0,
,,,,,,,,,,,,,,,,,,,,,,,,,images/exp1b_trial_50_colour3_distractors1_r.png,r,2,024,001,2021-04-23_19h11.24.605,searchDisc4,2020.2.10,Win32,60,,,,space,1.777375,2,1,1.25284,,0,35,35,164,1,1b,50,3,1,
,,,,,,,,,,,,,,,,,,,,,,,,,images/exp1b_trial_94_colour1_distractors1_l.png,l,1,024,001,2021-04-23_19h11.24.605,searchDisc4,2020.2.10,Win32,60,,,,space,0.65773,1,1,1.67387,,0,36,36,208,1,1b,94,1,1,
,,,,,,,,,,,,,,,,,,,,,,,,,images/exp1b_trial_111_colour3_distractors43_l.png,l,1,024,001,2021-04-23_19h11.24.605,searchDisc4,2020.2.10,Win32,60,,,,space,0.40039,1,1,3.28934,,0,37,37,225,1,1b,111,3,43,
,,,,,,,,,,,,,,,,,,,,,,,,,images/exp1a_trial_61_colour1_distractors43_l.png,l,1,024,001,2021-04-23_19h11.24.605,searchDisc4,2020.2.10,Win32,60,,,,space,0.530685,1,1,1.51029,,0,38,38,61,1,1a,61,1,43,
,,,,,,,,,,,,,,,,,,,,,,,,,images/exp1a_trial_49_colour2_distractors43_r.png,r,2,024,001,2021-04-23_19h11.24.605,searchDisc4,2020.2.10,Win32,60,,,,space,0.5908,2,1,0.872765,,0,39,39,49,1,1a,49,2,43,
,,,,,,,,,,,,,,,,,,,,,,,,,images/exp1b_trial_84_colour2_distractors9_r.png,r,2,024,001,2021-04-23_19h11.24.605,searchDisc4,2020.2.10,Win32,60,,,,space,0.364265,2,1,1.42033,,0,40,40,198,1,1b,84,2,9,
,,,,,,,,,,,,,,,,,,,,,,,,,images/exp1b_trial_13_colour3_distractors4_r.png,r,2,024,001,2021-04-23_19h11.24.605,searchDisc4,2020.2.10,Win32,60,,,,space,0.558685,2,1,0.8631,,0,41,41,127,1,1b,13,3,4,
,,,,,,,,,,,,,,,,,,,,,,,,,images/exp2b_trial_49_colour2_distractors43_r.png,r,2,024,001,2021-04-23_19h11.24.605,searchDisc4,2020.2.10,Win32,60,,,,space,0.488765,2,1,1.01138,,0,42,42,391,1,2b,49,2,43,
,,,,,,,,,,,,,,,,,,,,,,,,,images/exp2a_trial_97_colour1_distractors19_l.png,l,1,024,001,2021-04-23_19h11.24.605,searchDisc4,2020.2.10,Win32,60,,,,space,0.40173,1,1,1.38699,,0,43,43,325,1,2a,97,1,19,
,,,,,,,,,,,,,,,,,,,,,,,,,images/exp2a_trial_5_colour1_distractors43_r.png,r,2,024,001,2021-04-23_19h11.24.605,searchDisc4,2020.2.10,Win32,60,,,,space,0.38554,2,1,1.27224,,0,44,44,233,1,2a,5,1,43,
,,,,,,,,,,,,,,,,,,,,,,,,,images/exp1b_trial_41_colour1_distractors19_r.png,r,2,024,001,2021-04-23_19h11.24.605,searchDisc4,2020.2.10,Win32,60,,,,space,0.381175,2,1,1.073425,,0,45,45,155,1,1b,41,1,19,
,,,,,,,,,,,,,,,,,,,,,,,,,images/exp2b_trial_58_colour1_distractors9_l.png,l,1,024,001,2021-04-23_19h11.24.605,searchDisc4,2020.2.10,Win32,60,,,,space,0.330685,1,1,0.80656,,0,46,46,400,1,2b,58,1,9,
,,,,,,,,,,,,,,,,,,,,,,,,,images/exp1a_trial_100_colour2_distractors1_l.png,l,1,024,001,2021-04-23_19h11.24.605,searchDisc4,2020.2.10,Win32,60,,,,space,0.732155,1,1,1.43299,,0,47,47,100,1,1a,100,2,1,
,,,,,,,,,,,,,,,,,,,,,,,,,images/exp2b_trial_105_colour2_distractors43_l.png,l,1,024,001,2021-04-23_19h11.24.605,searchDisc4,2020.2.10,Win32,60,,,,space,1.238395,1,1,1.00073,,0,48,48,447,1,2b,105,2,43,
,,,,,,,,,,,,,,,,,,,,,,,,,images/exp1a_trial_33_colour3_distractors19_l.png,l,1,024,001,2021-04-23_19h11.24.605,searchDisc4,2020.2.10,Win32,60,,,,space,0.88536,1,1,0.83563,,0,49,49,33,1,1a,33,3,19,
,,,,,,,,,,,,,,,,,,,,,,,,,images/exp2b_trial_18_colour1_distractors1_l.png,l,1,024,001,2021-04-23_19h11.24.605,searchDisc4,2020.2.10,Win32,60,,,,space,0.666205,1,1,0.95028,,0,50,50,360,1,2b,18,1,1,
,,,,,,,,,,,,,,,,,,,,,,,,,images/exp1b_trial_2_colour1_distractors9_r.png,r,2,024,001,2021-04-23_19h11.24.605,searchDisc4,2020.2.10,Win32,60,,,,space,0.676325,2,1,1.2733,,0,51,51,116,1,1b,2,1,9,
,,,,,,,,,,,,,,,,,,,,,,,,,images/exp2c_trial_71_colour3_distractors19_l.png,l,1,024,001,2021-04-23_19h11.24.605,searchDisc4,2020.2.10,Win32,60,,,,space,0.574025,1,1,0.81242,,0,52,52,527,1,2c,71,3,19,
,,,,,,,,,,,,,,,,,,,,,,,,,images/exp2c_trial_27_colour2_distractors19_l.png,l,1,024,001,2021-04-23_19h11.24.605,searchDisc4,2020.2.10,Win32,60,,,,space,0.51727,1,1,1.108125,,0,53,53,483,1,2c,27,2,19,
,,,,,,,,,,,,,,,,,,,,,,,,,images/exp2b_trial_10_colour2_distractors31_r.png,r,2,024,001,2021-04-23_19h11.24.605,searchDisc4,2020.2.10,Win32,60,,,,space,0.701695,2,1,1.33094,,0,54,54,352,1,2b,10,2,31,
,,,,,,,,,,,,,,,,,,,,,,,,,images/exp1b_trial_103_colour2_distractors19_l.png,l,1,024,001,2021-04-23_19h11.24.605,searchDisc4,2020.2.10,Win32,60,,,,space,0.59289,1,1,2.45729,,0,55,55,217,1,1b,103,2,19,
,,,,,,,,,,,,,,,,,,,,,,,,,images/exp2a_trial_29_colour2_distractors43_l.png,l,1,024,001,2021-04-23_19h11.24.605,searchDisc4,2020.2.10,Win32,60,,,,space,0.46792,1,1,0.825195,,0,56,56,257,1,2a,29,2,43,
,,,,,,,,,,,,,,,,,,,,,,,,,images/exp2a_trial_27_colour2_distractors19_l.png,l,1,024,001,2021-04-23_19h11.24.605,searchDisc4,2020.2.10,Win32,60,,,,space,0.4918,1,1,0.843685,,0,57,57,255,1,2a,27,2,19,
,,,,,,,,,,,,,,,,,,,,,,,,,images/exp2c_trial_102_colour2_distractors9_l.png,l,1,024,001,2021-04-23_19h11.24.605,searchDisc4,2020.2.10,Win32,60,,,,space,0.41451,1,1,0.6202,,0,58,58,558,1,2c,102,2,9,
,,,,,,,,,,,,,,,,,,,,,,,,,images/exp2b_trial_36_colour0_distractors0_r.png,r,2,024,001,2021-04-23_19h11.24.605,searchDisc4,2020.2.10,Win32,60,,,,space,0.91017,2,1,1.001515,space,0,59,59,378,1,2b,36,0,0,3.71259
,,,,,,,,,,,,,,,,,,,,,,,,,images/exp1a_trial_22_colour1_distractors31_l.png,l,1,024,001,2021-04-23_19h11.24.605,searchDisc4,2020.2.10,Win32,60,,,,space,6.634865,1,1,2.08705,,0,60,60,22,1,1a,22,1,31,
,,,,,,,,,,,,,,,,,,,,,,,,,images/exp1b_trial_29_colour2_distractors43_l.png,l,1,024,001,2021-04-23_19h11.24.605,searchDisc4,2020.2.10,Win32,60,,,,space,0.74768,1,1,1.423185,,0,61,61,143,1,1b,29,2,43,
,,,,,,,,,,,,,,,,,,,,,,,,,images/exp1a_trial_84_colour2_distractors9_r.png,r,2,024,001,2021-04-23_19h11.24.605,searchDisc4,2020.2.10,Win32,60,,,,space,0.48748,2,1,0.841415,,0,62,62,84,1,1a,84,2,9,
,,,,,,,,,,,,,,,,,,,,,,,,,images/exp1a_trial_13_colour3_distractors4_r.png,r,2,024,001,2021-04-23_19h11.24.605,searchDisc4,2020.2.10,Win32,60,,,,space,0.73494,2,1,1.123685,,0,63,63,13,1,1a,13,3,4,
,,,,,,,,,,,,,,,,,,,,,,,,,images/exp2c_trial_94_colour1_distractors1_l.png,l,1,024,001,2021-04-23_19h11.24.605,searchDisc4,2020.2.10,Win32,60,,,,space,0.62735,1,1,0.912155,,0,64,64,550,1,2c,94,1,1,
,,,,,,,,,,,,,,,,,,,,,,,,,images/exp2c_trial_84_colour2_distractors9_r.png,r,2,024,001,2021-04-23_19h11.24.605,searchDisc4,2020.2.10,Win32,60,,,,space,0.400605,2,1,0.96398,,0,65,65,540,1,2c,84,2,9,
,,,,,,,,,,,,,,,,,,,,,,,,,images/exp2c_trial_107_colour3_distractors4_l.png,l,1,024,001,2021-04-23_19h11.24.605,searchDisc4,2020.2.10,Win32,60,,,,space,0.62802,1,1,0.891565,,0,66,66,563,1,2c,107,3,4,
,,,,,,,,,,,,,,,,,,,,,,,,,images/exp1b_trial_1_colour1_distractors4_r.png,r,2,024,001,2021-04-23_19h11.24.605,searchDisc4,2020.2.10,Win32,60,,,,space,0.48429,2,1,0.82553,,0,67,67,115,1,1b,1,1,4,
,,,,,,,,,,,,,,,,,,,,,,,,,images/exp2c_trial_55_colour3_distractors43_r.png,r,2,024,001,2021-04-23_19h11.24.605,searchDisc4,2020.2.10,Win32,60,,,,space,0.44389,2,1,0.95601,,0,68,68,511,1,2c,55,3,43,
,,,,,,,,,,,,,,,,,,,,,,,,,images/exp1b_trial_30_colour3_distractors1_l.png,l,1,024,001,2021-04-23_19h11.24.605,searchDisc4,2020.2.10,Win32,60,,,,space,0.502685,1,1,0.842845,,0,69,69,144,1,1b,30,3,1,
,,,,,,,,,,,,,,,,,,,,,,,,,images/exp2a_trial_58_colour1_distractors9_l.png,l,1,024,001,2021-04-23_19h11.24.605,searchDisc4,2020.2.10,Win32,60,,,,space,0.392575,1,1,0.995465,,0,70,70,286,1,2a,58,1,9,
,,,,,,,,,,,,,,,,,,,,,,,,,images/exp1a_trial_59_colour1_distractors19_l.png,l,1,024,001,2021-04-23_19h11.24.605,searchDisc4,2020.2.10,Win32,60,,,,space,0.279685,2,0,1.17098,,0,71,71,59,1,1a,59,1,19,
,,,,,,,,,,,,,,,,,,,,,,,,,images/exp2c_trial_68_colour3_distractors1_l.png,l,1,024,001,2021-04-23_19h11.24.605,searchDisc4,2020.2.10,Win32,60,,,,space,1.013895,1,1,1.00191,,0,72,72,524,1,2c,68,3,1,
,,,,,,,,,,,,,,,,,,,,,,,,,images/exp2b_trial_96_colour1_distractors9_l.png,l,1,024,001,2021-04-23_19h11.24.605,searchDisc4,2020.2.10,Win32,60,,,,space,0.3845,1,1,1.084865,,0,73,73,438,1,2b,96,1,9,
,,,,,,,,,,,,,,,,,,,,,,,,,images/exp2b_trial_21_colour1_distractors19_l.png,l,1,024,001,2021-04-23_19h11.24.605,searchDisc4,2020.2.10,Win32,60,,,,space,0.41387,1,1,1.061555,,0,74,74,363,1,2b,21,1,19,
,,,,,,,,,,,,,,,,,,,,,,,,,images/exp2b_trial_94_colour1_distractors1_l.png,l,1,024,001,2021-04-23_19h11.24.605,searchDisc4,2020.2.10,Win32,60,,,,space,0.4205,1,1,0.86373,,0,75,75,436,1,2b,94,1,1,
,,,,,,,,,,,,,,,,,,,,,,,,,images/exp1b_trial_9_colour2_distractors19_r.png,r,2,024,001,2021-04-23_19h11.24.605,searchDisc4,2020.2.10,Win32,60,,,,space,0.43389,2,1,1.184165,,0,76,76,123,1,1b,9,2,19,
,,,,,,,,,,,,,,,,,,,,,,,,,images/exp1b_trial_95_colour1_distractors4_l.png,l,1,024,001,2021-04-23_19h11.24.605,searchDisc4,2020.2.10,Win32,60,,,,space,0.36762,1,1,0.907265,,0,77,77,209,1,1b,95,1,4,
,,,,,,,,,,,,,,,,,,,,,,,,,images/exp2c_trial_32_colour3_distractors9_l.png,l,1,024,001,2021-04-23_19h11.24.605,searchDisc4,2020.2.10,Win32,60,,,,space,0.30929,1,1,0.9582,,0,78,78,488,1,2c,32,3,9,
,,,,,,,,,,,,,,,,,,,,,,,,,images/exp2c_trial_98_colour1_distractors31_l.png,l,1,024,001,2021-04-23_19h11.24.605,searchDisc4,2020.2.10,Win32,60,,,,space,0.285195,1,1,0.70726,,0,79,79,554,1,2c,98,1,31,
,,,,,,,,,,,,,,,,,,,,,,,,,images/exp2b_trial_60_colour1_distractors31_l.png,l,1,024,001,2021-04-23_19h11.24.605,searchDisc4,2020.2.10,Win32,60,,,,space,0.358925,1,1,1.02132,,0,80,80,402,1,2b,60,1,31,
,,,,,,,,,,,,,,,,,,,,,,,,,images/exp2c_trial_69_colour3_distractors4_l.png,l,1,024,001,2021-04-23_19h11.24.605,searchDisc4,2020.2.10,Win32,60,,,,space,0.269405,1,1,0.830615,,0,81,81,525,1,2c,69,3,4,
,,,,,,,,,,,,,,,,,,,,,,,,,images/exp2c_trial_8_colour2_distractors9_r.png,r,2,024,001,2021-04-23_19h11.24.605,searchDisc4,2020.2.10,Win32,60,,,,space,0.306275,2,1,0.90086,,0,82,82,464,1,2c,8,2,9,
,,,,,,,,,,,,,,,,,,,,,,,,,images/exp1b_trial_64_colour2_distractors9_l.png,l,1,024,001,2021-04-23_19h11.24.605,searchDisc4,2020.2.10,Win32,60,,,,space,0.35261,1,1,1.124475,,0,83,83,178,1,1b,64,2,9,
,,,,,,,,,,,,,,,,,,,,,,,,,images/exp2b_trial_65_colour2_distractors19_l.png,l,1,024,001,2021-04-23_19h11.24.605,searchDisc4,2020.2.10,Win32,60,,,,space,0.30435,1,1,0.91772,,0,84,84,407,1,2b,65,2,19,
,,,,,,,,,,,,,,,,,,,,,,,,,images/exp2c_trial_31_colour3_distractors4_l.png,l,1,024,001,2021-04-23_19h11.24.605,searchDisc4,2020.2.10,Win32,60,,,,space,0.23452,1,1,0.9318,,0,85,85,487,1,2c,31,3,4,
,,,,,,,,,,,,,,,,,,,,,,,,,images/exp1b_trial_33_colour3_distractors19_l.png,l,1,024,001,2021-04-23_19h11.24.605,searchDisc4,2020.2.10,Win32,60,,,,space,0.311995,1,1,2.76407,,0,86,86,147,1,1b,33,3,19,
,,,,,,,,,,,,,,,,,,,,,,,,,images/exp1a_trial_90_colour3_distractors9_r.png,r,2,024,001,2021-04-23_19h11.24.605,searchDisc4,2020.2.10,Win32,60,,,,space,0.28137,2,1,1.658705,,0,87,87,90,1,1a,90,3,9,
,,,,,,,,,,,,,,,,,,,,,,,,,images/exp2b_trial_56_colour1_distractors1_l.png,l,1,024,001,2021-04-23_19h11.24.605,searchDisc4,2020.2.10,Win32,60,,,,space,0.298475,1,1,1.092415,,0,88,88,398,1,2b,56,1,1,
,,,,,,,,,,,,,,,,,,,,,,,,,images/exp2b_trial_9_colour2_distractors19_r.png,r,2,024,001,2021-04-23_19h11.24.605,searchDisc4,2020.2.10,Win32,60,,,,space,0.23018,2,1,1.25032,,0,89,89,351,1,2b,9,2,19,
,,,,,,,,,,,,,,,,,,,,,,,,,images/exp2b_trial_45_colour2_distractors4_r.png,r,2,024,001,2021-04-23_19h11.24.605,searchDisc4,2020.2.10,Win32,60,,,,space,0.23618,2,1,1.09243,,0,90,90,387,1,2b,45,2,4,
,,,,,,,,,,,,,,,,,,,,,,,,,images/exp1b_trial_61_colour1_distractors43_l.png,l,1,024,001,2021-04-23_19h11.24.605,searchDisc4,2020.2.10,Win32,60,,,,space,0.328475,1,1,1.18836,,0,91,91,175,1,1b,61,1,43,
,,,,,,,,,,,,,,,,,,,,,,,,,images/exp1a_trial_66_colour2_distractors31_l.png,l,1,024,001,2021-04-23_19h11.24.605,searchDisc4,2020.2.10,Win32,60,,,,space,0.5709,1,1,0.848725,,0,92,92,66,1,1a,66,2,31,
,,,,,,,,,,,,,,,,,,,,,,,,,images/exp2a_trial_25_colour2_distractors4_l.png,l,1,024,001,2021-04-23_19h11.24.605,searchDisc4,2020.2.10,Win32,60,,,,space,0.219185,1,1,0.874125,,0,93,93,253,1,2a,25,2,4,
,,,,,,,,,,,,,,,,,,,,,,,,,images/exp1a_trial_43_colour1_distractors43_r.png,r,2,024,001,2021-04-23_19h11.24.605,searchDisc4,2020.2.10,Win32,60,,,,space,0.26768,2,1,1.223165,,0,94,94,43,1,1a,43,1,43,
,,,,,,,,,,,,,,,,,,,,,,,,,images/exp2a_trial_30_colour3_distractors1_l.png,l,1,024,001,2021-04-23_19h11.24.605,searchDisc4,2020.2.10,Win32,60,,,,space,0.29729,1,1,1.075895,,0,95,95,258,1,2a,30,3,1,
,,,,,,,,,,,,,,,,,,,,,,,,,images/exp2a_trial_78_colour1_distractors9_r.png,r,2,024,001,2021-04-23_19h11.24.605,searchDisc4,2020.2.10,Win32,60,,,,space,0.222605,2,1,1.449465,,0,96,96,306,1,2a,78,1,9,
,,,,,,,,,,,,,,,,,,,,,,,,,images/exp2b_trial_77_colour1_distractors4_r.png,r,2,024,001,2021-04-23_19h11.24.605,searchDisc4,2020.2.10,Win32,60,,,,space,0.268155,2,1,0.89106,,0,97,97,419,1,2b,77,1,4,
,,,,,,,,,,,,,,,,,,,,,,,,,images/exp2b_trial_20_colour1_distractors9_l.png,l,1,024,001,2021-04-23_19h11.24.605,searchDisc4,2020.2.10,Win32,60,,,,space,0.29371,1,1,0.78883,,0,98,98,362,1,2b,20,1,9,
,,,,,,,,,,,,,,,,,,,,,,,,,images/exp2a_trial_113_colour0_distractors0_l.png,l,1,024,001,2021-04-23_19h11.24.605,searchDisc4,2020.2.10,Win32,60,,,,space,0.272225,1,1,0.737265,,0,99,99,341,1,2a,113,0,0,
,,,,,,,,,,,,,,,,,,,,,,,,,images/exp2c_trial_60_colour1_distractors31_l.png,l,1,024,001,2021-04-23_19h11.24.605,searchDisc4,2020.2.10,Win32,60,,,,space,0.23041,1,1,0.961205,,0,100,100,516,1,2c,60,1,31,
,,,,,,,,,,,,,,,,,,,,,,,,,images/exp1a_trial_24_colour2_distractors1_l.png,l,1,024,001,2021-04-23_19h11.24.605,searchDisc4,2020.2.10,Win32,60,,,,space,0.17172,1,1,1.11546,,0,101,101,24,1,1a,24,2,1,
,,,,,,,,,,,,,,,,,,,,,,,,,images/exp2c_trial_82_colour2_distractors1_r.png,r,2,024,001,2021-04-23_19h11.24.605,searchDisc4,2020.2.10,Win32,60,,,,space,0.235005,2,1,2.09221,,0,102,102,538,1,2c,82,2,1,
,,,,,,,,,,,,,,,,,,,,,,,,,images/exp1b_trial_93_colour3_distractors43_r.png,r,2,024,001,2021-04-23_19h11.24.605,searchDisc4,2020.2.10,Win32,60,,,,space,0.2021,,0,,,0,103,103,207,1,1b,93,3,43,
,,,,,,,,,,,,,,,,,,,,,,,,,images/exp1a_trial_69_colour3_distractors4_l.png,l,1,024,001,2021-04-23_19h11.24.605,searchDisc4,2020.2.10,Win32,60,,,,space,1.844985,1,1,0.939975,,0,104,104,69,1,1a,69,3,4,
,,,,,,,,,,,,,,,,,,,,,,,,,images/exp2b_trial_111_colour3_distractors43_l.png,l,1,024,001,2021-04-23_19h11.24.605,searchDisc4,2020.2.10,Win32,60,,,,space,0.289455,1,1,1.04058,,0,105,105,453,1,2b,111,3,43,
,,,,,,,,,,,,,,,,,,,,,,,,,images/exp2c_trial_89_colour3_distractors4_r.png,r,2,024,001,2021-04-23_19h11.24.605,searchDisc4,2020.2.10,Win32,60,,,,space,0.295325,2,1,0.84347,,0,106,106,545,1,2c,89,3,4,
,,,,,,,,,,,,,,,,,,,,,,,,,images/exp1a_trial_46_colour2_distractors9_r.png,r,2,024,001,2021-04-23_19h11.24.605,searchDisc4,2020.2.10,Win32,60,,,,space,0.24212,1,0,1.107625,,0,107,107,46,1,1a,46,2,9,
,,,,,,,,,,,,,,,,,,,,,,,,,images/exp2a_trial_9_colour2_distractors19_r.png,r,2,024,001,2021-04-23_19h11.24.605,searchDisc4,2020.2.10,Win32,60,,,,space,0.334895,2,1,1.361915,,0,108,108,237,1,2a,9,2,19,
,,,,,,,,,,,,,,,,,,,,,,,,,images/exp2a_trial_72_colour3_distractors31_l.png,l,1,024,001,2021-04-23_19h11.24.605,searchDisc4,2020.2.10,Win32,60,,,,space,0.267635,1,1,0.8411,,0,109,109,300,1,2a,72,3,31,
,,,,,,,,,,,,,,,,,,,,,,,,,images/exp1b_trial_58_colour1_distractors9_l.png,l,1,024,001,2021-04-23_19h11.24.605,searchDisc4,2020.2.10,Win32,60,,,,space,0.18601,1,1,1.16773,,0,110,110,172,1,1b,58,1,9,
,,,,,,,,,,,,,,,,,,,,,,,,,images/exp1b_trial_3_colour1_distractors19_r.png,r,2,024,001,2021-04-23_19h11.24.605,searchDisc4,2020.2.10,Win32,60,,,,space,0.210735,2,1,1.21608,,0,111,111,117,1,1b,3,1,19,
,,,,,,,,,,,,,,,,,,,,,,,,,images/exp1b_trial_55_colour3_distractors43_r.png,r,2,024,001,2021-04-23_19h11.24.605,searchDisc4,2020.2.10,Win32,60,,,,space,0.202475,2,1,2.837,,0,112,112,169,1,1b,55,3,43,
,,,,,,,,,,,,,,,,,,,,,,,,,images/exp2b_trial_50_colour3_distractors1_r.png,r,2,024,001,2021-04-23_19h11.24.605,searchDisc4,2020.2.10,Win32,60,,,,space,0.208295,2,1,1.158545,,0,113,113,392,1,2b,50,3,1,
,,,,,,,,,,,,,,,,,,,,,,,,,images/exp2b_trial_37_colour0_distractors0_l.png,l,1,024,001,2021-04-23_19h11.24.605,searchDisc4,2020.2.10,Win32,60,,,,space,0.20188,1,1,0.83067,,0,114,114,379,1,2b,37,0,0,
,,,,,,,,,,,,,,,,,,,,,,,,,images/exp1a_trial_72_colour3_distractors31_l.png,l,1,024,001,2021-04-23_19h11.24.605,searchDisc4,2020.2.10,Win32,60,,,,space,0.209205,1,1,1.069175,,0,115,115,72,1,1a,72,3,31,
,,,,,,,,,,,,,,,,,,,,,,,,,images/exp2a_trial_64_colour2_distractors9_l.png,l,1,024,001,2021-04-23_19h11.24.605,searchDisc4,2020.2.10,Win32,60,,,,space,0.26082,1,1,0.85089,,0,116,116,292,1,2a,64,2,9,
,,,,,,,,,,,,,,,,,,,,,,,,,images/exp2c_trial_81_colour1_distractors43_r.png,r,2,024,001,2021-04-23_19h11.24.605,searchDisc4,2020.2.10,Win32,60,,,,space,0.18471,2,1,0.78439,,0,117,117,537,1,2c,81,1,43,
,,,,,,,,,,,,,,,,,,,,,,,,,images/exp2b_trial_8_colour2_distractors9_r.png,r,2,024,001,2021-04-23_19h11.24.605,searchDisc4,2020.2.10,Win32,60,,,,space,0.167795,2,1,0.85858,,0,118,118,350,1,2b,8,2,9,
,,,,,,,,,,,,,,,,,,,,,,,,,images/exp1a_trial_26_colour2_distractors9_l.png,l,1,024,001,2021-04-23_19h11.24.605,searchDisc4,2020.2.10,Win32,60,,,,space,0.184375,1,1,1.206205,space,0,119,119,26,1,1a,26,2,9,0.217135
,,,,,,,,,,,,,,,,,,,,,,,,,images/exp2a_trial_31_colour3_distractors4_l.png,l,1,024,001,2021-04-23_19h11.24.605,searchDisc4,2020.2.10,Win32,60,,,,space,2.817945,1,1,0.960725,,0,120,120,259,1,2a,31,3,4,
,,,,,,,,,,,,,,,,,,,,,,,,,images/exp2b_trial_27_colour2_distractors19_l.png,l,1,024,001,2021-04-23_19h11.24.605,searchDisc4,2020.2.10,Win32,60,,,,space,0.27035,1,1,0.9754,,0,121,121,369,1,2b,27,2,19,
,,,,,,,,,,,,,,,,,,,,,,,,,images/exp2b_trial_41_colour1_distractors19_r.png,r,2,024,001,2021-04-23_19h11.24.605,searchDisc4,2020.2.10,Win32,60,,,,space,0.19362,2,1,0.887055,,0,122,122,383,1,2b,41,1,19,
,,,,,,,,,,,,,,,,,,,,,,,,,images/exp2b_trial_82_colour2_distractors1_r.png,r,2,024,001,2021-04-23_19h11.24.605,searchDisc4,2020.2.10,Win32,60,,,,space,0.248585,2,1,0.87556,,0,123,123,424,1,2b,82,2,1,
,,,,,,,,,,,,,,,,,,,,,,,,,images/exp2c_trial_52_colour3_distractors9_r.png,r,2,024,001,2021-04-23_19h11.24.605,searchDisc4,2020.2.10,Win32,60,,,,space,0.26794,2,1,0.765295,,0,124,124,508,1,2c,52,3,9,
,,,,,,,,,,,,,,,,,,,,,,,,,images/exp1b_trial_20_colour1_distractors9_l.png,l,1,024,001,2021-04-23_19h11.24.605,searchDisc4,2020.2.10,Win32,60,,,,space,0.233035,1,1,0.72641,,0,125,125,134,1,1b,20,1,9,
,,,,,,,,,,,,,,,,,,,,,,,,,images/exp1a_trial_28_colour2_distractors31_l.png,l,1,024,001,2021-04-23_19h11.24.605,searchDisc4,2020.2.10,Win32,60,,,,space,0.18606,1,1,0.930605,,0,126,126,28,1,1a,28,2,31,
,,,,,,,,,,,,,,,,,,,,,,,,,images/exp2a_trial_40_colour1_distractors9_r.png,r,2,024,001,2021-04-23_19h11.24.605,searchDisc4,2020.2.10,Win32,60,,,,space,0.18938,2,1,1.175185,,0,127,127,268,1,2a,40,1,9,
,,,,,,,,,,,,,,,,,,,,,,,,,images/exp2b_trial_81_colour1_distractors43_r.png,r,2,024,001,2021-04-23_19h11.24.605,searchDisc4,2020.2.10,Win32,60,,,,space,0.20734,2,1,0.98631,,0,128,128,423,1,2b,81,1,43,
,,,,,,,,,,,,,,,,,,,,,,,,,images/exp2a_trial_20_colour1_distractors9_l.png,l,1,024,001,2021-04-23_19h11.24.605,searchDisc4,2020.2.10,Win32,60,,,,space,0.23015,1,1,0.891335,,0,129,129,248,1,2a,20,1,9,
,,,,,,,,,,,,,,,,,,,,,,,,,images/exp2a_trial_42_colour1_distractors31_r.png,r,2,024,001,2021-04-23_19h11.24.605,searchDisc4,2020.2.10,Win32,60,,,,space,0.169295,2,1,1.0381,,0,130,130,270,1,2a,42,1,31,
,,,,,,,,,,,,,,,,,,,,,,,,,images/exp1b_trial_16_colour3_distractors31_r.png,r,2,024,001,2021-04-23_19h11.24.605,searchDisc4,2020.2.10,Win32,60,,,,space,0.18609,2,1,4.67043,,0,131,131,130,1,1b,16,3,31,
,,,,,,,,,,,,,,,,,,,,,,,,,images/exp1b_trial_90_colour3_distractors9_r.png,r,2,024,001,2021-04-23_19h11.24.605,searchDisc4,2020.2.10,Win32,60,,,,space,0.216065,2,1,0.8916,,0,132,132,204,1,1b,90,3,9,
,,,,,,,,,,,,,,,,,,,,,,,,,images/exp2c_trial_26_colour2_distractors9_l.png,l,1,024,001,2021-04-23_19h11.24.605,searchDisc4,2020.2.10,Win32,60,,,,space,0.591665,1,1,0.94825,,0,133,133,482,1,2c,26,2,9,
,,,,,,,,,,,,,,,,,,,,,,,,,images/exp2b_trial_30_colour3_distractors1_l.png,l,1,024,001,2021-04-23_19h11.24.605,searchDisc4,2020.2.10,Win32,60,,,,space,0.21792,1,1,1.159525,,0,134,134,372,1,2b,30,3,1,
,,,,,,,,,,,,,,,,,,,,,,,,,images/exp2a_trial_34_colour3_distractors31_l.png,l,1,024,001,2021-04-23_19h11.24.605,searchDisc4,2020.2.10,Win32,60,,,,space,0.207095,1,1,0.96998,,0,135,135,262,1,2a,34,3,31,
,,,,,,,,,,,,,,,,,,,,,,,,,images/exp2c_trial_3_colour1_distractors19_r.png,r,2,024,001,2021-04-23_19h11.24.605,searchDisc4,2020.2.10,Win32,60,,,,space,0.3058,2,1,1.225325,,0,136,136,459,1,2c,3,1,19,
,,,,,,,,,,,,,,,,,,,,,,,,,images/exp2c_trial_49_colour2_distractors43_r.png,r,2,024,001,2021-04-23_19h11.24.605,searchDisc4,2020.2.10,Win32,60,,,,space,0.49697,2,1,0.82605,,0,137,137,505,1,2c,49,2,43,
,,,,,,,,,,,,,,,,,,,,,,,,,images/exp2b_trial_76_colour1_distractors1_r.png,r,2,024,001,2021-04-23_19h11.24.605,searchDisc4,2020.2.10,Win32,60,,,,space,0.213285,2,1,0.697205,,0,138,138,418,1,2b,76,1,1,
,,,,,,,,,,,,,,,,,,,,,,,,,images/exp1a_trial_98_colour1_distractors31_l.png,l,1,024,001,2021-04-23_19h11.24.605,searchDisc4,2020.2.10,Win32,60,,,,space,0.1846,1,1,1.03471,,0,139,139,98,1,1a,98,1,31,
,,,,,,,,,,,,,,,,,,,,,,,,,images/exp2a_trial_50_colour3_distractors1_r.png,r,2,024,001,2021-04-23_19h11.24.605,searchDisc4,2020.2.10,Win32,60,,,,space,0.191955,2,1,1.326285,,0,140,140,278,1,2a,50,3,1,
,,,,,,,,,,,,,,,,,,,,,,,,,images/exp1a_trial_10_colour2_distractors31_r.png,r,2,024,001,2021-04-23_19h11.24.605,searchDisc4,2020.2.10,Win32,60,,,,space,0.269065,2,1,0.965165,,0,141,141,10,1,1a,10,2,31,
,,,,,,,,,,,,,,,,,,,,,,,,,images/exp2b_trial_110_colour3_distractors31_l.png,l,1,024,001,2021-04-23_19h11.24.605,searchDisc4,2020.2.10,Win32,60,,,,space,0.20735,1,1,1.22661,,0,142,142,452,1,2b,110,3,31,
,,,,,,,,,,,,,,,,,,,,,,,,,images/exp1b_trial_96_colour1_distractors9_l.png,l,1,024,001,2021-04-23_19h11.24.605,searchDisc4,2020.2.10,Win32,60,,,,space,0.21314,1,1,1.599135,,0,143,143,210,1,1b,96,1,9,
,,,,,,,,,,,,,,,,,,,,,,,,,images/exp2b_trial_28_colour2_distractors31_l.png,l,1,024,001,2021-04-23_19h11.24.605,searchDisc4,2020.2.10,Win32,60,,,,space,0.20149,1,1,0.71811,,0,144,144,370,1,2b,28,2,31,
,,,,,,,,,,,,,,,,,,,,,,,,,images/exp1a_trial_109_colour3_distractors19_l.png,l,1,024,001,2021-04-23_19h11.24.605,searchDisc4,2020.2.10,Win32,60,,,,space,0.18505,1,1,1.387955,,0,145,145,109,1,1a,109,3,19,
,,,,,,,,,,,,,,,,,,,,,,,,,images/exp2b_trial_46_colour2_distractors9_r.png,r,2,024,001,2021-04-23_19h11.24.605,searchDisc4,2020.2.10,Win32,60,,,,space,0.225365,2,1,0.90986,,0,146,146,388,1,2b,46,2,9,
,,,,,,,,,,,,,,,,,,,,,,,,,images/exp2a_trial_108_colour3_distractors9_l.png,l,1,024,001,2021-04-23_19h11.24.605,searchDisc4,2020.2.10,Win32,60,,,,space,0.206825,1,1,1.00345,,0,147,147,336,1,2a,108,3,9,
,,,,,,,,,,,,,,,,,,,,,,,,,images/exp1b_trial_81_colour1_distractors43_r.png,r,2,024,001,2021-04-23_19h11.24.605,searchDisc4,2020.2.10,Win32,60,,,,space,0.192965,2,1,1.30561,,0,148,148,195,1,1b,81,1,43,
,,,,,,,,,,,,,,,,,,,,,,,,,images/exp1b_trial_110_colour3_distractors31_l.png,l,1,024,001,2021-04-23_19h11.24.605,searchDisc4,2020.2.10,Win32,60,,,,space,0.22474,1,1,2.524035,,0,149,149,224,1,1b,110,3,31,
,,,,,,,,,,,,,,,,,,,,,,,,,images/exp2b_trial_25_colour2_distractors4_l.png,l,1,024,001,2021-04-23_19h11.24.605,searchDisc4,2020.2.10,Win32,60,,,,space,0.218085,1,1,0.86595,,0,150,150,367,1,2b,25,2,4,
,,,,,,,,,,,,,,,,,,,,,,,,,images/exp1b_trial_28_colour2_distractors31_l.png,l,1,024,001,2021-04-23_19h11.24.605,searchDisc4,2020.2.10,Win32,60,,,,space,0.151255,1,1,0.8892,,0,151,151,142,1,1b,28,2,31,
,,,,,,,,,,,,,,,,,,,,,,,,,images/exp1b_trial_102_colour2_distractors9_l.png,l,1,024,001,2021-04-23_19h11.24.605,searchDisc4,2020.2.10,Win32,60,,,,space,0.22176,1,1,0.843995,,0,152,152,216,1,1b,102,2,9,
,,,,,,,,,,,,,,,,,,,,,,,,,images/exp2c_trial_83_colour2_distractors4_r.png,r,2,024,001,2021-04-23_19h11.24.605,searchDisc4,2020.2.10,Win32,60,,,,space,0.20179,2,1,0.841575,,0,153,153,539,1,2c,83,2,4,
,,,,,,,,,,,,,,,,,,,,,,,,,images/exp2b_trial_35_colour3_distractors43_l.png,l,1,024,001,2021-04-23_19h11.24.605,searchDisc4,2020.2.10,Win32,60,,,,space,0.18654,1,1,1.474375,,0,154,154,377,1,2b,35,3,43,
,,,,,,,,,,,,,,,,,,,,,,,,,images/exp1a_trial_75_colour0_distractors0_l.png,l,1,024,001,2021-04-23_19h11.24.605,searchDisc4,2020.2.10,Win32,60,,,,space,0.155505,1,1,0.87591,,0,155,155,75,1,1a,75,0,0,
,,,,,,,,,,,,,,,,,,,,,,,,,images/exp1b_trial_42_colour1_distractors31_r.png,r,2,024,001,2021-04-23_19h11.24.605,searchDisc4,2020.2.10,Win32,60,,,,space,0.14716,2,1,1.40439,,0,156,156,156,1,1b,42,1,31,
,,,,,,,,,,,,,,,,,,,,,,,,,images/exp1b_trial_80_colour1_distractors31_r.png,r,2,024,001,2021-04-23_19h11.24.605,searchDisc4,2020.2.10,Win32,60,,,,space,0.263275,2,1,1.37968,,0,157,157,194,1,1b,80,1,31,
,,,,,,,,,,,,,,,,,,,,,,,,,images/exp2a_trial_36_colour0_distractors0_r.png,r,2,024,001,2021-04-23_19h11.24.605,searchDisc4,2020.2.10,Win32,60,,,,space,0.248675,2,1,0.86009,,0,158,158,264,1,2a,36,0,0,
,,,,,,,,,,,,,,,,,,,,,,,,,images/exp2c_trial_108_colour3_distractors9_l.png,l,1,024,001,2021-04-23_19h11.24.605,searchDisc4,2020.2.10,Win32,60,,,,space,0.130375,1,1,1.482195,,0,159,159,564,1,2c,108,3,9,
,,,,,,,,,,,,,,,,,,,,,,,,,images/exp1a_trial_89_colour3_distractors4_r.png,r,2,024,001,2021-04-23_19h11.24.605,searchDisc4,2020.2.10,Win32,60,,,,space,0.18331,2,1,1.86102,,0,160,160,89,1,1a,89,3,4,
,,,,,,,,,,,,,,,,,,,,,,,,,images/exp1b_trial_63_colour2_distractors4_l.png,l,1,024,001,2021-04-23_19h11.24.605,searchDisc4,2020.2.10,Win32,60,,,,space,0.290625,1,1,1.479765,,0,161,161,177,1,1b,63,2,4,
,,,,,,,,,,,,,,,,,,,,,,,,,images/exp1b_trial_79_colour1_distractors19_r.png,r,2,024,001,2021-04-23_19h11.24.605,searchDisc4,2020.2.10,Win32,60,,,,space,0.27726,2,1,1.13272,,0,162,162,193,1,1b,79,1,19,
,,,,,,,,,,,,,,,,,,,,,,,,,images/exp1b_trial_38_colour1_distractors1_r.png,r,2,024,001,2021-04-23_19h11.24.605,searchDisc4,2020.2.10,Win32,60,,,,space,0.254485,2,1,0.93546,,0,163,163,152,1,1b,38,1,1,
,,,,,,,,,,,,,,,,,,,,,,,,,images/exp2b_trial_44_colour2_distractors1_r.png,r,2,024,001,2021-04-23_19h11.24.605,searchDisc4,2020.2.10,Win32,60,,,,space,0.19703,2,1,1.07606,,0,164,164,386,1,2b,44,2,1,
,,,,,,,,,,,,,,,,,,,,,,,,,images/exp1b_trial_5_colour1_distractors43_r.png,r,2,024,001,2021-04-23_19h11.24.605,searchDisc4,2020.2.10,Win32,60,,,,space,0.15973,2,1,0.93963,,0,165,165,119,1,1b,5,1,43,
,,,,,,,,,,,,,,,,,,,,,,,,,images/exp2c_trial_106_colour3_distractors1_l.png,l,1,024,001,2021-04-23_19h11.24.605,searchDisc4,2020.2.10,Win32,60,,,,space,0.185255,1,1,1.19348,,0,166,166,562,1,2c,106,3,1,
,,,,,,,,,,,,,,,,,,,,,,,,,images/exp1a_trial_86_colour2_distractors31_r.png,r,2,024,001,2021-04-23_19h11.24.605,searchDisc4,2020.2.10,Win32,60,,,,space,0.18963,2,1,1.04645,,0,167,167,86,1,1a,86,2,31,
,,,,,,,,,,,,,,,,,,,,,,,,,images/exp1b_trial_86_colour2_distractors31_r.png,r,2,024,001,2021-04-23_19h11.24.605,searchDisc4,2020.2.10,Win32,60,,,,space,0.28409,2,1,2.34007,,0,168,168,200,1,1b,86,2,31,
,,,,,,,,,,,,,,,,,,,,,,,,,images/exp2b_trial_6_colour2_distractors1_r.png,r,2,024,001,2021-04-23_19h11.24.605,searchDisc4,2020.2.10,Win32,60,,,,space,0.174275,2,1,0.952185,,0,169,169,348,1,2b,6,2,1,
,,,,,,,,,,,,,,,,,,,,,,,,,images/exp2a_trial_49_colour2_distractors43_r.png,r,2,024,001,2021-04-23_19h11.24.605,searchDisc4,2020.2.10,Win32,60,,,,space,0.15548,2,1,1.051185,,0,170,170,277,1,2a,49,2,43,
,,,,,,,,,,,,,,,,,,,,,,,,,images/exp2c_trial_6_colour2_distractors1_r.png,r,2,024,001,2021-04-23_19h11.24.605,searchDisc4,2020.2.10,Win32,60,,,,space,0.130655,2,1,0.785755,,0,171,171,462,1,2c,6,2,1,
,,,,,,,,,,,,,,,,,,,,,,,,,images/exp2b_trial_83_colour2_distractors4_r.png,r,2,024,001,2021-04-23_19h11.24.605,searchDisc4,2020.2.10,Win32,60,,,,space,0.20896,2,1,0.818605,,0,172,172,425,1,2b,83,2,4,
,,,,,,,,,,,,,,,,,,,,,,,,,images/exp1a_trial_4_colour1_distractors31_r.png,r,2,024,001,2021-04-23_19h11.24.605,searchDisc4,2020.2.10,Win32,60,,,,space,0.205445,2,1,1.1755,,0,173,173,4,1,1a,4,1,31,
,,,,,,,,,,,,,,,,,,,,,,,,,images/exp1b_trial_92_colour3_distractors31_r.png,r,2,024,001,2021-04-23_19h11.24.605,searchDisc4,2020.2.10,Win32,60,,,,space,0.28845,2,1,1.9535,,0,174,174,206,1,1b,92,3,31,
,,,,,,,,,,,,,,,,,,,,,,,,,images/exp2c_trial_7_colour2_distractors4_r.png,r,2,024,001,2021-04-23_19h11.24.605,searchDisc4,2020.2.10,Win32,60,,,,space,0.181185,2,1,0.76562,,0,175,175,463,1,2c,7,2,4,
,,,,,,,,,,,,,,,,,,,,,,,,,images/exp1a_trial_3_colour1_distractors19_r.png,r,2,024,001,2021-04-23_19h11.24.605,searchDisc4,2020.2.10,Win32,60,,,,space,0.15871,2,1,1.42752,,0,176,176,3,1,1a,3,1,19,
,,,,,,,,,,,,,,,,,,,,,,,,,images/exp2c_trial_72_colour3_distractors31_l.png,l,1,024,001,2021-04-23_19h11.24.605,searchDisc4,2020.2.10,Win32,60,,,,space,0.212945,1,1,1.109785,,0,177,177,528,1,2c,72,3,31,
,,,,,,,,,,,,,,,,,,,,,,,,,images/exp1b_trial_70_colour3_distractors9_l.png,l,1,024,001,2021-04-23_19h11.24.605,searchDisc4,2020.2.10,Win32,60,,,,space,0.2642,1,1,1.91487,,0,178,178,184,1,1b,70,3,9,
,,,,,,,,,,,,,,,,,,,,,,,,,images/exp2b_trial_75_colour0_distractors0_l.png,l,1,024,001,2021-04-23_19h11.24.605,searchDisc4,2020.2.10,Win32,60,,,,space,0.201205,1,1,0.669285,space,0,179,179,417,1,2b,75,0,0,0.190205
,,,,,,,,,,,,,,,,,,,,,,,,,images/exp1b_trial_6_colour2_distractors1_r.png,r,2,024,001,2021-04-23_19h11.24.605,searchDisc4,2020.2.10,Win32,60,,,,space,8.18954,2,1,1.824325,,0,180,180,120,1,1b,6,2,1,
,,,,,,,,,,,,,,,,,,,,,,,,,images/exp1a_trial_92_colour3_distractors31_r.png,r,2,024,001,2021-04-23_19h11.24.605,searchDisc4,2020.2.10,Win32,60,,,,space,0.44715,2,1,0.817875,,0,181,181,92,1,1a,92,3,31,
,,,,,,,,,,,,,,,,,,,,,,,,,images/exp2a_trial_38_colour1_distractors1_r.png,r,2,024,001,2021-04-23_19h11.24.605,searchDisc4,2020.2.10,Win32,60,,,,space,0.287685,2,1,0.688195,,0,182,182,266,1,2a,38,1,1,
,,,,,,,,,,,,,,,,,,,,,,,,,images/exp2a_trial_47_colour2_distractors19_r.png,r,2,024,001,2021-04-23_19h11.24.605,searchDisc4,2020.2.10,Win32,60,,,,space,0.258415,2,1,0.82,,0,183,183,275,1,2a,47,2,19,
,,,,,,,,,,,,,,,,,,,,,,,,,images/exp2b_trial_78_colour1_distractors9_r.png,r,2,024,001,2021-04-23_19h11.24.605,searchDisc4,2020.2.10,Win32,60,,,,space,0.21326,2,1,0.814565,,0,184,184,420,1,2b,78,1,9,
,,,,,,,,,,,,,,,,,,,,,,,,,images/exp2c_trial_20_colour1_distractors9_l.png,l,1,024,001,2021-04-23_19h11.24.605,searchDisc4,2020.2.10,Win32,60,,,,space,0.169065,1,1,0.807285,,0,185,185,476,1,2c,20,1,9,
,,,,,,,,,,,,,,,,,,,,,,,,,images/exp1b_trial_10_colour2_distractors31_r.png,r,2,024,001,2021-04-23_19h11.24.605,searchDisc4,2020.2.10,Win32,60,,,,space,0.23859,2,1,1.6055,,0,186,186,124,1,1b,10,2,31,
,,,,,,,,,,,,,,,,,,,,,,,,,images/exp2b_trial_0_colour1_distractors1_r.png,r,2,024,001,2021-04-23_19h11.24.605,searchDisc4,2020.2.10,Win32,60,,,,space,0.35137,2,1,0.8807,,0,187,187,342,1,2b,0,1,1,
,,,,,,,,,,,,,,,,,,,,,,,,,images/exp1a_trial_12_colour3_distractors1_r.png,r,2,024,001,2021-04-23_19h11.24.605,searchDisc4,2020.2.10,Win32,60,,,,space,0.21966,2,1,0.842745,,0,188,188,12,1,1a,12,3,1,
,,,,,,,,,,,,,,,,,,,,,,,,,images/exp2a_trial_69_colour3_distractors4_l.png,l,1,024,001,2021-04-23_19h11.24.605,searchDisc4,2020.2.10,Win32,60,,,,space,0.23454,1,1,1.016185,,0,189,189,297,1,2a,69,3,4,
,,,,,,,,,,,,,,,,,,,,,,,,,images/exp1b_trial_98_colour1_distractors31_l.png,l,1,024,001,2021-04-23_19h11.24.605,searchDisc4,2020.2.10,Win32,60,,,,space,0.56574,1,1,1.086125,,0,190,190,212,1,1b,98,1,31,
,,,,,,,,,,,,,,,,,,,,,,,,,images/exp1a_trial_110_colour3_distractors31_l.png,l,1,024,001,2021-04-23_19h11.24.605,searchDisc4,2020.2.10,Win32,60,,,,space,0.3512,1,1,0.72419,,0,191,191,110,1,1a,110,3,31,
,,,,,,,,,,,,,,,,,,,,,,,,,images/exp2c_trial_78_colour1_distractors9_r.png,r,2,024,001,2021-04-23_19h11.24.605,searchDisc4,2020.2.10,Win32,60,,,,space,0.29776,2,1,1.469645,,0,192,192,534,1,2c,78,1,9,
,,,,,,,,,,,,,,,,,,,,,,,,,images/exp2a_trial_107_colour3_distractors4_l.png,l,1,024,001,2021-04-23_19h11.24.605,searchDisc4,2020.2.10,Win32,60,,,,space,0.244815,1,1,0.86123,,0,193,193,335,1,2a,107,3,4,
,,,,,,,,,,,,,,,,,,,,,,,,,images/exp2c_trial_104_colour2_distractors31_l.png,l,1,024,001,2021-04-23_19h11.24.605,searchDisc4,2020.2.10,Win32,60,,,,space,0.434985,1,1,0.926255,,0,194,194,560,1,2c,104,2,31,
,,,,,,,,,,,,,,,,,,,,,,,,,images/exp1b_trial_60_colour1_distractors31_l.png,l,1,024,001,2021-04-23_19h11.24.605,searchDisc4,2020.2.10,Win32,60,,,,space,0.211425,1,1,2.098755,,0,195,195,174,1,1b,60,1,31,
,,,,,,,,,,,,,,,,,,,,,,,,,images/exp1b_trial_52_colour3_distractors9_r.png,r,2,024,001,2021-04-23_19h11.24.605,searchDisc4,2020.2.10,Win32,60,,,,space,0.271135,2,1,1.40742,,0,196,196,166,1,1b,52,3,9,
,,,,,,,,,,,,,,,,,,,,,,,,,images/exp2a_trial_101_colour2_distractors4_l.png,l,1,024,001,2021-04-23_19h11.24.605,searchDisc4,2020.2.10,Win32,60,,,,space,0.169625,1,1,1.01286,,0,197,197,329,1,2a,101,2,4,
,,,,,,,,,,,,,,,,,,,,,,,,,images/exp2a_trial_32_colour3_distractors9_l.png,l,1,024,001,2021-04-23_19h11.24.605,searchDisc4,2020.2.10,Win32,60,,,,space,0.19611,1,1,0.94616,,0,198,198,260,1,2a,32,3,9,
,,,,,,,,,,,,,,,,,,,,,,,,,images/exp1b_trial_34_colour3_distractors31_l.png,l,1,024,001,2021-04-23_19h11.24.605,searchDisc4,2020.2.10,Win32,60,,,,space,0.213815,1,1,3.50286,,0,199,199,148,1,1b,34,3,31,
,,,,,,,,,,,,,,,,,,,,,,,,,images/exp1a_trial_19_colour1_distractors4_l.png,l,1,024,001,2021-04-23_19h11.24.605,searchDisc4,2020.2.10,Win32,60,,,,space,0.221435,1,1,1.18391,,0,200,200,19,1,1a,19,1,4,
,,,,,,,,,,,,,,,,,,,,,,,,,images/exp2b_trial_108_colour3_distractors9_l.png,l,1,024,001,2021-04-23_19h11.24.605,searchDisc4,2020.2.10,Win32,60,,,,space,0.23465,1,1,0.841935,,0,201,201,450,1,2b,108,3,9,
,,,,,,,,,,,,,,,,,,,,,,,,,images/exp2b_trial_42_colour1_distractors31_r.png,r,2,024,001,2021-04-23_19h11.24.605,searchDisc4,2020.2.10,Win32,60,,,,space,0.184745,2,1,1.080765,,0,202,202,384,1,2b,42,1,31,
,,,,,,,,,,,,,,,,,,,,,,,,,images/exp2c_trial_96_colour1_distractors9_l.png,l,1,024,001,2021-04-23_19h11.24.605,searchDisc4,2020.2.10,Win32,60,,,,space,0.23907,1,1,0.84233,,0,203,203,552,1,2c,96,1,9,
,,,,,,,,,,,,,,,,,,,,,,,,,images/exp1b_trial_71_colour3_distractors19_l.png,l,1,024,001,2021-04-23_19h11.24.605,searchDisc4,2020.2.10,Win32,60,,,,space,0.16769,1,1,1.92162,,0,204,204,185,1,1b,71,3,19,
,,,,,,,,,,,,,,,,,,,,,,,,,images/exp1a_trial_40_colour1_distractors9_r.png,r,2,024,001,2021-04-23_19h11.24.605,searchDisc4,2020.2.10,Win32,60,,,,space,0.268055,2,1,1.174275,,0,205,205,40,1,1a,40,1,9,
,,,,,,,,,,,,,,,,,,,,,,,,,images/exp2c_trial_93_colour3_distractors43_r.png,r,2,024,001,2021-04-23_19h11.24.605,searchDisc4,2020.2.10,Win32,60,,,,space,0.24928,2,1,1.27725,,0,206,206,549,1,2c,93,3,43,
,,,,,,,,,,,,,,,,,,,,,,,,,images/exp2c_trial_34_colour3_distractors31_l.png,l,1,024,001,2021-04-23_19h11.24.605,searchDisc4,2020.2.10,Win32,60,,,,space,0.203655,1,1,0.82457,,0,207,207,490,1,2c,34,3,31,
,,,,,,,,,,,,,,,,,,,,,,,,,images/exp1b_trial_44_colour2_distractors1_r.png,r,2,024,001,2021-04-23_19h11.24.605,searchDisc4,2020.2.10,Win32,60,,,,space,0.263925,2,1,0.859405,,0,208,208,158,1,1b,44,2,1,
,,,,,,,,,,,,,,,,,,,,,,,,,images/exp1b_trial_57_colour1_distractors4_l.png,l,1,024,001,2021-04-23_19h11.24.605,searchDisc4,2020.2.10,Win32,60,,,,space,0.251755,1,1,1.341365,,0,209,209,171,1,1b,57,1,4,
,,,,,,,,,,,,,,,,,,,,,,,,,images/exp1a_trial_62_colour2_distractors1_l.png,l,1,024,001,2021-04-23_19h11.24.605,searchDisc4,2020.2.10,Win32,60,,,,space,0.235205,2,0,1.62692,,0,210,210,62,1,1a,62,2,1,
,,,,,,,,,,,,,,,,,,,,,,,,,images/exp2a_trial_103_colour2_distractors19_l.png,l,1,024,001,2021-04-23_19h11.24.605,searchDisc4,2020.2.10,Win32,60,,,,space,0.472565,1,1,1.112505,,0,211,211,331,1,2a,103,2,19,
,,,,,,,,,,,,,,,,,,,,,,,,,images/exp2c_trial_76_colour1_distractors1_r.png,r,2,024,001,2021-04-23_19h11.24.605,searchDisc4,2020.2.10,Win32,60,,,,space,0.253615,2,1,0.80874,,0,212,212,532,1,2c,76,1,1,
,,,,,,,,,,,,,,,,,,,,,,,,,images/exp2c_trial_2_colour1_distractors9_r.png,r,2,024,001,2021-04-23_19h11.24.605,searchDisc4,2020.2.10,Win32,60,,,,space,0.21787,2,1,0.99224,,0,213,213,458,1,2c,2,1,9,
,,,,,,,,,,,,,,,,,,,,,,,,,images/exp1a_trial_113_colour0_distractors0_l.png,l,1,024,001,2021-04-23_19h11.24.605,searchDisc4,2020.2.10,Win32,60,,,,space,0.339305,1,1,0.91823,,0,214,214,113,1,1a,113,0,0,
,,,,,,,,,,,,,,,,,,,,,,,,,images/exp1b_trial_105_colour2_distractors43_l.png,l,1,024,001,2021-04-23_19h11.24.605,searchDisc4,2020.2.10,Win32,60,,,,space,0.268055,1,1,2.125995,,0,215,215,219,1,1b,105,2,43,
,,,,,,,,,,,,,,,,,,,,,,,,,images/exp1a_trial_91_colour3_distractors19_r.png,r,2,024,001,2021-04-23_19h11.24.605,searchDisc4,2020.2.10,Win32,60,,,,space,0.214365,2,1,0.959995,,0,216,216,91,1,1a,91,3,19,
,,,,,,,,,,,,,,,,,,,,,,,,,images/exp1a_trial_45_colour2_distractors4_r.png,r,2,024,001,2021-04-23_19h11.24.605,searchDisc4,2020.2.10,Win32,60,,,,space,0.23361,2,1,1.45867,,0,217,217,45,1,1a,45,2,4,
,,,,,,,,,,,,,,,,,,,,,,,,,images/exp2a_trial_23_colour1_distractors43_l.png,l,1,024,001,2021-04-23_19h11.24.605,searchDisc4,2020.2.10,Win32,60,,,,space,0.2682,1,1,1.328305,,0,218,218,251,1,2a,23,1,43,
,,,,,,,,,,,,,,,,,,,,,,,,,images/exp2b_trial_112_colour0_distractors0_r.png,r,2,024,001,2021-04-23_19h11.24.605,searchDisc4,2020.2.10,Win32,60,,,,space,0.233485,2,1,1.02648,,0,219,219,454,1,2b,112,0,0,
,,,,,,,,,,,,,,,,,,,,,,,,,images/exp1b_trial_37_colour0_distractors0_l.png,l,1,024,001,2021-04-23_19h11.24.605,searchDisc4,2020.2.10,Win32,60,,,,space,0.23431,1,1,0.81503,,0,220,220,151,1,1b,37,0,0,
,,,,,,,,,,,,,,,,,,,,,,,,,images/exp1b_trial_15_colour3_distractors19_r.png,r,2,024,001,2021-04-23_19h11.24.605,searchDisc4,2020.2.10,Win32,60,,,,space,0.19044,2,1,1.411805,,0,221,221,129,1,1b,15,3,19,
,,,,,,,,,,,,,,,,,,,,,,,,,images/exp2a_trial_106_colour3_distractors1_l.png,l,1,024,001,2021-04-23_19h11.24.605,searchDisc4,2020.2.10,Win32,60,,,,space,0.21227,1,1,0.81836,,0,222,222,334,1,2a,106,3,1,
,,,,,,,,,,,,,,,,,,,,,,,,,images/exp2a_trial_63_colour2_distractors4_l.png,l,1,024,001,2021-04-23_19h11.24.605,searchDisc4,2020.2.10,Win32,60,,,,space,0.195325,1,1,1.19062,,0,223,223,291,1,2a,63,2,4,
,,,,,,,,,,,,,,,,,,,,,,,,,images/exp2a_trial_65_colour2_distractors19_l.png,l,1,024,001,2021-04-23_19h11.24.605,searchDisc4,2020.2.10,Win32,60,,,,space,0.18512,1,1,1.118855,,0,224,224,293,1,2a,65,2,19,
,,,,,,,,,,,,,,,,,,,,,,,,,images/exp2b_trial_102_colour2_distractors9_l.png,l,1,024,001,2021-04-23_19h11.24.605,searchDisc4,2020.2.10,Win32,60,,,,space,0.210165,1,1,1.01291,,0,225,225,444,1,2b,102,2,9,
,,,,,,,,,,,,,,,,,,,,,,,,,images/exp2a_trial_112_colour0_distractors0_r.png,r,2,024,001,2021-04-23_19h11.24.605,searchDisc4,2020.2.10,Win32,60,,,,space,0.352555,1,0,0.642755,,0,226,226,340,1,2a,112,0,0,
,,,,,,,,,,,,,,,,,,,,,,,,,images/exp1a_trial_30_colour3_distractors1_l.png,l,1,024,001,2021-04-23_19h11.24.605,searchDisc4,2020.2.10,Win32,60,,,,space,1.15794,1,1,1.321035,,0,227,227,30,1,1a,30,3,1,
,,,,,,,,,,,,,,,,,,,,,,,,,images/exp1b_trial_101_colour2_distractors4_l.png,l,1,024,001,2021-04-23_19h11.24.605,searchDisc4,2020.2.10,Win32,60,,,,space,0.1903,1,1,1.0088,,0,228,228,215,1,1b,101,2,4,
,,,,,,,,,,,,,,,,,,,,,,,,,images/exp1a_trial_34_colour3_distractors31_l.png,l,1,024,001,2021-04-23_19h11.24.605,searchDisc4,2020.2.10,Win32,60,,,,space,0.209375,1,1,0.83561,,0,229,229,34,1,1a,34,3,31,
,,,,,,,,,,,,,,,,,,,,,,,,,images/exp1b_trial_12_colour3_distractors1_r.png,r,2,024,001,2021-04-23_19h11.24.605,searchDisc4,2020.2.10,Win32,60,,,,space,0.214745,2,1,1.61686,,0,230,230,126,1,1b,12,3,1,
,,,,,,,,,,,,,,,,,,,,,,,,,images/exp1b_trial_68_colour3_distractors1_l.png,l,1,024,001,2021-04-23_19h11.24.605,searchDisc4,2020.2.10,Win32,60,,,,space,0.268495,1,1,0.85449,,0,231,231,182,1,1b,68,3,1,
,,,,,,,,,,,,,,,,,,,,,,,,,images/exp2a_trial_87_colour2_distractors43_r.png,r,2,024,001,2021-04-23_19h11.24.605,searchDisc4,2020.2.10,Win32,60,,,,space,0.201375,2,1,1.00624,,0,232,232,315,1,2a,87,2,43,
,,,,,,,,,,,,,,,,,,,,,,,,,images/exp1b_trial_18_colour1_distractors1_l.png,l,1,024,001,2021-04-23_19h11.24.605,searchDisc4,2020.2.10,Win32,60,,,,space,0.24691,1,1,1.299465,,0,233,233,132,1,1b,18,1,1,
,,,,,,,,,,,,,,,,,,,,,,,,,images/exp2b_trial_57_colour1_distractors4_l.png,l,1,024,001,2021-04-23_19h11.24.605,searchDisc4,2020.2.10,Win32,60,,,,space,0.46,1,1,0.801725,,0,234,234,399,1,2b,57,1,4,
,,,,,,,,,,,,,,,,,,,,,,,,,images/exp2a_trial_91_colour3_distractors19_r.png,r,2,024,001,2021-04-23_19h11.24.605,searchDisc4,2020.2.10,Win32,60,,,,space,0.222185,2,1,0.872515,,0,235,235,319,1,2a,91,3,19,
,,,,,,,,,,,,,,,,,,,,,,,,,images/exp2a_trial_33_colour3_distractors19_l.png,l,1,024,001,2021-04-23_19h11.24.605,searchDisc4,2020.2.10,Win32,60,,,,space,0.38305,1,1,0.94978,,0,236,236,261,1,2a,33,3,19,
,,,,,,,,,,,,,,,,,,,,,,,,,images/exp2a_trial_24_colour2_distractors1_l.png,l,1,024,001,2021-04-23_19h11.24.605,searchDisc4,2020.2.10,Win32,60,,,,space,0.274355,1,1,0.79805,,0,237,237,252,1,2a,24,2,1,
,,,,,,,,,,,,,,,,,,,,,,,,,images/exp2a_trial_96_colour1_distractors9_l.png,l,1,024,001,2021-04-23_19h11.24.605,searchDisc4,2020.2.10,Win32,60,,,,space,0.370175,1,1,0.92402,,0,238,238,324,1,2a,96,1,9,
,,,,,,,,,,,,,,,,,,,,,,,,,images/exp2b_trial_91_colour3_distractors19_r.png,r,2,024,001,2021-04-23_19h11.24.605,searchDisc4,2020.2.10,Win32,60,,,,space,0.18471,2,1,0.75786,space,0,239,239,433,1,2b,91,3,19,0.22563
,,,,,,,,,,,,,,,,,,,,,,,,,images/exp2b_trial_47_colour2_distractors19_r.png,r,2,024,001,2021-04-23_19h11.24.605,searchDisc4,2020.2.10,Win32,60,,,,space,4.00116,2,1,1.441095,,0,240,240,389,1,2b,47,2,19,
,,,,,,,,,,,,,,,,,,,,,,,,,images/exp2c_trial_1_colour1_distractors4_r.png,r,2,024,001,2021-04-23_19h11.24.605,searchDisc4,2020.2.10,Win32,60,,,,space,0.2674,2,1,1.040695,,0,241,241,457,1,2c,1,1,4,
,,,,,,,,,,,,,,,,,,,,,,,,,images/exp2b_trial_88_colour3_distractors1_r.png,r,2,024,001,2021-04-23_19h11.24.605,searchDisc4,2020.2.10,Win32,60,,,,space,0.20554,2,1,1.709935,,0,242,242,430,1,2b,88,3,1,
,,,,,,,,,,,,,,,,,,,,,,,,,images/exp1a_trial_102_colour2_distractors9_l.png,l,1,024,001,2021-04-23_19h11.24.605,searchDisc4,2020.2.10,Win32,60,,,,space,0.589215,1,1,0.92796,,0,243,243,102,1,1a,102,2,9,
,,,,,,,,,,,,,,,,,,,,,,,,,images/exp2c_trial_0_colour1_distractors1_r.png,r,2,024,001,2021-04-23_19h11.24.605,searchDisc4,2020.2.10,Win32,60,,,,space,0.286105,2,1,0.676445,,0,244,244,456,1,2c,0,1,1,
,,,,,,,,,,,,,,,,,,,,,,,,,images/exp2c_trial_105_colour2_distractors43_l.png,l,1,024,001,2021-04-23_19h11.24.605,searchDisc4,2020.2.10,Win32,60,,,,space,0.313035,1,1,1.146825,,0,245,245,561,1,2c,105,2,43,
,,,,,,,,,,,,,,,,,,,,,,,,,images/exp1a_trial_16_colour3_distractors31_r.png,r,2,024,001,2021-04-23_19h11.24.605,searchDisc4,2020.2.10,Win32,60,,,,space,0.405315,2,1,0.81399,,0,246,246,16,1,1a,16,3,31,
,,,,,,,,,,,,,,,,,,,,,,,,,images/exp2a_trial_70_colour3_distractors9_l.png,l,1,024,001,2021-04-23_19h11.24.605,searchDisc4,2020.2.10,Win32,60,,,,space,0.38596,1,1,0.58756,,0,247,247,298,1,2a,70,3,9,
,,,,,,,,,,,,,,,,,,,,,,,,,images/exp2c_trial_23_colour1_distractors43_l.png,l,1,024,001,2021-04-23_19h11.24.605,searchDisc4,2020.2.10,Win32,60,,,,space,0.83087,1,1,1.008145,,0,248,248,479,1,2c,23,1,43,
,,,,,,,,,,,,,,,,,,,,,,,,,images/exp2b_trial_55_colour3_distractors43_r.png,r,2,024,001,2021-04-23_19h11.24.605,searchDisc4,2020.2.10,Win32,60,,,,space,0.20305,2,1,0.812565,,0,249,249,397,1,2b,55,3,43,
,,,,,,,,,,,,,,,,,,,,,,,,,images/exp1a_trial_7_colour2_distractors4_r.png,r,2,024,001,2021-04-23_19h11.24.605,searchDisc4,2020.2.10,Win32,60,,,,space,0.268275,2,1,0.846675,,0,250,250,7,1,1a,7,2,4,
,,,,,,,,,,,,,,,,,,,,,,,,,images/exp2a_trial_56_colour1_distractors1_l.png,l,1,024,001,2021-04-23_19h11.24.605,searchDisc4,2020.2.10,Win32,60,,,,space,0.23581,1,1,0.878315,,0,251,251,284,1,2a,56,1,1,
,,,,,,,,,,,,,,,,,,,,,,,,,images/exp2a_trial_60_colour1_distractors31_l.png,l,1,024,001,2021-04-23_19h11.24.605,searchDisc4,2020.2.10,Win32,60,,,,space,0.327545,1,1,1.187635,,0,252,252,288,1,2a,60,1,31,
,,,,,,,,,,,,,,,,,,,,,,,,,images/exp1b_trial_100_colour2_distractors1_l.png,l,1,024,001,2021-04-23_19h11.24.605,searchDisc4,2020.2.10,Win32,60,,,,space,0.2198,1,1,0.848985,,0,253,253,214,1,1b,100,2,1,
,,,,,,,,,,,,,,,,,,,,,,,,,images/exp1a_trial_70_colour3_distractors9_l.png,l,1,024,001,2021-04-23_19h11.24.605,searchDisc4,2020.2.10,Win32,60,,,,space,0.20933,1,1,1.179655,,0,254,254,70,1,1a,70,3,9,
,,,,,,,,,,,,,,,,,,,,,,,,,images/exp2c_trial_90_colour3_distractors9_r.png,r,2,024,001,2021-04-23_19h11.24.605,searchDisc4,2020.2.10,Win32,60,,,,space,0.399075,2,1,1.2047,,0,255,255,546,1,2c,90,3,9,
,,,,,,,,,,,,,,,,,,,,,,,,,images/exp2b_trial_17_colour3_distractors43_r.png,r,2,024,001,2021-04-23_19h11.24.605,searchDisc4,2020.2.10,Win32,60,,,,space,0.217495,2,1,1.30717,,0,256,256,359,1,2b,17,3,43,
,,,,,,,,,,,,,,,,,,,,,,,,,images/exp1a_trial_25_colour2_distractors4_l.png,l,1,024,001,2021-04-23_19h11.24.605,searchDisc4,2020.2.10,Win32,60,,,,space,0.22746,1,1,1.052035,,0,257,257,25,1,1a,25,2,4,
,,,,,,,,,,,,,,,,,,,,,,,,,images/exp1b_trial_21_colour1_distractors19_l.png,l,1,024,001,2021-04-23_19h11.24.605,searchDisc4,2020.2.10,Win32,60,,,,space,0.2262,1,1,1.518635,,0,258,258,135,1,1b,21,1,19,
,,,,,,,,,,,,,,,,,,,,,,,,,images/exp2c_trial_35_colour3_distractors43_l.png,l,1,024,001,2021-04-23_19h11.24.605,searchDisc4,2020.2.10,Win32,60,,,,space,0.247585,1,1,1.002035,,0,259,259,491,1,2c,35,3,43,
,,,,,,,,,,,,,,,,,,,,,,,,,images/exp1a_trial_76_colour1_distractors1_r.png,r,2,024,001,2021-04-23_19h11.24.605,searchDisc4,2020.2.10,Win32,60,,,,space,0.200025,2,1,0.869035,,0,260,260,76,1,1a,76,1,1,
,,,,,,,,,,,,,,,,,,,,,,,,,images/exp2c_trial_74_colour0_distractors0_r.png,r,2,024,001,2021-04-23_19h11.24.605,searchDisc4,2020.2.10,Win32,60,,,,space,0.209995,2,1,1.051145,,0,261,261,530,1,2c,74,0,0,
,,,,,,,,,,,,,,,,,,,,,,,,,images/exp2b_trial_33_colour3_distractors19_l.png,l,1,024,001,2021-04-23_19h11.24.605,searchDisc4,2020.2.10,Win32,60,,,,space,0.201255,1,1,0.946405,,0,262,262,375,1,2b,33,3,19,
,,,,,,,,,,,,,,,,,,,,,,,,,images/exp2c_trial_97_colour1_distractors19_l.png,l,1,024,001,2021-04-23_19h11.24.605,searchDisc4,2020.2.10,Win32,60,,,,space,0.252865,1,1,1.045905,,0,263,263,553,1,2c,97,1,19,
,,,,,,,,,,,,,,,,,,,,,,,,,images/exp2c_trial_21_colour1_distractors19_l.png,l,1,024,001,2021-04-23_19h11.24.605,searchDisc4,2020.2.10,Win32,60,,,,space,0.218195,1,1,0.88294,,0,264,264,477,1,2c,21,1,19,
,,,,,,,,,,,,,,,,,,,,,,,,,images/exp2c_trial_85_colour2_distractors19_r.png,r,2,024,001,2021-04-23_19h11.24.605,searchDisc4,2020.2.10,Win32,60,,,,space,0.20049,2,1,1.124865,,0,265,265,541,1,2c,85,2,19,
,,,,,,,,,,,,,,,,,,,,,,,,,images/exp1a_trial_20_colour1_distractors9_l.png,l,1,024,001,2021-04-23_19h11.24.605,searchDisc4,2020.2.10,Win32,60,,,,space,0.184275,1,1,1.281115,,0,266,266,20,1,1a,20,1,9,
,,,,,,,,,,,,,,,,,,,,,,,,,images/exp2c_trial_87_colour2_distractors43_r.png,r,2,024,001,2021-04-23_19h11.24.605,searchDisc4,2020.2.10,Win32,60,,,,space,0.20896,2,1,1.0474,,0,267,267,543,1,2c,87,2,43,
,,,,,,,,,,,,,,,,,,,,,,,,,images/exp1a_trial_39_colour1_distractors4_r.png,r,2,024,001,2021-04-23_19h11.24.605,searchDisc4,2020.2.10,Win32,60,,,,space,0.196955,2,1,0.90726,,0,268,268,39,1,1a,39,1,4,
,,,,,,,,,,,,,,,,,,,,,,,,,images/exp2c_trial_54_colour3_distractors31_r.png,r,2,024,001,2021-04-23_19h11.24.605,searchDisc4,2020.2.10,Win32,60,,,,space,0.184445,2,1,1.02623,,0,269,269,510,1,2c,54,3,31,
,,,,,,,,,,,,,,,,,,,,,,,,,images/exp2c_trial_44_colour2_distractors1_r.png,r,2,024,001,2021-04-23_19h11.24.605,searchDisc4,2020.2.10,Win32,60,,,,space,0.200475,2,1,1.09261,,0,270,270,500,1,2c,44,2,1,
,,,,,,,,,,,,,,,,,,,,,,,,,images/exp2c_trial_17_colour3_distractors43_r.png,r,2,024,001,2021-04-23_19h11.24.605,searchDisc4,2020.2.10,Win32,60,,,,space,0.142985,2,1,1.13739,,0,271,271,473,1,2c,17,3,43,
,,,,,,,,,,,,,,,,,,,,,,,,,images/exp2b_trial_104_colour2_distractors31_l.png,l,1,024,001,2021-04-23_19h11.24.605,searchDisc4,2020.2.10,Win32,60,,,,space,0.223935,1,1,1.27538,,0,272,272,446,1,2b,104,2,31,
,,,,,,,,,,,,,,,,,,,,,,,,,images/exp2a_trial_76_colour1_distractors1_r.png,r,2,024,001,2021-04-23_19h11.24.605,searchDisc4,2020.2.10,Win32,60,,,,space,0.1929,2,1,0.975645,,0,273,273,304,1,2a,76,1,1,
,,,,,,,,,,,,,,,,,,,,,,,,,images/exp1b_trial_36_colour0_distractors0_r.png,r,2,024,001,2021-04-23_19h11.24.605,searchDisc4,2020.2.10,Win32,60,,,,space,0.260925,2,1,1.67534,,0,274,274,150,1,1b,36,0,0,
,,,,,,,,,,,,,,,,,,,,,,,,,images/exp1b_trial_23_colour1_distractors43_l.png,l,1,024,001,2021-04-23_19h11.24.605,searchDisc4,2020.2.10,Win32,60,,,,space,0.24497,1,1,1.27614,,0,275,275,137,1,1b,23,1,43,
,,,,,,,,,,,,,,,,,,,,,,,,,images/exp2a_trial_80_colour1_distractors31_r.png,r,2,024,001,2021-04-23_19h11.24.605,searchDisc4,2020.2.10,Win32,60,,,,space,0.231645,2,1,2.030785,,0,276,276,308,1,2a,80,1,31,
,,,,,,,,,,,,,,,,,,,,,,,,,images/exp1b_trial_91_colour3_distractors19_r.png,r,2,024,001,2021-04-23_19h11.24.605,searchDisc4,2020.2.10,Win32,60,,,,space,0.282385,2,1,3.72688,,0,277,277,205,1,1b,91,3,19,
,,,,,,,,,,,,,,,,,,,,,,,,,images/exp1a_trial_77_colour1_distractors4_r.png,r,2,024,001,2021-04-23_19h11.24.605,searchDisc4,2020.2.10,Win32,60,,,,space,0.54639,2,1,1.375395,,0,278,278,77,1,1a,77,1,4,
,,,,,,,,,,,,,,,,,,,,,,,,,images/exp1a_trial_53_colour3_distractors19_r.png,r,2,024,001,2021-04-23_19h11.24.605,searchDisc4,2020.2.10,Win32,60,,,,space,0.268185,2,1,1.0781,,0,279,279,53,1,1a,53,3,19,
,,,,,,,,,,,,,,,,,,,,,,,,,images/exp2c_trial_11_colour2_distractors43_r.png,r,2,024,001,2021-04-23_19h11.24.605,searchDisc4,2020.2.10,Win32,60,,,,space,0.189855,2,1,0.91471,,0,280,280,467,1,2c,11,2,43,
,,,,,,,,,,,,,,,,,,,,,,,,,images/exp1a_trial_106_colour3_distractors1_l.png,l,1,024,001,2021-04-23_19h11.24.605,searchDisc4,2020.2.10,Win32,60,,,,space,0.20121,1,1,1.46766,,0,281,281,106,1,1a,106,3,1,
,,,,,,,,,,,,,,,,,,,,,,,,,images/exp2b_trial_40_colour1_distractors9_r.png,r,2,024,001,2021-04-23_19h11.24.605,searchDisc4,2020.2.10,Win32,60,,,,space,0.2011,2,1,0.987285,,0,282,282,382,1,2b,40,1,9,
,,,,,,,,,,,,,,,,,,,,,,,,,images/exp1b_trial_31_colour3_distractors4_l.png,l,1,024,001,2021-04-23_19h11.24.605,searchDisc4,2020.2.10,Win32,60,,,,space,0.22878,1,1,1.35937,,0,283,283,145,1,1b,31,3,4,
,,,,,,,,,,,,,,,,,,,,,,,,,images/exp2a_trial_6_colour2_distractors1_r.png,r,2,024,001,2021-04-23_19h11.24.605,searchDisc4,2020.2.10,Win32,60,,,,space,0.224235,2,1,0.9041,,0,284,284,234,1,2a,6,2,1,
,,,,,,,,,,,,,,,,,,,,,,,,,images/exp2c_trial_57_colour1_distractors4_l.png,l,1,024,001,2021-04-23_19h11.24.605,searchDisc4,2020.2.10,Win32,60,,,,space,0.267555,1,1,1.95905,,0,285,285,513,1,2c,57,1,4,
,,,,,,,,,,,,,,,,,,,,,,,,,images/exp2a_trial_51_colour3_distractors4_r.png,r,2,024,001,2021-04-23_19h11.24.605,searchDisc4,2020.2.10,Win32,60,,,,space,0.25034,2,1,0.95899,,0,286,286,279,1,2a,51,3,4,
,,,,,,,,,,,,,,,,,,,,,,,,,images/exp2c_trial_88_colour3_distractors1_r.png,r,2,024,001,2021-04-23_19h11.24.605,searchDisc4,2020.2.10,Win32,60,,,,space,0.187235,2,1,1.079635,,0,287,287,544,1,2c,88,3,1,
,,,,,,,,,,,,,,,,,,,,,,,,,images/exp2a_trial_102_colour2_distractors9_l.png,l,1,024,001,2021-04-23_19h11.24.605,searchDisc4,2020.2.10,Win32,60,,,,space,0.180105,1,1,0.94139,,0,288,288,330,1,2a,102,2,9,
,,,,,,,,,,,,,,,,,,,,,,,,,images/exp2c_trial_56_colour1_distractors1_l.png,l,1,024,001,2021-04-23_19h11.24.605,searchDisc4,2020.2.10,Win32,60,,,,space,0.317455,1,1,0.826675,,0,289,289,512,1,2c,56,1,1,
,,,,,,,,,,,,,,,,,,,,,,,,,images/exp2c_trial_40_colour1_distractors9_r.png,r,2,024,001,2021-04-23_19h11.24.605,searchDisc4,2020.2.10,Win32,60,,,,space,0.175105,2,1,0.79146,,0,290,290,496,1,2c,40,1,9,
,,,,,,,,,,,,,,,,,,,,,,,,,images/exp1a_trial_112_colour0_distractors0_r.png,r,2,024,001,2021-04-23_19h11.24.605,searchDisc4,2020.2.10,Win32,60,,,,space,0.227375,2,1,1.01567,,0,291,291,112,1,1a,112,0,0,
,,,,,,,,,,,,,,,,,,,,,,,,,images/exp1b_trial_62_colour2_distractors1_l.png,l,1,024,001,2021-04-23_19h11.24.605,searchDisc4,2020.2.10,Win32,60,,,,space,0.20163,1,1,1.150895,,0,292,292,176,1,1b,62,2,1,
,,,,,,,,,,,,,,,,,,,,,,,,,images/exp1b_trial_87_colour2_distractors43_r.png,r,2,024,001,2021-04-23_19h11.24.605,searchDisc4,2020.2.10,Win32,60,,,,space,0.20129,2,1,3.5364,,0,293,293,201,1,1b,87,2,43,
,,,,,,,,,,,,,,,,,,,,,,,,,images/exp1a_trial_48_colour2_distractors31_r.png,r,2,024,001,2021-04-23_19h11.24.605,searchDisc4,2020.2.10,Win32,60,,,,space,0.217255,2,1,1.086755,,0,294,294,48,1,1a,48,2,31,
,,,,,,,,,,,,,,,,,,,,,,,,,images/exp2a_trial_16_colour3_distractors31_r.png,r,2,024,001,2021-04-23_19h11.24.605,searchDisc4,2020.2.10,Win32,60,,,,space,0.379835,2,1,1.458805,,0,295,295,244,1,2a,16,3,31,
,,,,,,,,,,,,,,,,,,,,,,,,,images/exp2b_trial_72_colour3_distractors31_l.png,l,1,024,001,2021-04-23_19h11.24.605,searchDisc4,2020.2.10,Win32,60,,,,space,0.217015,1,1,1.151385,,0,296,296,414,1,2b,72,3,31,
,,,,,,,,,,,,,,,,,,,,,,,,,images/exp1a_trial_101_colour2_distractors4_l.png,l,1,024,001,2021-04-23_19h11.24.605,searchDisc4,2020.2.10,Win32,60,,,,space,0.20961,1,1,0.90797,,0,297,297,101,1,1a,101,2,4,
,,,,,,,,,,,,,,,,,,,,,,,,,images/exp1a_trial_63_colour2_distractors4_l.png,l,1,024,001,2021-04-23_19h11.24.605,searchDisc4,2020.2.10,Win32,60,,,,space,0.19522,1,1,1.249365,,0,298,298,63,1,1a,63,2,4,
,,,,,,,,,,,,,,,,,,,,,,,,,images/exp2a_trial_92_colour3_distractors31_r.png,r,2,024,001,2021-04-23_19h11.24.605,searchDisc4,2020.2.10,Win32,60,,,,space,0.161795,2,1,0.95725,space,0,299,299,320,1,2a,92,3,31,0.205875
,,,,,,,,,,,,,,,,,,,,,,,,,images/exp2b_trial_86_colour2_distractors31_r.png,r,2,024,001,2021-04-23_19h11.24.605,searchDisc4,2020.2.10,Win32,60,,,,space,4.814035,2,1,1.226155,,0,300,300,428,1,2b,86,2,31,
,,,,,,,,,,,,,,,,,,,,,,,,,images/exp1a_trial_108_colour3_distractors9_l.png,l,1,024,001,2021-04-23_19h11.24.605,searchDisc4,2020.2.10,Win32,60,,,,space,0.359435,1,1,0.871395,,0,301,301,108,1,1a,108,3,9,
,,,,,,,,,,,,,,,,,,,,,,,,,images/exp2a_trial_82_colour2_distractors1_r.png,r,2,024,001,2021-04-23_19h11.24.605,searchDisc4,2020.2.10,Win32,60,,,,space,0.397185,2,1,1.279905,,0,302,302,310,1,2a,82,2,1,
,,,,,,,,,,,,,,,,,,,,,,,,,images/exp2a_trial_111_colour3_distractors43_l.png,l,1,024,001,2021-04-23_19h11.24.605,searchDisc4,2020.2.10,Win32,60,,,,space,0.34539,1,1,0.786385,,0,303,303,339,1,2a,111,3,43,
,,,,,,,,,,,,,,,,,,,,,,,,,images/exp2c_trial_80_colour1_distractors31_r.png,r,2,024,001,2021-04-23_19h11.24.605,searchDisc4,2020.2.10,Win32,60,,,,space,0.31997,2,1,0.80098,,0,304,304,536,1,2c,80,1,31,
,,,,,,,,,,,,,,,,,,,,,,,,,images/exp1a_trial_99_colour1_distractors43_l.png,l,1,024,001,2021-04-23_19h11.24.605,searchDisc4,2020.2.10,Win32,60,,,,space,0.294975,1,1,0.795645,,0,305,305,99,1,1a,99,1,43,
,,,,,,,,,,,,,,,,,,,,,,,,,images/exp1a_trial_17_colour3_distractors43_r.png,r,2,024,001,2021-04-23_19h11.24.605,searchDisc4,2020.2.10,Win32,60,,,,space,0.309515,2,1,0.77567,,0,306,306,17,1,1a,17,3,43,
,,,,,,,,,,,,,,,,,,,,,,,,,images/exp2b_trial_66_colour2_distractors31_l.png,l,1,024,001,2021-04-23_19h11.24.605,searchDisc4,2020.2.10,Win32,60,,,,space,0.247015,1,1,1.025365,,0,307,307,408,1,2b,66,2,31,
,,,,,,,,,,,,,,,,,,,,,,,,,images/exp2a_trial_0_colour1_distractors1_r.png,r,2,024,001,2021-04-23_19h11.24.605,searchDisc4,2020.2.10,Win32,60,,,,space,0.642645,2,1,0.90944,,0,308,308,228,1,2a,0,1,1,
,,,,,,,,,,,,,,,,,,,,,,,,,images/exp1a_trial_51_colour3_distractors4_r.png,r,2,024,001,2021-04-23_19h11.24.605,searchDisc4,2020.2.10,Win32,60,,,,space,0.24253,2,1,0.847175,,0,309,309,51,1,1a,51,3,4,
,,,,,,,,,,,,,,,,,,,,,,,,,images/exp2c_trial_53_colour3_distractors19_r.png,r,2,024,001,2021-04-23_19h11.24.605,searchDisc4,2020.2.10,Win32,60,,,,space,0.201905,2,1,0.87071,,0,310,310,509,1,2c,53,3,19,
,,,,,,,,,,,,,,,,,,,,,,,,,images/exp1a_trial_36_colour0_distractors0_r.png,r,2,024,001,2021-04-23_19h11.24.605,searchDisc4,2020.2.10,Win32,60,,,,space,0.266985,2,1,0.63417,,0,311,311,36,1,1a,36,0,0,
,,,,,,,,,,,,,,,,,,,,,,,,,images/exp2a_trial_109_colour3_distractors19_l.png,l,1,024,001,2021-04-23_19h11.24.605,searchDisc4,2020.2.10,Win32,60,,,,space,0.177585,1,1,0.651055,,0,312,312,337,1,2a,109,3,19,
,,,,,,,,,,,,,,,,,,,,,,,,,images/exp2b_trial_34_colour3_distractors31_l.png,l,1,024,001,2021-04-23_19h11.24.605,searchDisc4,2020.2.10,Win32,60,,,,space,0.22448,1,1,1.02486,,0,313,313,376,1,2b,34,3,31,
,,,,,,,,,,,,,,,,,,,,,,,,,images/exp2b_trial_15_colour3_distractors19_r.png,r,2,024,001,2021-04-23_19h11.24.605,searchDisc4,2020.2.10,Win32,60,,,,space,0.177485,2,1,1.10766,,0,314,314,357,1,2b,15,3,19,
,,,,,,,,,,,,,,,,,,,,,,,,,images/exp2c_trial_18_colour1_distractors1_l.png,l,1,024,001,2021-04-23_19h11.24.605,searchDisc4,2020.2.10,Win32,60,,,,space,0.146775,1,1,0.74289,,0,315,315,474,1,2c,18,1,1,
,,,,,,,,,,,,,,,,,,,,,,,,,images/exp2b_trial_89_colour3_distractors4_r.png,r,2,024,001,2021-04-23_19h11.24.605,searchDisc4,2020.2.10,Win32,60,,,,space,0.31309,2,1,0.70968,,0,316,316,431,1,2b,89,3,4,
,,,,,,,,,,,,,,,,,,,,,,,,,images/exp2b_trial_5_colour1_distractors43_r.png,r,2,024,001,2021-04-23_19h11.24.605,searchDisc4,2020.2.10,Win32,60,,,,space,0.21827,2,1,0.89804,,0,317,317,347,1,2b,5,1,43,
,,,,,,,,,,,,,,,,,,,,,,,,,images/exp2c_trial_112_colour0_distractors0_r.png,r,2,024,001,2021-04-23_19h11.24.605,searchDisc4,2020.2.10,Win32,60,,,,space,0.256,2,1,0.799205,,0,318,318,568,1,2c,112,0,0,
,,,,,,,,,,,,,,,,,,,,,,,,,images/exp1a_trial_14_colour3_distractors9_r.png,r,2,024,001,2021-04-23_19h11.24.605,searchDisc4,2020.2.10,Win32,60,,,,space,0.192875,2,1,0.86194,,0,319,319,14,1,1a,14,3,9,
,,,,,,,,,,,,,,,,,,,,,,,,,images/exp2a_trial_95_colour1_distractors4_l.png,l,1,024,001,2021-04-23_19h11.24.605,searchDisc4,2020.2.10,Win32,60,,,,space,0.186925,1,1,0.882695,,0,320,320,323,1,2a,95,1,4,
,,,,,,,,,,,,,,,,,,,,,,,,,images/exp2b_trial_19_colour1_distractors4_l.png,l,1,024,001,2021-04-23_19h11.24.605,searchDisc4,2020.2.10,Win32,60,,,,space,0.226115,1,1,0.741185,,0,321,321,361,1,2b,19,1,4,
,,,,,,,,,,,,,,,,,,,,,,,,,images/exp2a_trial_79_colour1_distractors19_r.png,r,2,024,001,2021-04-23_19h11.24.605,searchDisc4,2020.2.10,Win32,60,,,,space,0.16827,2,1,0.764505,,0,322,322,307,1,2a,79,1,19,
,,,,,,,,,,,,,,,,,,,,,,,,,images/exp2b_trial_61_colour1_distractors43_l.png,l,1,024,001,2021-04-23_19h11.24.605,searchDisc4,2020.2.10,Win32,60,,,,space,0.20181,1,1,1.008435,,0,323,323,403,1,2b,61,1,43,
,,,,,,,,,,,,,,,,,,,,,,,,,images/exp1a_trial_67_colour2_distractors43_l.png,l,1,024,001,2021-04-23_19h11.24.605,searchDisc4,2020.2.10,Win32,60,,,,space,0.213695,1,1,0.906795,,0,324,324,67,1,1a,67,2,43,
,,,,,,,,,,,,,,,,,,,,,,,,,images/exp2a_trial_13_colour3_distractors4_r.png,r,2,024,001,2021-04-23_19h11.24.605,searchDisc4,2020.2.10,Win32,60,,,,space,0.40911,2,1,0.79249,,0,325,325,241,1,2a,13,3,4,
,,,,,,,,,,,,,,,,,,,,,,,,,images/exp2a_trial_18_colour1_distractors1_l.png,l,1,024,001,2021-04-23_19h11.24.605,searchDisc4,2020.2.10,Win32,60,,,,space,0.376165,1,1,0.900615,,0,326,326,246,1,2a,18,1,1,
,,,,,,,,,,,,,,,,,,,,,,,,,images/exp1a_trial_29_colour2_distractors43_l.png,l,1,024,001,2021-04-23_19h11.24.605,searchDisc4,2020.2.10,Win32,60,,,,space,0.20285,1,1,1.08824,,0,327,327,29,1,1a,29,2,43,
,,,,,,,,,,,,,,,,,,,,,,,,,images/exp1a_trial_15_colour3_distractors19_r.png,r,2,024,001,2021-04-23_19h11.24.605,searchDisc4,2020.2.10,Win32,60,,,,space,0.196435,2,1,0.77038,,0,328,328,15,1,1a,15,3,19,
,,,,,,,,,,,,,,,,,,,,,,,,,images/exp1a_trial_57_colour1_distractors4_l.png,l,1,024,001,2021-04-23_19h11.24.605,searchDisc4,2020.2.10,Win32,60,,,,space,0.185155,1,1,1.09608,,0,329,329,57,1,1a,57,1,4,
,,,,,,,,,,,,,,,,,,,,,,,,,images/exp1b_trial_106_colour3_distractors1_l.png,l,1,024,001,2021-04-23_19h11.24.605,searchDisc4,2020.2.10,Win32,60,,,,space,0.15916,1,1,2.475495,,0,330,330,220,1,1b,106,3,1,
,,,,,,,,,,,,,,,,,,,,,,,,,images/exp2b_trial_90_colour3_distractors9_r.png,r,2,024,001,2021-04-23_19h11.24.605,searchDisc4,2020.2.10,Win32,60,,,,space,0.372965,2,1,3.042515,,0,331,331,432,1,2b,90,3,9,
,,,,,,,,,,,,,,,,,,,,,,,,,images/exp2c_trial_36_colour0_distractors0_r.png,r,2,024,001,2021-04-23_19h11.24.605,searchDisc4,2020.2.10,Win32,60,,,,space,1.30177,2,1,2.35816,,0,332,332,492,1,2c,36,0,0,
,,,,,,,,,,,,,,,,,,,,,,,,,images/exp2a_trial_35_colour3_distractors43_l.png,l,1,024,001,2021-04-23_19h11.24.605,searchDisc4,2020.2.10,Win32,60,,,,space,0.88483,1,1,0.782165,,0,333,333,263,1,2a,35,3,43,
,,,,,,,,,,,,,,,,,,,,,,,,,images/exp2b_trial_62_colour2_distractors1_l.png,l,1,024,001,2021-04-23_19h11.24.605,searchDisc4,2020.2.10,Win32,60,,,,space,0.82367,1,1,1.060075,,0,334,334,404,1,2b,62,2,1,
,,,,,,,,,,,,,,,,,,,,,,,,,images/exp2a_trial_44_colour2_distractors1_r.png,r,2,024,001,2021-04-23_19h11.24.605,searchDisc4,2020.2.10,Win32,60,,,,space,0.450905,2,1,0.877335,,0,335,335,272,1,2a,44,2,1,
,,,,,,,,,,,,,,,,,,,,,,,,,images/exp2c_trial_48_colour2_distractors31_r.png,r,2,024,001,2021-04-23_19h11.24.605,searchDisc4,2020.2.10,Win32,60,,,,space,0.58507,2,1,1.12496,,0,336,336,504,1,2c,48,2,31,
,,,,,,,,,,,,,,,,,,,,,,,,,images/exp2b_trial_107_colour3_distractors4_l.png,l,1,024,001,2021-04-23_19h11.24.605,searchDisc4,2020.2.10,Win32,60,,,,space,0.29424,1,1,0.882085,,0,337,337,449,1,2b,107,3,4,
,,,,,,,,,,,,,,,,,,,,,,,,,images/exp1b_trial_85_colour2_distractors19_r.png,r,2,024,001,2021-04-23_19h11.24.605,searchDisc4,2020.2.10,Win32,60,,,,space,0.334815,2,1,1.133505,,0,338,338,199,1,1b,85,2,19,
,,,,,,,,,,,,,,,,,,,,,,,,,images/exp2c_trial_110_colour3_distractors31_l.png,l,1,024,001,2021-04-23_19h11.24.605,searchDisc4,2020.2.10,Win32,60,,,,space,0.22527,1,1,0.97535,,0,339,339,566,1,2c,110,3,31,
,,,,,,,,,,,,,,,,,,,,,,,,,images/exp1b_trial_27_colour2_distractors19_l.png,l,1,024,001,2021-04-23_19h11.24.605,searchDisc4,2020.2.10,Win32,60,,,,space,0.23231,1,1,2.568275,,0,340,340,141,1,1b,27,2,19,
,,,,,,,,,,,,,,,,,,,,,,,,,images/exp2b_trial_26_colour2_distractors9_l.png,l,1,024,001,2021-04-23_19h11.24.605,searchDisc4,2020.2.10,Win32,60,,,,space,0.278035,1,1,0.952535,,0,341,341,368,1,2b,26,2,9,
,,,,,,,,,,,,,,,,,,,,,,,,,images/exp2b_trial_106_colour3_distractors1_l.png,l,1,024,001,2021-04-23_19h11.24.605,searchDisc4,2020.2.10,Win32,60,,,,space,0.18428,1,1,0.825195,,0,342,342,448,1,2b,106,3,1,
,,,,,,,,,,,,,,,,,,,,,,,,,images/exp1b_trial_17_colour3_distractors43_r.png,r,2,024,001,2021-04-23_19h11.24.605,searchDisc4,2020.2.10,Win32,60,,,,space,0.242945,2,1,4.602675,,0,343,343,131,1,1b,17,3,43,
,,,,,,,,,,,,,,,,,,,,,,,,,images/exp2c_trial_29_colour2_distractors43_l.png,l,1,024,001,2021-04-23_19h11.24.605,searchDisc4,2020.2.10,Win32,60,,,,space,0.279375,1,1,0.92554,,0,344,344,485,1,2c,29,2,43,
,,,,,,,,,,,,,,,,,,,,,,,,,images/exp1b_trial_24_colour2_distractors1_l.png,l,1,024,001,2021-04-23_19h11.24.605,searchDisc4,2020.2.10,Win32,60,,,,space,0.251335,1,1,0.89207,,0,345,345,138,1,1b,24,2,1,
,,,,,,,,,,,,,,,,,,,,,,,,,images/exp2c_trial_25_colour2_distractors4_l.png,l,1,024,001,2021-04-23_19h11.24.605,searchDisc4,2020.2.10,Win32,60,,,,space,0.62263,1,1,0.726335,,0,346,346,481,1,2c,25,2,4,
,,,,,,,,,,,,,,,,,,,,,,,,,images/exp1a_trial_107_colour3_distractors4_l.png,l,1,024,001,2021-04-23_19h11.24.605,searchDisc4,2020.2.10,Win32,60,,,,space,0.219785,1,1,1.1103,,0,347,347,107,1,1a,107,3,4,
,,,,,,,,,,,,,,,,,,,,,,,,,images/exp2c_trial_5_colour1_distractors43_r.png,r,2,024,001,2021-04-23_19h11.24.605,searchDisc4,2020.2.10,Win32,60,,,,space,0.640165,2,1,1.307235,,0,348,348,461,1,2c,5,1,43,
,,,,,,,,,,,,,,,,,,,,,,,,,images/exp2c_trial_45_colour2_distractors4_r.png,r,2,024,001,2021-04-23_19h11.24.605,searchDisc4,2020.2.10,Win32,60,,,,space,1.20135,2,1,1.059085,,0,349,349,501,1,2c,45,2,4,
,,,,,,,,,,,,,,,,,,,,,,,,,images/exp1b_trial_43_colour1_distractors43_r.png,r,2,024,001,2021-04-23_19h11.24.605,searchDisc4,2020.2.10,Win32,60,,,,space,0.459265,2,1,2.37548,,0,350,350,157,1,1b,43,1,43,
,,,,,,,,,,,,,,,,,,,,,,,,,images/exp2c_trial_13_colour3_distractors4_r.png,r,2,024,001,2021-04-23_19h11.24.605,searchDisc4,2020.2.10,Win32,60,,,,space,0.515525,2,1,1.066245,,0,351,351,469,1,2c,13,3,4,
,,,,,,,,,,,,,,,,,,,,,,,,,images/exp1a_trial_2_colour1_distractors9_r.png,r,2,024,001,2021-04-23_19h11.24.605,searchDisc4,2020.2.10,Win32,60,,,,space,0.550765,2,1,0.851175,,0,352,352,2,1,1a,2,1,9,
,,,,,,,,,,,,,,,,,,,,,,,,,images/exp1a_trial_42_colour1_distractors31_r.png,r,2,024,001,2021-04-23_19h11.24.605,searchDisc4,2020.2.10,Win32,60,,,,space,0.43059,2,1,0.883875,,0,353,353,42,1,1a,42,1,31,
,,,,,,,,,,,,,,,,,,,,,,,,,images/exp2a_trial_59_colour1_distractors19_l.png,l,1,024,001,2021-04-23_19h11.24.605,searchDisc4,2020.2.10,Win32,60,,,,space,0.1916,1,1,0.948435,,0,354,354,287,1,2a,59,1,19,
,,,,,,,,,,,,,,,,,,,,,,,,,images/exp1b_trial_39_colour1_distractors4_r.png,r,2,024,001,2021-04-23_19h11.24.605,searchDisc4,2020.2.10,Win32,60,,,,space,0.63209,2,1,0.891305,,0,355,355,153,1,1b,39,1,4,
,,,,,,,,,,,,,,,,,,,,,,,,,images/exp2b_trial_59_colour1_distractors19_l.png,l,1,024,001,2021-04-23_19h11.24.605,searchDisc4,2020.2.10,Win32,60,,,,space,0.68509,1,1,1.03001,,0,356,356,401,1,2b,59,1,19,
,,,,,,,,,,,,,,,,,,,,,,,,,images/exp2b_trial_31_colour3_distractors4_l.png,l,1,024,001,2021-04-23_19h11.24.605,searchDisc4,2020.2.10,Win32,60,,,,space,0.35833,1,1,1.14638,,0,357,357,373,1,2b,31,3,4,
,,,,,,,,,,,,,,,,,,,,,,,,,images/exp1a_trial_88_colour3_distractors1_r.png,r,2,024,001,2021-04-23_19h11.24.605,searchDisc4,2020.2.10,Win32,60,,,,space,0.48493,2,1,0.95801,,0,358,358,88,1,1a,88,3,1,
,,,,,,,,,,,,,,,,,,,,,,,,,images/exp1b_trial_7_colour2_distractors4_r.png,r,2,024,001,2021-04-23_19h11.24.605,searchDisc4,2020.2.10,Win32,60,,,,space,0.73397,2,1,1.74493,space,0,359,359,121,1,1b,7,2,4,0.26749
,,,,,,,,,,,,,,,,,,,,,,,,,images/exp2a_trial_52_colour3_distractors9_r.png,r,2,024,001,2021-04-23_19h11.24.605,searchDisc4,2020.2.10,Win32,60,,,,space,6.067965,2,1,2.791635,,0,360,360,280,1,2a,52,3,9,
,,,,,,,,,,,,,,,,,,,,,,,,,images/exp2c_trial_39_colour1_distractors4_r.png,r,2,024,001,2021-04-23_19h11.24.605,searchDisc4,2020.2.10,Win32,60,,,,space,1.281245,2,1,0.86443,,0,361,361,495,1,2c,39,1,4,
,,,,,,,,,,,,,,,,,,,,,,,,,images/exp2a_trial_14_colour3_distractors9_r.png,r,2,024,001,2021-04-23_19h11.24.605,searchDisc4,2020.2.10,Win32,60,,,,space,0.668545,2,1,0.872965,,0,362,362,242,1,2a,14,3,9,
,,,,,,,,,,,,,,,,,,,,,,,,,images/exp2b_trial_1_colour1_distractors4_r.png,r,2,024,001,2021-04-23_19h11.24.605,searchDisc4,2020.2.10,Win32,60,,,,space,0.76429,2,1,1.0121,,0,363,363,343,1,2b,1,1,4,
,,,,,,,,,,,,,,,,,,,,,,,,,images/exp1a_trial_79_colour1_distractors19_r.png,r,2,024,001,2021-04-23_19h11.24.605,searchDisc4,2020.2.10,Win32,60,,,,space,0.553735,2,1,0.91967,,0,364,364,79,1,1a,79,1,19,
,,,,,,,,,,,,,,,,,,,,,,,,,images/exp2b_trial_29_colour2_distractors43_l.png,l,1,024,001,2021-04-23_19h11.24.605,searchDisc4,2020.2.10,Win32,60,,,,space,0.75994,1,1,1.036355,,0,365,365,371,1,2b,29,2,43,
,,,,,,,,,,,,,,,,,,,,,,,,,images/exp1a_trial_37_colour0_distractors0_l.png,l,1,024,001,2021-04-23_19h11.24.605,searchDisc4,2020.2.10,Win32,60,,,,space,0.667885,1,1,0.93003,,0,366,366,37,1,1a,37,0,0,
,,,,,,,,,,,,,,,,,,,,,,,,,images/exp1a_trial_60_colour1_distractors31_l.png,l,1,024,001,2021-04-23_19h11.24.605,searchDisc4,2020.2.10,Win32,60,,,,space,0.4277,1,1,0.733825,,0,367,367,60,1,1a,60,1,31,
,,,,,,,,,,,,,,,,,,,,,,,,,images/exp1b_trial_4_colour1_distractors31_r.png,r,2,024,001,2021-04-23_19h11.24.605,searchDisc4,2020.2.10,Win32,60,,,,space,0.44323,2,1,0.863015,,0,368,368,118,1,1b,4,1,31,
,,,,,,,,,,,,,,,,,,,,,,,,,images/exp2a_trial_71_colour3_distractors19_l.png,l,1,024,001,2021-04-23_19h11.24.605,searchDisc4,2020.2.10,Win32,60,,,,space,0.322395,1,1,0.78402,,0,369,369,299,1,2a,71,3,19,
,,,,,,,,,,,,,,,,,,,,,,,,,images/exp1a_trial_65_colour2_distractors19_l.png,l,1,024,001,2021-04-23_19h11.24.605,searchDisc4,2020.2.10,Win32,60,,,,space,0.360405,1,1,1.037705,,0,370,370,65,1,1a,65,2,19,
,,,,,,,,,,,,,,,,,,,,,,,,,images/exp1a_trial_38_colour1_distractors1_r.png,r,2,024,001,2021-04-23_19h11.24.605,searchDisc4,2020.2.10,Win32,60,,,,space,0.363425,2,1,0.83691,,0,371,371,38,1,1a,38,1,1,
,,,,,,,,,,,,,,,,,,,,,,,,,images/exp1b_trial_11_colour2_distractors43_r.png,r,2,024,001,2021-04-23_19h11.24.605,searchDisc4,2020.2.10,Win32,60,,,,space,0.28654,2,1,3.19076,,0,372,372,125,1,1b,11,2,43,
,,,,,,,,,,,,,,,,,,,,,,,,,images/exp2c_trial_33_colour3_distractors19_l.png,l,1,024,001,2021-04-23_19h11.24.605,searchDisc4,2020.2.10,Win32,60,,,,space,0.43151,1,1,1.089005,,0,373,373,489,1,2c,33,3,19,
,,,,,,,,,,,,,,,,,,,,,,,,,images/exp1a_trial_71_colour3_distractors19_l.png,l,1,024,001,2021-04-23_19h11.24.605,searchDisc4,2020.2.10,Win32,60,,,,space,0.266355,1,1,0.95972,,0,374,374,71,1,1a,71,3,19,
,,,,,,,,,,,,,,,,,,,,,,,,,images/exp1a_trial_0_colour1_distractors1_r.png,r,2,024,001,2021-04-23_19h11.24.605,searchDisc4,2020.2.10,Win32,60,,,,space,0.21408,1,0,0.70913,,0,375,375,0,1,1a,0,1,1,
,,,,,,,,,,,,,,,,,,,,,,,,,images/exp2b_trial_16_colour3_distractors31_r.png,r,2,024,001,2021-04-23_19h11.24.605,searchDisc4,2020.2.10,Win32,60,,,,space,1.00098,2,1,0.92397,,0,376,376,358,1,2b,16,3,31,
,,,,,,,,,,,,,,,,,,,,,,,,,images/exp2a_trial_89_colour3_distractors4_r.png,r,2,024,001,2021-04-23_19h11.24.605,searchDisc4,2020.2.10,Win32,60,,,,space,0.285195,2,1,0.941095,,0,377,377,317,1,2a,89,3,4,
,,,,,,,,,,,,,,,,,,,,,,,,,images/exp2a_trial_90_colour3_distractors9_r.png,r,2,024,001,2021-04-23_19h11.24.605,searchDisc4,2020.2.10,Win32,60,,,,space,0.22524,2,1,0.8146,,0,378,378,318,1,2a,90,3,9,
,,,,,,,,,,,,,,,,,,,,,,,,,images/exp2a_trial_81_colour1_distractors43_r.png,r,2,024,001,2021-04-23_19h11.24.605,searchDisc4,2020.2.10,Win32,60,,,,space,0.283355,2,1,1.07565,,0,379,379,309,1,2a,81,1,43,
,,,,,,,,,,,,,,,,,,,,,,,,,images/exp2b_trial_84_colour2_distractors9_r.png,r,2,024,001,2021-04-23_19h11.24.605,searchDisc4,2020.2.10,Win32,60,,,,space,0.246965,2,1,0.72672,,0,380,380,426,1,2b,84,2,9,
,,,,,,,,,,,,,,,,,,,,,,,,,images/exp1a_trial_74_colour0_distractors0_r.png,r,2,024,001,2021-04-23_19h11.24.605,searchDisc4,2020.2.10,Win32,60,,,,space,0.22196,2,1,0.761795,,0,381,381,74,1,1a,74,0,0,
,,,,,,,,,,,,,,,,,,,,,,,,,images/exp1a_trial_52_colour3_distractors9_r.png,r,2,024,001,2021-04-23_19h11.24.605,searchDisc4,2020.2.10,Win32,60,,,,space,0.250755,2,1,1.140535,,0,382,382,52,1,1a,52,3,9,
,,,,,,,,,,,,,,,,,,,,,,,,,images/exp2c_trial_91_colour3_distractors19_r.png,r,2,024,001,2021-04-23_19h11.24.605,searchDisc4,2020.2.10,Win32,60,,,,space,0.255575,2,1,0.773105,,0,383,383,547,1,2c,91,3,19,
,,,,,,,,,,,,,,,,,,,,,,,,,images/exp1b_trial_75_colour0_distractors0_l.png,l,1,024,001,2021-04-23_19h11.24.605,searchDisc4,2020.2.10,Win32,60,,,,space,0.24755,1,1,0.83884,,0,384,384,189,1,1b,75,0,0,
,,,,,,,,,,,,,,,,,,,,,,,,,images/exp1a_trial_93_colour3_distractors43_r.png,r,2,024,001,2021-04-23_19h11.24.605,searchDisc4,2020.2.10,Win32,60,,,,space,0.2512,2,1,1.007285,,0,385,385,93,1,1a,93,3,43,
,,,,,,,,,,,,,,,,,,,,,,,,,images/exp2b_trial_2_colour1_distractors9_r.png,r,2,024,001,2021-04-23_19h11.24.605,searchDisc4,2020.2.10,Win32,60,,,,space,0.231325,2,1,0.90757,,0,386,386,344,1,2b,2,1,9,
,,,,,,,,,,,,,,,,,,,,,,,,,images/exp2c_trial_99_colour1_distractors43_l.png,l,1,024,001,2021-04-23_19h11.24.605,searchDisc4,2020.2.10,Win32,60,,,,space,0.20149,1,1,0.784915,,0,387,387,555,1,2c,99,1,43,
,,,,,,,,,,,,,,,,,,,,,,,,,images/exp2a_trial_93_colour3_distractors43_r.png,r,2,024,001,2021-04-23_19h11.24.605,searchDisc4,2020.2.10,Win32,60,,,,space,0.211475,2,1,0.814065,,0,388,388,321,1,2a,93,3,43,
,,,,,,,,,,,,,,,,,,,,,,,,,images/exp1a_trial_104_colour2_distractors31_l.png,l,1,024,001,2021-04-23_19h11.24.605,searchDisc4,2020.2.10,Win32,60,,,,space,0.218595,1,1,0.781695,,0,389,389,104,1,1a,104,2,31,
,,,,,,,,,,,,,,,,,,,,,,,,,images/exp1b_trial_104_colour2_distractors31_l.png,l,1,024,001,2021-04-23_19h11.24.605,searchDisc4,2020.2.10,Win32,60,,,,space,0.2578,1,1,1.74003,,0,390,390,218,1,1b,104,2,31,
,,,,,,,,,,,,,,,,,,,,,,,,,images/exp2a_trial_55_colour3_distractors43_r.png,r,2,024,001,2021-04-23_19h11.24.605,searchDisc4,2020.2.10,Win32,60,,,,space,0.271425,2,1,1.223145,,0,391,391,283,1,2a,55,3,43,
,,,,,,,,,,,,,,,,,,,,,,,,,images/exp2c_trial_70_colour3_distractors9_l.png,l,1,024,001,2021-04-23_19h11.24.605,searchDisc4,2020.2.10,Win32,60,,,,space,0.43976,1,1,1.830145,,0,392,392,526,1,2c,70,3,9,
,,,,,,,,,,,,,,,,,,,,,,,,,images/exp2c_trial_12_colour3_distractors1_r.png,r,2,024,001,2021-04-23_19h11.24.605,searchDisc4,2020.2.10,Win32,60,,,,space,0.904785,2,1,1.416235,,0,393,393,468,1,2c,12,3,1,
,,,,,,,,,,,,,,,,,,,,,,,,,images/exp1a_trial_1_colour1_distractors4_r.png,r,2,024,001,2021-04-23_19h11.24.605,searchDisc4,2020.2.10,Win32,60,,,,space,2.093735,2,1,1.05831,,0,394,394,1,1,1a,1,1,4,
,,,,,,,,,,,,,,,,,,,,,,,,,images/exp2c_trial_63_colour2_distractors4_l.png,l,1,024,001,2021-04-23_19h11.24.605,searchDisc4,2020.2.10,Win32,60,,,,space,2.42634,1,1,0.99325,,0,395,395,519,1,2c,63,2,4,
,,,,,,,,,,,,,,,,,,,,,,,,,images/exp1b_trial_109_colour3_distractors19_l.png,l,1,024,001,2021-04-23_19h11.24.605,searchDisc4,2020.2.10,Win32,60,,,,space,0.983335,1,1,3.10968,,0,396,396,223,1,1b,109,3,19,
,,,,,,,,,,,,,,,,,,,,,,,,,images/exp2a_trial_28_colour2_distractors31_l.png,l,1,024,001,2021-04-23_19h11.24.605,searchDisc4,2020.2.10,Win32,60,,,,space,0.579805,1,1,0.867235,,0,397,397,256,1,2a,28,2,31,
,,,,,,,,,,,,,,,,,,,,,,,,,images/exp1b_trial_51_colour3_distractors4_r.png,r,2,024,001,2021-04-23_19h11.24.605,searchDisc4,2020.2.10,Win32,60,,,,space,1.15312,2,1,0.9176,,0,398,398,165,1,1b,51,3,4,
,,,,,,,,,,,,,,,,,,,,,,,,,images/exp1a_trial_80_colour1_distractors31_r.png,r,2,024,001,2021-04-23_19h11.24.605,searchDisc4,2020.2.10,Win32,60,,,,space,0.97185,2,1,1.336665,,0,399,399,80,1,1a,80,1,31,
,,,,,,,,,,,,,,,,,,,,,,,,,images/exp2b_trial_22_colour1_distractors31_l.png,l,1,024,001,2021-04-23_19h11.24.605,searchDisc4,2020.2.10,Win32,60,,,,space,0.730725,1,1,0.97056,,0,400,400,364,1,2b,22,1,31,
,,,,,,,,,,,,,,,,,,,,,,,,,images/exp2c_trial_79_colour1_distractors19_r.png,r,2,024,001,2021-04-23_19h11.24.605,searchDisc4,2020.2.10,Win32,60,,,,space,0.897545,2,1,1.20013,,0,401,401,535,1,2c,79,1,19,
,,,,,,,,,,,,,,,,,,,,,,,,,images/exp1a_trial_95_colour1_distractors4_l.png,l,1,024,001,2021-04-23_19h11.24.605,searchDisc4,2020.2.10,Win32,60,,,,space,0.883865,1,1,0.881085,,0,402,402,95,1,1a,95,1,4,
,,,,,,,,,,,,,,,,,,,,,,,,,images/exp1a_trial_50_colour3_distractors1_r.png,r,2,024,001,2021-04-23_19h11.24.605,searchDisc4,2020.2.10,Win32,60,,,,space,0.957325,2,1,1.05325,,0,403,403,50,1,1a,50,3,1,
,,,,,,,,,,,,,,,,,,,,,,,,,images/exp1b_trial_59_colour1_distractors19_l.png,l,1,024,001,2021-04-23_19h11.24.605,searchDisc4,2020.2.10,Win32,60,,,,space,1.169265,1,1,1.359435,,0,404,404,173,1,1b,59,1,19,
,,,,,,,,,,,,,,,,,,,,,,,,,images/exp2a_trial_84_colour2_distractors9_r.png,r,2,024,001,2021-04-23_19h11.24.605,searchDisc4,2020.2.10,Win32,60,,,,space,0.58127,2,1,1.26663,,0,405,405,312,1,2a,84,2,9,
,,,,,,,,,,,,,,,,,,,,,,,,,images/exp1b_trial_76_colour1_distractors1_r.png,r,2,024,001,2021-04-23_19h11.24.605,searchDisc4,2020.2.10,Win32,60,,,,space,0.882,2,1,1.050945,,0,406,406,190,1,1b,76,1,1,
,,,,,,,,,,,,,,,,,,,,,,,,,images/exp1b_trial_83_colour2_distractors4_r.png,r,2,024,001,2021-04-23_19h11.24.605,searchDisc4,2020.2.10,Win32,60,,,,space,1.25608,2,1,0.99972,,0,407,407,197,1,1b,83,2,4,
,,,,,,,,,,,,,,,,,,,,,,,,,images/exp2c_trial_66_colour2_distractors31_l.png,l,1,024,001,2021-04-23_19h11.24.605,searchDisc4,2020.2.10,Win32,60,,,,space,1.39246,1,1,1.018735,,0,408,408,522,1,2c,66,2,31,
,,,,,,,,,,,,,,,,,,,,,,,,,images/exp1b_trial_48_colour2_distractors31_r.png,r,2,024,001,2021-04-23_19h11.24.605,searchDisc4,2020.2.10,Win32,60,,,,space,1.401435,2,1,0.88878,,0,409,409,162,1,1b,48,2,31,
,,,,,,,,,,,,,,,,,,,,,,,,,images/exp1b_trial_82_colour2_distractors1_r.png,r,2,024,001,2021-04-23_19h11.24.605,searchDisc4,2020.2.10,Win32,60,,,,space,0.90329,2,1,1.43445,,0,410,410,196,1,1b,82,2,1,
,,,,,,,,,,,,,,,,,,,,,,,,,images/exp1b_trial_112_colour0_distractors0_r.png,r,2,024,001,2021-04-23_19h11.24.605,searchDisc4,2020.2.10,Win32,60,,,,space,0.60168,2,1,0.910625,,0,411,411,226,1,1b,112,0,0,
,,,,,,,,,,,,,,,,,,,,,,,,,images/exp2b_trial_99_colour1_distractors43_l.png,l,1,024,001,2021-04-23_19h11.24.605,searchDisc4,2020.2.10,Win32,60,,,,space,0.662045,1,1,0.937305,,0,412,412,441,1,2b,99,1,43,
,,,,,,,,,,,,,,,,,,,,,,,,,images/exp1b_trial_32_colour3_distractors9_l.png,l,1,024,001,2021-04-23_19h11.24.605,searchDisc4,2020.2.10,Win32,60,,,,space,0.638675,1,1,3.25706,,0,413,413,146,1,1b,32,3,9,
,,,,,,,,,,,,,,,,,,,,,,,,,images/exp2c_trial_75_colour0_distractors0_l.png,l,1,024,001,2021-04-23_19h11.24.605,searchDisc4,2020.2.10,Win32,60,,,,space,1.12729,1,1,0.935855,,0,414,414,531,1,2c,75,0,0,
,,,,,,,,,,,,,,,,,,,,,,,,,images/exp1b_trial_47_colour2_distractors19_r.png,r,2,024,001,2021-04-23_19h11.24.605,searchDisc4,2020.2.10,Win32,60,,,,space,0.6014,2,1,1.04196,,0,415,415,161,1,1b,47,2,19,
,,,,,,,,,,,,,,,,,,,,,,,,,images/exp2c_trial_22_colour1_distractors31_l.png,l,1,024,001,2021-04-23_19h11.24.605,searchDisc4,2020.2.10,Win32,60,,,,space,0.365605,1,1,0.907325,,0,416,416,478,1,2c,22,1,31,
,,,,,,,,,,,,,,,,,,,,,,,,,images/exp2a_trial_105_colour2_distractors43_l.png,l,1,024,001,2021-04-23_19h11.24.605,searchDisc4,2020.2.10,Win32,60,,,,space,0.329335,1,1,0.9849,,0,417,417,333,1,2a,105,2,43,
,,,,,,,,,,,,,,,,,,,,,,,,,images/exp2c_trial_95_colour1_distractors4_l.png,l,1,024,001,2021-04-23_19h11.24.605,searchDisc4,2020.2.10,Win32,60,,,,space,0.523125,1,1,0.82607,,0,418,418,551,1,2c,95,1,4,
,,,,,,,,,,,,,,,,,,,,,,,,,images/exp2c_trial_51_colour3_distractors4_r.png,r,2,024,001,2021-04-23_19h11.24.605,searchDisc4,2020.2.10,Win32,60,,,,space,0.945945,2,1,1.007505,space,0,419,419,507,1,2c,51,3,4,8.07896
,,,,,,,,,,,,,,,,,,,,,,,,,images/exp1a_trial_83_colour2_distractors4_r.png,r,2,024,001,2021-04-23_19h11.24.605,searchDisc4,2020.2.10,Win32,60,,,,space,6.853045,2,1,1.98405,,0,420,420,83,1,1a,83,2,4,
,,,,,,,,,,,,,,,,,,,,,,,,,images/exp1a_trial_55_colour3_distractors43_r.png,r,2,024,001,2021-04-23_19h11.24.605,searchDisc4,2020.2.10,Win32,60,,,,space,0.605725,2,1,0.83805,,0,421,421,55,1,1a,55,3,43,
,,,,,,,,,,,,,,,,,,,,,,,,,images/exp2c_trial_61_colour1_distractors43_l.png,l,1,024,001,2021-04-23_19h11.24.605,searchDisc4,2020.2.10,Win32,60,,,,space,0.376025,1,1,1.30839,,0,422,422,517,1,2c,61,1,43,
,,,,,,,,,,,,,,,,,,,,,,,,,images/exp1a_trial_58_colour1_distractors9_l.png,l,1,024,001,2021-04-23_19h11.24.605,searchDisc4,2020.2.10,Win32,60,,,,space,0.40633,1,1,1.096975,,0,423,423,58,1,1a,58,1,9,
,,,,,,,,,,,,,,,,,,,,,,,,,images/exp2a_trial_45_colour2_distractors4_r.png,r,2,024,001,2021-04-23_19h11.24.605,searchDisc4,2020.2.10,Win32,60,,,,space,0.384145,2,1,0.751305,,0,424,424,273,1,2a,45,2,4,
,,,,,,,,,,,,,,,,,,,,,,,,,images/exp1a_trial_94_colour1_distractors1_l.png,l,1,024,001,2021-04-23_19h11.24.605,searchDisc4,2020.2.10,Win32,60,,,,space,1.175975,1,1,1.149925,,0,425,425,94,1,1a,94,1,1,
,,,,,,,,,,,,,,,,,,,,,,,,,images/exp1b_trial_14_colour3_distractors9_r.png,r,2,024,001,2021-04-23_19h11.24.605,searchDisc4,2020.2.10,Win32,60,,,,space,0.468835,2,1,1.07298,,0,426,426,128,1,1b,14,3,9,
,,,,,,,,,,,,,,,,,,,,,,,,,images/exp1a_trial_21_colour1_distractors19_l.png,l,1,024,001,2021-04-23_19h11.24.605,searchDisc4,2020.2.10,Win32,60,,,,space,0.271145,1,1,0.7416,,0,427,427,21,1,1a,21,1,19,
,,,,,,,,,,,,,,,,,,,,,,,,,images/exp2a_trial_53_colour3_distractors19_r.png,r,2,024,001,2021-04-23_19h11.24.605,searchDisc4,2020.2.10,Win32,60,,,,space,0.25767,2,1,0.638645,,0,428,428,281,1,2a,53,3,19,
,,,,,,,,,,,,,,,,,,,,,,,,,images/exp2c_trial_111_colour3_distractors43_l.png,l,1,024,001,2021-04-23_19h11.24.605,searchDisc4,2020.2.10,Win32,60,,,,space,0.50087,1,1,0.952855,,0,429,429,567,1,2c,111,3,43,
,,,,,,,,,,,,,,,,,,,,,,,,,images/exp2b_trial_100_colour2_distractors1_l.png,l,1,024,001,2021-04-23_19h11.24.605,searchDisc4,2020.2.10,Win32,60,,,,space,0.22443,1,1,1.129685,,0,430,430,442,1,2b,100,2,1,
,,,,,,,,,,,,,,,,,,,,,,,,,images/exp1b_trial_74_colour0_distractors0_r.png,r,2,024,001,2021-04-23_19h11.24.605,searchDisc4,2020.2.10,Win32,60,,,,space,0.24505,2,1,0.60989,,0,431,431,188,1,1b,74,0,0,
,,,,,,,,,,,,,,,,,,,,,,,,,images/exp2c_trial_73_colour3_distractors43_l.png,l,1,024,001,2021-04-23_19h11.24.605,searchDisc4,2020.2.10,Win32,60,,,,space,0.27749,1,1,0.870865,,0,432,432,529,1,2c,73,3,43,
,,,,,,,,,,,,,,,,,,,,,,,,,images/exp2c_trial_9_colour2_distractors19_r.png,r,2,024,001,2021-04-23_19h11.24.605,searchDisc4,2020.2.10,Win32,60,,,,space,0.280675,2,1,0.67638,,0,433,433,465,1,2c,9,2,19,
,,,,,,,,,,,,,,,,,,,,,,,,,images/exp2a_trial_8_colour2_distractors9_r.png,r,2,024,001,2021-04-23_19h11.24.605,searchDisc4,2020.2.10,Win32,60,,,,space,0.276515,2,1,0.75631,,0,434,434,236,1,2a,8,2,9,
,,,,,,,,,,,,,,,,,,,,,,,,,images/exp2c_trial_41_colour1_distractors19_r.png,r,2,024,001,2021-04-23_19h11.24.605,searchDisc4,2020.2.10,Win32,60,,,,space,0.240195,2,1,0.791655,,0,435,435,497,1,2c,41,1,19,
,,,,,,,,,,,,,,,,,,,,,,,,,images/exp1a_trial_41_colour1_distractors19_r.png,r,2,024,001,2021-04-23_19h11.24.605,searchDisc4,2020.2.10,Win32,60,,,,space,0.3008,2,1,0.71933,,0,436,436,41,1,1a,41,1,19,
,,,,,,,,,,,,,,,,,,,,,,,,,images/exp2a_trial_11_colour2_distractors43_r.png,r,2,024,001,2021-04-23_19h11.24.605,searchDisc4,2020.2.10,Win32,60,,,,space,0.22046,2,1,0.919965,,0,437,437,239,1,2a,11,2,43,
,,,,,,,,,,,,,,,,,,,,,,,,,images/exp2b_trial_7_colour2_distractors4_r.png,r,2,024,001,2021-04-23_19h11.24.605,searchDisc4,2020.2.10,Win32,60,,,,space,0.197285,2,1,0.89826,,0,438,438,349,1,2b,7,2,4,
,,,,,,,,,,,,,,,,,,,,,,,,,images/exp2b_trial_4_colour1_distractors31_r.png,r,2,024,001,2021-04-23_19h11.24.605,searchDisc4,2020.2.10,Win32,60,,,,space,0.201575,2,1,0.736885,,0,439,439,346,1,2b,4,1,31,
,,,,,,,,,,,,,,,,,,,,,,,,,images/exp2a_trial_88_colour3_distractors1_r.png,r,2,024,001,2021-04-23_19h11.24.605,searchDisc4,2020.2.10,Win32,60,,,,space,0.23087,2,1,0.90246,,0,440,440,316,1,2a,88,3,1,
,,,,,,,,,,,,,,,,,,,,,,,,,images/exp1a_trial_78_colour1_distractors9_r.png,r,2,024,001,2021-04-23_19h11.24.605,searchDisc4,2020.2.10,Win32,60,,,,space,0.26082,2,1,0.799795,,0,441,441,78,1,1a,78,1,9,
,,,,,,,,,,,,,,,,,,,,,,,,,images/exp2c_trial_58_colour1_distractors9_l.png,l,1,024,001,2021-04-23_19h11.24.605,searchDisc4,2020.2.10,Win32,60,,,,space,0.254065,1,1,0.833295,,0,442,442,514,1,2c,58,1,9,
,,,,,,,,,,,,,,,,,,,,,,,,,images/exp1a_trial_6_colour2_distractors1_r.png,r,2,024,001,2021-04-23_19h11.24.605,searchDisc4,2020.2.10,Win32,60,,,,space,0.26801,2,1,1.708695,,0,443,443,6,1,1a,6,2,1,
,,,,,,,,,,,,,,,,,,,,,,,,,images/exp2c_trial_109_colour3_distractors19_l.png,l,1,024,001,2021-04-23_19h11.24.605,searchDisc4,2020.2.10,Win32,60,,,,space,0.289085,1,1,0.899305,,0,444,444,565,1,2c,109,3,19,
,,,,,,,,,,,,,,,,,,,,,,,,,images/exp1b_trial_78_colour1_distractors9_r.png,r,2,024,001,2021-04-23_19h11.24.605,searchDisc4,2020.2.10,Win32,60,,,,space,0.230615,2,1,1.174955,,0,445,445,192,1,1b,78,1,9,
,,,,,,,,,,,,,,,,,,,,,,,,,images/exp1b_trial_99_colour1_distractors43_l.png,l,1,024,001,2021-04-23_19h11.24.605,searchDisc4,2020.2.10,Win32,60,,,,space,0.25156,1,1,1.102215,,0,446,446,213,1,1b,99,1,43,
,,,,,,,,,,,,,,,,,,,,,,,,,images/exp2b_trial_54_colour3_distractors31_r.png,r,2,024,001,2021-04-23_19h11.24.605,searchDisc4,2020.2.10,Win32,60,,,,space,0.31434,2,1,1.06828,,0,447,447,396,1,2b,54,3,31,
,,,,,,,,,,,,,,,,,,,,,,,,,images/exp2b_trial_71_colour3_distractors19_l.png,l,1,024,001,2021-04-23_19h11.24.605,searchDisc4,2020.2.10,Win32,60,,,,space,0.744285,1,1,0.874385,,0,448,448,413,1,2b,71,3,19,
,,,,,,,,,,,,,,,,,,,,,,,,,images/exp2b_trial_24_colour2_distractors1_l.png,l,1,024,001,2021-04-23_19h11.24.605,searchDisc4,2020.2.10,Win32,60,,,,space,0.23465,1,1,0.8871,,0,449,449,366,1,2b,24,2,1,
,,,,,,,,,,,,,,,,,,,,,,,,,images/exp1b_trial_25_colour2_distractors4_l.png,l,1,024,001,2021-04-23_19h11.24.605,searchDisc4,2020.2.10,Win32,60,,,,space,0.227995,1,1,1.75952,,0,450,450,139,1,1b,25,2,4,
,,,,,,,,,,,,,,,,,,,,,,,,,images/exp1a_trial_81_colour1_distractors43_r.png,r,2,024,001,2021-04-23_19h11.24.605,searchDisc4,2020.2.10,Win32,60,,,,space,0.217535,2,1,0.835715,,0,451,451,81,1,1a,81,1,43,
,,,,,,,,,,,,,,,,,,,,,,,,,images/exp2c_trial_10_colour2_distractors31_r.png,r,2,024,001,2021-04-23_19h11.24.605,searchDisc4,2020.2.10,Win32,60,,,,space,0.22106,2,1,0.84192,,0,452,452,466,1,2c,10,2,31,
,,,,,,,,,,,,,,,,,,,,,,,,,images/exp2a_trial_83_colour2_distractors4_r.png,r,2,024,001,2021-04-23_19h11.24.605,searchDisc4,2020.2.10,Win32,60,,,,space,0.194965,2,1,0.92431,,0,453,453,311,1,2a,83,2,4,
,,,,,,,,,,,,,,,,,,,,,,,,,images/exp1a_trial_8_colour2_distractors9_r.png,r,2,024,001,2021-04-23_19h11.24.605,searchDisc4,2020.2.10,Win32,60,,,,space,0.217435,2,1,0.79776,,0,454,454,8,1,1a,8,2,9,
,,,,,,,,,,,,,,,,,,,,,,,,,images/exp2a_trial_66_colour2_distractors31_l.png,l,1,024,001,2021-04-23_19h11.24.605,searchDisc4,2020.2.10,Win32,60,,,,space,0.20788,1,1,0.883875,,0,455,455,294,1,2a,66,2,31,
,,,,,,,,,,,,,,,,,,,,,,,,,images/exp1b_trial_8_colour2_distractors9_r.png,r,2,024,001,2021-04-23_19h11.24.605,searchDisc4,2020.2.10,Win32,60,,,,space,0.239585,2,1,0.845325,,0,456,456,122,1,1b,8,2,9,
,,,,,,,,,,,,,,,,,,,,,,,,,images/exp2c_trial_100_colour2_distractors1_l.png,l,1,024,001,2021-04-23_19h11.24.605,searchDisc4,2020.2.10,Win32,60,,,,space,0.22262,1,1,0.80957,,0,457,457,556,1,2c,100,2,1,
,,,,,,,,,,,,,,,,,,,,,,,,,images/exp1b_trial_97_colour1_distractors19_l.png,l,1,024,001,2021-04-23_19h11.24.605,searchDisc4,2020.2.10,Win32,60,,,,space,0.243185,1,1,0.894475,,0,458,458,211,1,1b,97,1,19,
,,,,,,,,,,,,,,,,,,,,,,,,,images/exp2a_trial_21_colour1_distractors19_l.png,l,1,024,001,2021-04-23_19h11.24.605,searchDisc4,2020.2.10,Win32,60,,,,space,0.282275,1,1,0.82338,,0,459,459,249,1,2a,21,1,19,
,,,,,,,,,,,,,,,,,,,,,,,,,images/exp2a_trial_73_colour3_distractors43_l.png,l,1,024,001,2021-04-23_19h11.24.605,searchDisc4,2020.2.10,Win32,60,,,,space,0.21824,1,1,0.86662,,0,460,460,301,1,2a,73,3,43,
,,,,,,,,,,,,,,,,,,,,,,,,,images/exp1a_trial_47_colour2_distractors19_r.png,r,2,024,001,2021-04-23_19h11.24.605,searchDisc4,2020.2.10,Win32,60,,,,space,0.23712,2,1,0.80758,,0,461,461,47,1,1a,47,2,19,
,,,,,,,,,,,,,,,,,,,,,,,,,images/exp1a_trial_97_colour1_distractors19_l.png,l,1,024,001,2021-04-23_19h11.24.605,searchDisc4,2020.2.10,Win32,60,,,,space,0.19187,1,1,0.88673,,0,462,462,97,1,1a,97,1,19,
,,,,,,,,,,,,,,,,,,,,,,,,,images/exp2c_trial_59_colour1_distractors19_l.png,l,1,024,001,2021-04-23_19h11.24.605,searchDisc4,2020.2.10,Win32,60,,,,space,0.238175,1,1,1.003,,0,463,463,515,1,2c,59,1,19,
,,,,,,,,,,,,,,,,,,,,,,,,,images/exp2c_trial_62_colour2_distractors1_l.png,l,1,024,001,2021-04-23_19h11.24.605,searchDisc4,2020.2.10,Win32,60,,,,space,0.233645,1,1,1.03998,,0,464,464,518,1,2c,62,2,1,
,,,,,,,,,,,,,,,,,,,,,,,,,images/exp2c_trial_92_colour3_distractors31_r.png,r,2,024,001,2021-04-23_19h11.24.605,searchDisc4,2020.2.10,Win32,60,,,,space,0.23479,2,1,0.889085,,0,465,465,548,1,2c,92,3,31,
,,,,,,,,,,,,,,,,,,,,,,,,,images/exp2a_trial_100_colour2_distractors1_l.png,l,1,024,001,2021-04-23_19h11.24.605,searchDisc4,2020.2.10,Win32,60,,,,space,0.26468,1,1,0.66659,,0,466,466,328,1,2a,100,2,1,
,,,,,,,,,,,,,,,,,,,,,,,,,images/exp2c_trial_64_colour2_distractors9_l.png,l,1,024,001,2021-04-23_19h11.24.605,searchDisc4,2020.2.10,Win32,60,,,,space,0.31275,1,1,0.90014,,0,467,467,520,1,2c,64,2,9,
,,,,,,,,,,,,,,,,,,,,,,,,,images/exp1b_trial_53_colour3_distractors19_r.png,r,2,024,001,2021-04-23_19h11.24.605,searchDisc4,2020.2.10,Win32,60,,,,space,0.211515,2,1,2.22135,,0,468,468,167,1,1b,53,3,19,
,,,,,,,,,,,,,,,,,,,,,,,,,images/exp2a_trial_43_colour1_distractors43_r.png,r,2,024,001,2021-04-23_19h11.24.605,searchDisc4,2020.2.10,Win32,60,,,,space,0.270535,2,1,0.846405,,0,469,469,271,1,2a,43,1,43,
,,,,,,,,,,,,,,,,,,,,,,,,,images/exp2b_trial_67_colour2_distractors43_l.png,l,1,024,001,2021-04-23_19h11.24.605,searchDisc4,2020.2.10,Win32,60,,,,space,0.215105,1,1,0.75286,,0,470,470,409,1,2b,67,2,43,
,,,,,,,,,,,,,,,,,,,,,,,,,images/exp2b_trial_3_colour1_distractors19_r.png,r,2,024,001,2021-04-23_19h11.24.605,searchDisc4,2020.2.10,Win32,60,,,,space,0.210935,2,1,0.722495,,0,471,471,345,1,2b,3,1,19,
,,,,,,,,,,,,,,,,,,,,,,,,,images/exp2b_trial_23_colour1_distractors43_l.png,l,1,024,001,2021-04-23_19h11.24.605,searchDisc4,2020.2.10,Win32,60,,,,space,0.18655,1,1,0.87268,,0,472,472,365,1,2b,23,1,43,
,,,,,,,,,,,,,,,,,,,,,,,,,images/exp2b_trial_43_colour1_distractors43_r.png,r,2,024,001,2021-04-23_19h11.24.605,searchDisc4,2020.2.10,Win32,60,,,,space,0.26428,2,1,0.792385,,0,473,473,385,1,2b,43,1,43,
,,,,,,,,,,,,,,,,,,,,,,,,,images/exp2b_trial_64_colour2_distractors9_l.png,l,1,024,001,2021-04-23_19h11.24.605,searchDisc4,2020.2.10,Win32,60,,,,space,0.308125,1,1,1.12752,,0,474,474,406,1,2b,64,2,9,
,,,,,,,,,,,,,,,,,,,,,,,,,images/exp2a_trial_48_colour2_distractors31_r.png,r,2,024,001,2021-04-23_19h11.24.605,searchDisc4,2020.2.10,Win32,60,,,,space,0.211415,2,1,0.79659,,0,475,475,276,1,2a,48,2,31,
,,,,,,,,,,,,,,,,,,,,,,,,,images/exp2c_trial_30_colour3_distractors1_l.png,l,1,024,001,2021-04-23_19h11.24.605,searchDisc4,2020.2.10,Win32,60,,,,space,0.204565,1,1,1.13372,,0,476,476,486,1,2c,30,3,1,
