X Scale,Y Scale,key_resp_10.keys,key_resp_10.rt,key_resp_11.keys,key_resp_11.rt,key_resp_12.keys,key_resp_12.rt,key_resp_13.keys,key_resp_13.rt,key_resp_5.keys,key_resp_5.rt,key_resp_8.keys,key_resp_8.rt,key_resp_6.keys,key_resp_6.rt,key_resp_7.keys,key_resp_7.rt,key_resp_4.keys,key_resp_4.corr,key_resp_4.rt,trials_2.thisRepN,trials_2.thisTrialN,trials_2.thisN,trials_2.thisIndex,trials_2.ran,ImageFile,targ_side,correctAnswer,participant,session,date,expName,psychopyVersion,OS,frameRate,key_resp_3.keys,key_resp_3.rt,key_resp_9.keys,key_resp_9.rt,key_resp_2.keys,key_resp_2.corr,key_resp_2.rt,key_resp.keys,trials.thisRepN,trials.thisTrialN,trials.thisN,trials.thisIndex,trials.ran,exp,trial,colour,distNo,key_resp.rt
20.4,20.6,space,4.65798,space,24.73839,space,7.194385,space,0.001065,space,5.79213,space,15.974865,space,4.137695,space,13.566665,2,1,1.38653,0,0,0,2,1,Practice arrays/exp1a_trial_5_colour1_distractors43_r.png,r,2,029,001,2021-04-23_20h26.13.910,searchDisc4,2020.2.10,Win32,60,,,,,,,,,,,,,,,,,,
,,,,,,,,,,,,,,,,space,3.25376,2,1,0.65934,0,1,1,0,1,Practice arrays/exp1a_trial_0_colour1_distractors1_r.png,r,2,029,001,2021-04-23_20h26.13.910,searchDisc4,2020.2.10,Win32,60,,,,,,,,,,,,,,,,,,
,,,,,,,,,,,,,,,,space,1.072275,2,1,0.56494,0,2,2,3,1,Practice arrays/exp1a_trial_7_colour2_distractors4_r.png,r,2,029,001,2021-04-23_20h26.13.910,searchDisc4,2020.2.10,Win32,60,,,,,,,,,,,,,,,,,,
,,,,,,,,,,,,,,,,space,0.58392,2,1,0.525805,0,3,3,1,1,Practice arrays/exp1a_trial_3_colour1_distractors19_r.png,r,2,029,001,2021-04-23_20h26.13.910,searchDisc4,2020.2.10,Win32,60,,,,,,,,,,,,,,,,,,
,,,,,,,,,,,,,,,,space,0.573535,1,1,0.55438,0,4,4,12,1,Practice arrays/exp1a_trial_25_colour2_distractors4_l.png,l,1,029,001,2021-04-23_20h26.13.910,searchDisc4,2020.2.10,Win32,60,,,,,,,,,,,,,,,,,,
,,,,,,,,,,,,,,,,space,0.70368,1,1,0.621285,0,5,5,15,1,Practice arrays/exp1a_trial_32_colour3_distractors9_l.png,l,1,029,001,2021-04-23_20h26.13.910,searchDisc4,2020.2.10,Win32,60,,,,,,,,,,,,,,,,,,
,,,,,,,,,,,,,,,,space,0.453505,1,1,1.118055,0,6,6,11,1,Practice arrays/exp1a_trial_21_colour1_distractors19_l.png,l,1,029,001,2021-04-23_20h26.13.910,searchDisc4,2020.2.10,Win32,60,,,,,,,,,,,,,,,,,,
,,,,,,,,,,,,,,,,space,0.583655,1,1,0.551985,0,7,7,9,1,Practice arrays/exp1a_trial_19_colour1_distractors4_l.png,l,1,029,001,2021-04-23_20h26.13.910,searchDisc4,2020.2.10,Win32,60,,,,,,,,,,,,,,,,,,
,,,,,,,,,,,,,,,,space,0.5064,1,1,0.56516,0,8,8,19,1,Practice arrays/exp1a_trial_37_colour0_distractors0_l.png,l,1,029,001,2021-04-23_20h26.13.910,searchDisc4,2020.2.10,Win32,60,,,,,,,,,,,,,,,,,,
,,,,,,,,,,,,,,,,space,0.563515,1,1,0.685025,0,9,9,10,1,Practice arrays/exp1a_trial_20_colour1_distractors9_l.png,l,1,029,001,2021-04-23_20h26.13.910,searchDisc4,2020.2.10,Win32,60,,,,,,,,,,,,,,,,,,
,,,,,,,,,,,,,,,,space,0.510485,1,1,0.49992,0,10,10,14,1,Practice arrays/exp1a_trial_29_colour2_distractors43_l.png,l,1,029,001,2021-04-23_20h26.13.910,searchDisc4,2020.2.10,Win32,60,,,,,,,,,,,,,,,,,,
,,,,,,,,,,,,,,,,space,0.655135,2,1,0.595915,0,11,11,8,1,Practice arrays/exp1a_trial_16_colour3_distractors31_r.png,r,2,029,001,2021-04-23_20h26.13.910,searchDisc4,2020.2.10,Win32,60,,,,,,,,,,,,,,,,,,
,,,,,,,,,,,,,,,,space,0.40801,1,1,0.543605,0,12,12,16,1,Practice arrays/exp1a_trial_33_colour3_distractors19_l.png,l,1,029,001,2021-04-23_20h26.13.910,searchDisc4,2020.2.10,Win32,60,,,,,,,,,,,,,,,,,,
,,,,,,,,,,,,,,,,space,0.360195,1,1,0.72395,0,13,13,17,1,Practice arrays/exp1a_trial_35_colour3_distractors43_l.png,l,1,029,001,2021-04-23_20h26.13.910,searchDisc4,2020.2.10,Win32,60,,,,,,,,,,,,,,,,,,
,,,,,,,,,,,,,,,,space,0.44466,2,1,0.651865,0,14,14,5,1,Practice arrays/exp1a_trial_10_colour2_distractors31_r.png,r,2,029,001,2021-04-23_20h26.13.910,searchDisc4,2020.2.10,Win32,60,,,,,,,,,,,,,,,,,,
,,,,,,,,,,,,,,,,space,0.46823,1,1,0.55516,0,15,15,13,1,Practice arrays/exp1a_trial_28_colour2_distractors31_l.png,l,1,029,001,2021-04-23_20h26.13.910,searchDisc4,2020.2.10,Win32,60,,,,,,,,,,,,,,,,,,
,,,,,,,,,,,,,,,,space,0.401445,2,1,0.46239,0,16,16,18,1,Practice arrays/exp1a_trial_36_colour0_distractors0_r.png,r,2,029,001,2021-04-23_20h26.13.910,searchDisc4,2020.2.10,Win32,60,,,,,,,,,,,,,,,,,,
,,,,,,,,,,,,,,,,space,0.69461,2,1,0.501425,0,17,17,7,1,Practice arrays/exp1a_trial_13_colour3_distractors4_r.png,r,2,029,001,2021-04-23_20h26.13.910,searchDisc4,2020.2.10,Win32,60,,,,,,,,,,,,,,,,,,
,,,,,,,,,,,,,,,,space,0.65265,2,1,0.528805,0,18,18,6,1,Practice arrays/exp1a_trial_12_colour3_distractors1_r.png,r,2,029,001,2021-04-23_20h26.13.910,searchDisc4,2020.2.10,Win32,60,,,,,,,,,,,,,,,,,,
,,,,,,,,,,,,,,,,space,0.485865,2,1,0.52584,0,19,19,4,1,Practice arrays/exp1a_trial_8_colour2_distractors9_r.png,r,2,029,001,2021-04-23_20h26.13.910,searchDisc4,2020.2.10,Win32,60,,,,,,,,,,,,,,,,,,
,,,,,,,,,,,,,,,,,,,,,,,,,,images/exp1b_trial_108_colour3_distractors9_l.png,l,1,029,001,2021-04-23_20h26.13.910,searchDisc4,2020.2.10,Win32,60,space,5.795115,space,2.62161,1,1,0.867815,,0,0,0,222,1,1b,108,3,9,
,,,,,,,,,,,,,,,,,,,,,,,,,,images/exp1b_trial_27_colour2_distractors19_l.png,l,1,029,001,2021-04-23_20h26.13.910,searchDisc4,2020.2.10,Win32,60,,,space,2.40998,1,1,0.58588,,0,1,1,141,1,1b,27,2,19,
,,,,,,,,,,,,,,,,,,,,,,,,,,images/exp1a_trial_51_colour3_distractors4_r.png,r,2,029,001,2021-04-23_20h26.13.910,searchDisc4,2020.2.10,Win32,60,,,space,2.58043,2,1,0.64369,,0,2,2,51,1,1a,51,3,4,
,,,,,,,,,,,,,,,,,,,,,,,,,,images/exp1b_trial_53_colour3_distractors19_r.png,r,2,029,001,2021-04-23_20h26.13.910,searchDisc4,2020.2.10,Win32,60,,,space,2.096725,2,1,1.019695,,0,3,3,167,1,1b,53,3,19,
,,,,,,,,,,,,,,,,,,,,,,,,,,images/exp2a_trial_64_colour2_distractors9_l.png,l,1,029,001,2021-04-23_20h26.13.910,searchDisc4,2020.2.10,Win32,60,,,space,2.40279,1,1,0.664315,,0,4,4,292,1,2a,64,2,9,
,,,,,,,,,,,,,,,,,,,,,,,,,,images/exp1b_trial_37_colour0_distractors0_l.png,l,1,029,001,2021-04-23_20h26.13.910,searchDisc4,2020.2.10,Win32,60,,,space,2.05518,1,1,0.559685,,0,5,5,151,1,1b,37,0,0,
,,,,,,,,,,,,,,,,,,,,,,,,,,images/exp2b_trial_50_colour3_distractors1_r.png,r,2,029,001,2021-04-23_20h26.13.910,searchDisc4,2020.2.10,Win32,60,,,space,1.70508,2,1,0.457755,,0,6,6,392,1,2b,50,3,1,
,,,,,,,,,,,,,,,,,,,,,,,,,,images/exp1b_trial_61_colour1_distractors43_l.png,l,1,029,001,2021-04-23_20h26.13.910,searchDisc4,2020.2.10,Win32,60,,,space,1.819645,1,1,0.80951,,0,7,7,175,1,1b,61,1,43,
,,,,,,,,,,,,,,,,,,,,,,,,,,images/exp2a_trial_109_colour3_distractors19_l.png,l,1,029,001,2021-04-23_20h26.13.910,searchDisc4,2020.2.10,Win32,60,,,space,1.956875,1,1,0.61466,,0,8,8,337,1,2a,109,3,19,
,,,,,,,,,,,,,,,,,,,,,,,,,,images/exp2c_trial_38_colour1_distractors1_r.png,r,2,029,001,2021-04-23_20h26.13.910,searchDisc4,2020.2.10,Win32,60,,,space,1.590635,2,1,0.51977,,0,9,9,494,1,2c,38,1,1,
,,,,,,,,,,,,,,,,,,,,,,,,,,images/exp1b_trial_17_colour3_distractors43_r.png,r,2,029,001,2021-04-23_20h26.13.910,searchDisc4,2020.2.10,Win32,60,,,space,3.64271,2,1,1.169405,,0,10,10,131,1,1b,17,3,43,
,,,,,,,,,,,,,,,,,,,,,,,,,,images/exp2a_trial_59_colour1_distractors19_l.png,l,1,029,001,2021-04-23_20h26.13.910,searchDisc4,2020.2.10,Win32,60,,,space,1.684955,1,1,0.507675,,0,11,11,287,1,2a,59,1,19,
,,,,,,,,,,,,,,,,,,,,,,,,,,images/exp1b_trial_107_colour3_distractors4_l.png,l,1,029,001,2021-04-23_20h26.13.910,searchDisc4,2020.2.10,Win32,60,,,space,1.203065,1,1,0.73284,,0,12,12,221,1,1b,107,3,4,
,,,,,,,,,,,,,,,,,,,,,,,,,,images/exp2c_trial_73_colour3_distractors43_l.png,l,1,029,001,2021-04-23_20h26.13.910,searchDisc4,2020.2.10,Win32,60,,,space,3.27472,1,1,0.61153,,0,13,13,529,1,2c,73,3,43,
,,,,,,,,,,,,,,,,,,,,,,,,,,images/exp1b_trial_35_colour3_distractors43_l.png,l,1,029,001,2021-04-23_20h26.13.910,searchDisc4,2020.2.10,Win32,60,,,space,1.10559,1,1,0.667925,,0,14,14,149,1,1b,35,3,43,
,,,,,,,,,,,,,,,,,,,,,,,,,,images/exp1a_trial_44_colour2_distractors1_r.png,r,2,029,001,2021-04-23_20h26.13.910,searchDisc4,2020.2.10,Win32,60,,,space,1.239495,2,1,0.560315,,0,15,15,44,1,1a,44,2,1,
,,,,,,,,,,,,,,,,,,,,,,,,,,images/exp2a_trial_7_colour2_distractors4_r.png,r,2,029,001,2021-04-23_20h26.13.910,searchDisc4,2020.2.10,Win32,60,,,space,1.153325,2,1,0.595235,,0,16,16,235,1,2a,7,2,4,
,,,,,,,,,,,,,,,,,,,,,,,,,,images/exp1a_trial_53_colour3_distractors19_r.png,r,2,029,001,2021-04-23_20h26.13.910,searchDisc4,2020.2.10,Win32,60,,,space,1.695965,2,1,0.581105,,0,17,17,53,1,1a,53,3,19,
,,,,,,,,,,,,,,,,,,,,,,,,,,images/exp2c_trial_53_colour3_distractors19_r.png,r,2,029,001,2021-04-23_20h26.13.910,searchDisc4,2020.2.10,Win32,60,,,space,2.115515,2,1,0.64638,,0,18,18,509,1,2c,53,3,19,
,,,,,,,,,,,,,,,,,,,,,,,,,,images/exp1b_trial_29_colour2_distractors43_l.png,l,1,029,001,2021-04-23_20h26.13.910,searchDisc4,2020.2.10,Win32,60,,,space,1.81692,1,1,1.33283,,0,19,19,143,1,1b,29,2,43,
,,,,,,,,,,,,,,,,,,,,,,,,,,images/exp2b_trial_80_colour1_distractors31_r.png,r,2,029,001,2021-04-23_20h26.13.910,searchDisc4,2020.2.10,Win32,60,,,space,2.202305,2,1,0.67954,,0,20,20,422,1,2b,80,1,31,
,,,,,,,,,,,,,,,,,,,,,,,,,,images/exp1a_trial_75_colour0_distractors0_l.png,l,1,029,001,2021-04-23_20h26.13.910,searchDisc4,2020.2.10,Win32,60,,,space,1.749555,1,1,0.60922,,0,21,21,75,1,1a,75,0,0,
,,,,,,,,,,,,,,,,,,,,,,,,,,images/exp1b_trial_90_colour3_distractors9_r.png,r,2,029,001,2021-04-23_20h26.13.910,searchDisc4,2020.2.10,Win32,60,,,space,2.29298,2,1,0.618445,,0,22,22,204,1,1b,90,3,9,
,,,,,,,,,,,,,,,,,,,,,,,,,,images/exp2c_trial_33_colour3_distractors19_l.png,l,1,029,001,2021-04-23_20h26.13.910,searchDisc4,2020.2.10,Win32,60,,,space,1.651955,1,1,0.70743,,0,23,23,489,1,2c,33,3,19,
,,,,,,,,,,,,,,,,,,,,,,,,,,images/exp1b_trial_80_colour1_distractors31_r.png,r,2,029,001,2021-04-23_20h26.13.910,searchDisc4,2020.2.10,Win32,60,,,space,1.148615,2,1,0.675495,,0,24,24,194,1,1b,80,1,31,
,,,,,,,,,,,,,,,,,,,,,,,,,,images/exp1b_trial_47_colour2_distractors19_r.png,r,2,029,001,2021-04-23_20h26.13.910,searchDisc4,2020.2.10,Win32,60,,,space,3.547945,2,1,0.611975,,0,25,25,161,1,1b,47,2,19,
,,,,,,,,,,,,,,,,,,,,,,,,,,images/exp2a_trial_77_colour1_distractors4_r.png,r,2,029,001,2021-04-23_20h26.13.910,searchDisc4,2020.2.10,Win32,60,,,space,1.70219,2,1,0.589315,,0,26,26,305,1,2a,77,1,4,
,,,,,,,,,,,,,,,,,,,,,,,,,,images/exp2b_trial_104_colour2_distractors31_l.png,l,1,029,001,2021-04-23_20h26.13.910,searchDisc4,2020.2.10,Win32,60,,,space,1.572755,1,1,0.7203,,0,27,27,446,1,2b,104,2,31,
,,,,,,,,,,,,,,,,,,,,,,,,,,images/exp2a_trial_14_colour3_distractors9_r.png,r,2,029,001,2021-04-23_20h26.13.910,searchDisc4,2020.2.10,Win32,60,,,space,2.469705,2,1,0.527975,,0,28,28,242,1,2a,14,3,9,
,,,,,,,,,,,,,,,,,,,,,,,,,,images/exp1a_trial_62_colour2_distractors1_l.png,l,1,029,001,2021-04-23_20h26.13.910,searchDisc4,2020.2.10,Win32,60,,,space,1.767865,1,1,0.78642,,0,29,29,62,1,1a,62,2,1,
,,,,,,,,,,,,,,,,,,,,,,,,,,images/exp1b_trial_82_colour2_distractors1_r.png,r,2,029,001,2021-04-23_20h26.13.910,searchDisc4,2020.2.10,Win32,60,,,space,2.522615,2,1,0.589285,,0,30,30,196,1,1b,82,2,1,
,,,,,,,,,,,,,,,,,,,,,,,,,,images/exp2b_trial_6_colour2_distractors1_r.png,r,2,029,001,2021-04-23_20h26.13.910,searchDisc4,2020.2.10,Win32,60,,,space,1.55237,2,1,0.56968,,0,31,31,348,1,2b,6,2,1,
,,,,,,,,,,,,,,,,,,,,,,,,,,images/exp2a_trial_27_colour2_distractors19_l.png,l,1,029,001,2021-04-23_20h26.13.910,searchDisc4,2020.2.10,Win32,60,,,space,2.237415,1,1,0.639135,,0,32,32,255,1,2a,27,2,19,
,,,,,,,,,,,,,,,,,,,,,,,,,,images/exp2b_trial_10_colour2_distractors31_r.png,r,2,029,001,2021-04-23_20h26.13.910,searchDisc4,2020.2.10,Win32,60,,,space,2.05236,2,1,0.622855,,0,33,33,352,1,2b,10,2,31,
,,,,,,,,,,,,,,,,,,,,,,,,,,images/exp1a_trial_52_colour3_distractors9_r.png,r,2,029,001,2021-04-23_20h26.13.910,searchDisc4,2020.2.10,Win32,60,,,space,1.629085,2,1,1.223955,,0,34,34,52,1,1a,52,3,9,
,,,,,,,,,,,,,,,,,,,,,,,,,,images/exp1a_trial_5_colour1_distractors43_r.png,r,2,029,001,2021-04-23_20h26.13.910,searchDisc4,2020.2.10,Win32,60,,,space,1.624465,2,1,0.624905,,0,35,35,5,1,1a,5,1,43,
,,,,,,,,,,,,,,,,,,,,,,,,,,images/exp1a_trial_79_colour1_distractors19_r.png,r,2,029,001,2021-04-23_20h26.13.910,searchDisc4,2020.2.10,Win32,60,,,space,1.644675,2,1,0.630285,,0,36,36,79,1,1a,79,1,19,
,,,,,,,,,,,,,,,,,,,,,,,,,,images/exp2a_trial_16_colour3_distractors31_r.png,r,2,029,001,2021-04-23_20h26.13.910,searchDisc4,2020.2.10,Win32,60,,,space,1.38188,2,1,0.727925,,0,37,37,244,1,2a,16,3,31,
,,,,,,,,,,,,,,,,,,,,,,,,,,images/exp2b_trial_43_colour1_distractors43_r.png,r,2,029,001,2021-04-23_20h26.13.910,searchDisc4,2020.2.10,Win32,60,,,space,1.5408,2,1,0.645095,,0,38,38,385,1,2b,43,1,43,
,,,,,,,,,,,,,,,,,,,,,,,,,,images/exp2b_trial_63_colour2_distractors4_l.png,l,1,029,001,2021-04-23_20h26.13.910,searchDisc4,2020.2.10,Win32,60,,,space,1.2812,1,1,0.57489,,0,39,39,405,1,2b,63,2,4,
,,,,,,,,,,,,,,,,,,,,,,,,,,images/exp1a_trial_54_colour3_distractors31_r.png,r,2,029,001,2021-04-23_20h26.13.910,searchDisc4,2020.2.10,Win32,60,,,space,1.627455,2,1,0.570915,,0,40,40,54,1,1a,54,3,31,
,,,,,,,,,,,,,,,,,,,,,,,,,,images/exp2b_trial_21_colour1_distractors19_l.png,l,1,029,001,2021-04-23_20h26.13.910,searchDisc4,2020.2.10,Win32,60,,,space,1.53185,1,1,0.765975,,0,41,41,363,1,2b,21,1,19,
,,,,,,,,,,,,,,,,,,,,,,,,,,images/exp2a_trial_96_colour1_distractors9_l.png,l,1,029,001,2021-04-23_20h26.13.910,searchDisc4,2020.2.10,Win32,60,,,space,1.354455,1,1,0.660105,,0,42,42,324,1,2a,96,1,9,
,,,,,,,,,,,,,,,,,,,,,,,,,,images/exp2b_trial_2_colour1_distractors9_r.png,r,2,029,001,2021-04-23_20h26.13.910,searchDisc4,2020.2.10,Win32,60,,,space,1.167205,2,1,0.60734,,0,43,43,344,1,2b,2,1,9,
,,,,,,,,,,,,,,,,,,,,,,,,,,images/exp1b_trial_44_colour2_distractors1_r.png,r,2,029,001,2021-04-23_20h26.13.910,searchDisc4,2020.2.10,Win32,60,,,space,1.101545,2,1,0.501635,,0,44,44,158,1,1b,44,2,1,
,,,,,,,,,,,,,,,,,,,,,,,,,,images/exp2c_trial_44_colour2_distractors1_r.png,r,2,029,001,2021-04-23_20h26.13.910,searchDisc4,2020.2.10,Win32,60,,,space,1.7921,2,1,0.483705,,0,45,45,500,1,2c,44,2,1,
,,,,,,,,,,,,,,,,,,,,,,,,,,images/exp2c_trial_100_colour2_distractors1_l.png,l,1,029,001,2021-04-23_20h26.13.910,searchDisc4,2020.2.10,Win32,60,,,space,2.376145,1,1,0.66566,,0,46,46,556,1,2c,100,2,1,
,,,,,,,,,,,,,,,,,,,,,,,,,,images/exp1a_trial_40_colour1_distractors9_r.png,r,2,029,001,2021-04-23_20h26.13.910,searchDisc4,2020.2.10,Win32,60,,,space,1.45519,2,1,0.67074,,0,47,47,40,1,1a,40,1,9,
,,,,,,,,,,,,,,,,,,,,,,,,,,images/exp2a_trial_23_colour1_distractors43_l.png,l,1,029,001,2021-04-23_20h26.13.910,searchDisc4,2020.2.10,Win32,60,,,space,2.40581,1,1,0.56416,,0,48,48,251,1,2a,23,1,43,
,,,,,,,,,,,,,,,,,,,,,,,,,,images/exp2b_trial_78_colour1_distractors9_r.png,r,2,029,001,2021-04-23_20h26.13.910,searchDisc4,2020.2.10,Win32,60,,,space,1.54837,2,1,0.672685,,0,49,49,420,1,2b,78,1,9,
,,,,,,,,,,,,,,,,,,,,,,,,,,images/exp2c_trial_42_colour1_distractors31_r.png,r,2,029,001,2021-04-23_20h26.13.910,searchDisc4,2020.2.10,Win32,60,,,space,1.93348,2,1,0.666545,,0,50,50,498,1,2c,42,1,31,
,,,,,,,,,,,,,,,,,,,,,,,,,,images/exp1b_trial_87_colour2_distractors43_r.png,r,2,029,001,2021-04-23_20h26.13.910,searchDisc4,2020.2.10,Win32,60,,,space,2.2859,2,1,1.10954,,0,51,51,201,1,1b,87,2,43,
,,,,,,,,,,,,,,,,,,,,,,,,,,images/exp2a_trial_89_colour3_distractors4_r.png,r,2,029,001,2021-04-23_20h26.13.910,searchDisc4,2020.2.10,Win32,60,,,space,2.561005,2,1,0.597845,,0,52,52,317,1,2a,89,3,4,
,,,,,,,,,,,,,,,,,,,,,,,,,,images/exp2b_trial_28_colour2_distractors31_l.png,l,1,029,001,2021-04-23_20h26.13.910,searchDisc4,2020.2.10,Win32,60,,,space,1.669465,1,1,0.536775,,0,53,53,370,1,2b,28,2,31,
,,,,,,,,,,,,,,,,,,,,,,,,,,images/exp1b_trial_89_colour3_distractors4_r.png,r,2,029,001,2021-04-23_20h26.13.910,searchDisc4,2020.2.10,Win32,60,,,space,2.063245,2,1,0.978045,,0,54,54,203,1,1b,89,3,4,
,,,,,,,,,,,,,,,,,,,,,,,,,,images/exp1a_trial_80_colour1_distractors31_r.png,r,2,029,001,2021-04-23_20h26.13.910,searchDisc4,2020.2.10,Win32,60,,,space,2.948265,2,1,0.629125,,0,55,55,80,1,1a,80,1,31,
,,,,,,,,,,,,,,,,,,,,,,,,,,images/exp2c_trial_19_colour1_distractors4_l.png,l,1,029,001,2021-04-23_20h26.13.910,searchDisc4,2020.2.10,Win32,60,,,space,2.904385,1,1,0.65549,,0,56,56,475,1,2c,19,1,4,
,,,,,,,,,,,,,,,,,,,,,,,,,,images/exp2c_trial_20_colour1_distractors9_l.png,l,1,029,001,2021-04-23_20h26.13.910,searchDisc4,2020.2.10,Win32,60,,,space,1.27184,1,1,0.43502,,0,57,57,476,1,2c,20,1,9,
,,,,,,,,,,,,,,,,,,,,,,,,,,images/exp2a_trial_17_colour3_distractors43_r.png,r,2,029,001,2021-04-23_20h26.13.910,searchDisc4,2020.2.10,Win32,60,,,space,0.892845,2,1,0.584855,,0,58,58,245,1,2a,17,3,43,
,,,,,,,,,,,,,,,,,,,,,,,,,,images/exp2a_trial_67_colour2_distractors43_l.png,l,1,029,001,2021-04-23_20h26.13.910,searchDisc4,2020.2.10,Win32,60,,,space,0.623515,1,1,0.654155,space,0,59,59,295,1,2a,67,2,43,4.21565
,,,,,,,,,,,,,,,,,,,,,,,,,,images/exp1a_trial_50_colour3_distractors1_r.png,r,2,029,001,2021-04-23_20h26.13.910,searchDisc4,2020.2.10,Win32,60,,,space,4.505115,2,1,0.910995,,0,60,60,50,1,1a,50,3,1,
,,,,,,,,,,,,,,,,,,,,,,,,,,images/exp1b_trial_10_colour2_distractors31_r.png,r,2,029,001,2021-04-23_20h26.13.910,searchDisc4,2020.2.10,Win32,60,,,space,1.20061,2,1,0.593725,,0,61,61,124,1,1b,10,2,31,
,,,,,,,,,,,,,,,,,,,,,,,,,,images/exp2c_trial_58_colour1_distractors9_l.png,l,1,029,001,2021-04-23_20h26.13.910,searchDisc4,2020.2.10,Win32,60,,,space,1.189005,1,1,0.510795,,0,62,62,514,1,2c,58,1,9,
,,,,,,,,,,,,,,,,,,,,,,,,,,images/exp1b_trial_79_colour1_distractors19_r.png,r,2,029,001,2021-04-23_20h26.13.910,searchDisc4,2020.2.10,Win32,60,,,space,1.33668,2,1,0.636105,,0,63,63,193,1,1b,79,1,19,
,,,,,,,,,,,,,,,,,,,,,,,,,,images/exp1a_trial_49_colour2_distractors43_r.png,r,2,029,001,2021-04-23_20h26.13.910,searchDisc4,2020.2.10,Win32,60,,,space,1.82385,2,1,0.500845,,0,64,64,49,1,1a,49,2,43,
,,,,,,,,,,,,,,,,,,,,,,,,,,images/exp2c_trial_41_colour1_distractors19_r.png,r,2,029,001,2021-04-23_20h26.13.910,searchDisc4,2020.2.10,Win32,60,,,space,2.470965,2,1,0.578255,,0,65,65,497,1,2c,41,1,19,
,,,,,,,,,,,,,,,,,,,,,,,,,,images/exp2b_trial_1_colour1_distractors4_r.png,r,2,029,001,2021-04-23_20h26.13.910,searchDisc4,2020.2.10,Win32,60,,,space,1.63151,2,1,0.50731,,0,66,66,343,1,2b,1,1,4,
,,,,,,,,,,,,,,,,,,,,,,,,,,images/exp2c_trial_60_colour1_distractors31_l.png,l,1,029,001,2021-04-23_20h26.13.910,searchDisc4,2020.2.10,Win32,60,,,space,1.75874,1,1,0.55451,,0,67,67,516,1,2c,60,1,31,
,,,,,,,,,,,,,,,,,,,,,,,,,,images/exp2c_trial_57_colour1_distractors4_l.png,l,1,029,001,2021-04-23_20h26.13.910,searchDisc4,2020.2.10,Win32,60,,,space,1.86894,1,1,0.47059,,0,68,68,513,1,2c,57,1,4,
,,,,,,,,,,,,,,,,,,,,,,,,,,images/exp1b_trial_76_colour1_distractors1_r.png,r,2,029,001,2021-04-23_20h26.13.910,searchDisc4,2020.2.10,Win32,60,,,space,2.442455,2,1,0.602585,,0,69,69,190,1,1b,76,1,1,
,,,,,,,,,,,,,,,,,,,,,,,,,,images/exp2a_trial_30_colour3_distractors1_l.png,l,1,029,001,2021-04-23_20h26.13.910,searchDisc4,2020.2.10,Win32,60,,,space,2.377265,1,1,0.612935,,0,70,70,258,1,2a,30,3,1,
,,,,,,,,,,,,,,,,,,,,,,,,,,images/exp2b_trial_75_colour0_distractors0_l.png,l,1,029,001,2021-04-23_20h26.13.910,searchDisc4,2020.2.10,Win32,60,,,space,1.0437,1,1,0.501105,,0,71,71,417,1,2b,75,0,0,
,,,,,,,,,,,,,,,,,,,,,,,,,,images/exp2b_trial_90_colour3_distractors9_r.png,r,2,029,001,2021-04-23_20h26.13.910,searchDisc4,2020.2.10,Win32,60,,,space,1.026595,1,0,0.45069,,0,72,72,432,1,2b,90,3,9,
,,,,,,,,,,,,,,,,,,,,,,,,,,images/exp1b_trial_109_colour3_distractors19_l.png,l,1,029,001,2021-04-23_20h26.13.910,searchDisc4,2020.2.10,Win32,60,,,space,1.13846,1,1,0.96256,,0,73,73,223,1,1b,109,3,19,
,,,,,,,,,,,,,,,,,,,,,,,,,,images/exp1a_trial_105_colour2_distractors43_l.png,l,1,029,001,2021-04-23_20h26.13.910,searchDisc4,2020.2.10,Win32,60,,,space,0.53832,1,1,0.527485,,0,74,74,105,1,1a,105,2,43,
,,,,,,,,,,,,,,,,,,,,,,,,,,images/exp2c_trial_86_colour2_distractors31_r.png,r,2,029,001,2021-04-23_20h26.13.910,searchDisc4,2020.2.10,Win32,60,,,space,0.417705,2,1,0.61596,,0,75,75,542,1,2c,86,2,31,
,,,,,,,,,,,,,,,,,,,,,,,,,,images/exp1b_trial_110_colour3_distractors31_l.png,l,1,029,001,2021-04-23_20h26.13.910,searchDisc4,2020.2.10,Win32,60,,,space,0.39102,1,1,2.58411,,0,76,76,224,1,1b,110,3,31,
,,,,,,,,,,,,,,,,,,,,,,,,,,images/exp1b_trial_65_colour2_distractors19_l.png,l,1,029,001,2021-04-23_20h26.13.910,searchDisc4,2020.2.10,Win32,60,,,space,0.37669,1,1,0.564165,,0,77,77,179,1,1b,65,2,19,
,,,,,,,,,,,,,,,,,,,,,,,,,,images/exp2c_trial_78_colour1_distractors9_r.png,r,2,029,001,2021-04-23_20h26.13.910,searchDisc4,2020.2.10,Win32,60,,,space,0.310965,2,1,0.746455,,0,78,78,534,1,2c,78,1,9,
,,,,,,,,,,,,,,,,,,,,,,,,,,images/exp2a_trial_87_colour2_distractors43_r.png,r,2,029,001,2021-04-23_20h26.13.910,searchDisc4,2020.2.10,Win32,60,,,space,0.273615,2,1,0.5892,,0,79,79,315,1,2a,87,2,43,
,,,,,,,,,,,,,,,,,,,,,,,,,,images/exp2c_trial_43_colour1_distractors43_r.png,r,2,029,001,2021-04-23_20h26.13.910,searchDisc4,2020.2.10,Win32,60,,,space,0.284195,2,1,0.634825,,0,80,80,499,1,2c,43,1,43,
,,,,,,,,,,,,,,,,,,,,,,,,,,images/exp2a_trial_36_colour0_distractors0_r.png,r,2,029,001,2021-04-23_20h26.13.910,searchDisc4,2020.2.10,Win32,60,,,space,0.307395,2,1,0.52726,,0,81,81,264,1,2a,36,0,0,
,,,,,,,,,,,,,,,,,,,,,,,,,,images/exp2c_trial_16_colour3_distractors31_r.png,r,2,029,001,2021-04-23_20h26.13.910,searchDisc4,2020.2.10,Win32,60,,,space,0.315375,2,1,0.553535,,0,82,82,472,1,2c,16,3,31,
,,,,,,,,,,,,,,,,,,,,,,,,,,images/exp1a_trial_63_colour2_distractors4_l.png,l,1,029,001,2021-04-23_20h26.13.910,searchDisc4,2020.2.10,Win32,60,,,space,0.297615,1,1,0.64654,,0,83,83,63,1,1a,63,2,4,
,,,,,,,,,,,,,,,,,,,,,,,,,,images/exp2b_trial_23_colour1_distractors43_l.png,l,1,029,001,2021-04-23_20h26.13.910,searchDisc4,2020.2.10,Win32,60,,,space,0.326085,1,1,0.61089,,0,84,84,365,1,2b,23,1,43,
,,,,,,,,,,,,,,,,,,,,,,,,,,images/exp1a_trial_74_colour0_distractors0_r.png,r,2,029,001,2021-04-23_20h26.13.910,searchDisc4,2020.2.10,Win32,60,,,space,0.41191,2,1,0.79386,,0,85,85,74,1,1a,74,0,0,
,,,,,,,,,,,,,,,,,,,,,,,,,,images/exp2a_trial_49_colour2_distractors43_r.png,r,2,029,001,2021-04-23_20h26.13.910,searchDisc4,2020.2.10,Win32,60,,,space,0.36735,2,1,0.578165,,0,86,86,277,1,2a,49,2,43,
,,,,,,,,,,,,,,,,,,,,,,,,,,images/exp2b_trial_31_colour3_distractors4_l.png,l,1,029,001,2021-04-23_20h26.13.910,searchDisc4,2020.2.10,Win32,60,,,space,0.28666,1,1,0.647545,,0,87,87,373,1,2b,31,3,4,
,,,,,,,,,,,,,,,,,,,,,,,,,,images/exp1a_trial_112_colour0_distractors0_r.png,r,2,029,001,2021-04-23_20h26.13.910,searchDisc4,2020.2.10,Win32,60,,,space,0.33354,2,1,0.595995,,0,88,88,112,1,1a,112,0,0,
,,,,,,,,,,,,,,,,,,,,,,,,,,images/exp1b_trial_67_colour2_distractors43_l.png,l,1,029,001,2021-04-23_20h26.13.910,searchDisc4,2020.2.10,Win32,60,,,space,0.85234,1,1,0.99493,,0,89,89,181,1,1b,67,2,43,
,,,,,,,,,,,,,,,,,,,,,,,,,,images/exp2c_trial_67_colour2_distractors43_l.png,l,1,029,001,2021-04-23_20h26.13.910,searchDisc4,2020.2.10,Win32,60,,,space,0.37429,1,1,0.650305,,0,90,90,523,1,2c,67,2,43,
,,,,,,,,,,,,,,,,,,,,,,,,,,images/exp2c_trial_74_colour0_distractors0_r.png,r,2,029,001,2021-04-23_20h26.13.910,searchDisc4,2020.2.10,Win32,60,,,space,0.251145,2,1,0.90497,,0,91,91,530,1,2c,74,0,0,
,,,,,,,,,,,,,,,,,,,,,,,,,,images/exp1b_trial_94_colour1_distractors1_l.png,l,1,029,001,2021-04-23_20h26.13.910,searchDisc4,2020.2.10,Win32,60,,,space,1.91243,1,1,0.541005,,0,92,92,208,1,1b,94,1,1,
,,,,,,,,,,,,,,,,,,,,,,,,,,images/exp2a_trial_54_colour3_distractors31_r.png,r,2,029,001,2021-04-23_20h26.13.910,searchDisc4,2020.2.10,Win32,60,,,space,0.68065,2,1,0.564625,,0,93,93,282,1,2a,54,3,31,
,,,,,,,,,,,,,,,,,,,,,,,,,,images/exp1a_trial_99_colour1_distractors43_l.png,l,1,029,001,2021-04-23_20h26.13.910,searchDisc4,2020.2.10,Win32,60,,,space,0.974655,1,1,0.6526,,0,94,94,99,1,1a,99,1,43,
,,,,,,,,,,,,,,,,,,,,,,,,,,images/exp2c_trial_80_colour1_distractors31_r.png,r,2,029,001,2021-04-23_20h26.13.910,searchDisc4,2020.2.10,Win32,60,,,space,0.603825,2,1,0.656275,,0,95,95,536,1,2c,80,1,31,
,,,,,,,,,,,,,,,,,,,,,,,,,,images/exp1a_trial_91_colour3_distractors19_r.png,r,2,029,001,2021-04-23_20h26.13.910,searchDisc4,2020.2.10,Win32,60,,,space,0.52386,2,1,0.609425,,0,96,96,91,1,1a,91,3,19,
,,,,,,,,,,,,,,,,,,,,,,,,,,images/exp2a_trial_72_colour3_distractors31_l.png,l,1,029,001,2021-04-23_20h26.13.910,searchDisc4,2020.2.10,Win32,60,,,space,0.3292,1,1,0.695905,,0,97,97,300,1,2a,72,3,31,
,,,,,,,,,,,,,,,,,,,,,,,,,,images/exp2c_trial_50_colour3_distractors1_r.png,r,2,029,001,2021-04-23_20h26.13.910,searchDisc4,2020.2.10,Win32,60,,,space,0.71057,2,1,0.579325,,0,98,98,506,1,2c,50,3,1,
,,,,,,,,,,,,,,,,,,,,,,,,,,images/exp1b_trial_97_colour1_distractors19_l.png,l,1,029,001,2021-04-23_20h26.13.910,searchDisc4,2020.2.10,Win32,60,,,space,0.36702,1,1,0.5569,,0,99,99,211,1,1b,97,1,19,
,,,,,,,,,,,,,,,,,,,,,,,,,,images/exp2c_trial_104_colour2_distractors31_l.png,l,1,029,001,2021-04-23_20h26.13.910,searchDisc4,2020.2.10,Win32,60,,,space,0.319265,1,1,0.59358,,0,100,100,560,1,2c,104,2,31,
,,,,,,,,,,,,,,,,,,,,,,,,,,images/exp2c_trial_56_colour1_distractors1_l.png,l,1,029,001,2021-04-23_20h26.13.910,searchDisc4,2020.2.10,Win32,60,,,space,0.235825,1,1,0.52999,,0,101,101,512,1,2c,56,1,1,
,,,,,,,,,,,,,,,,,,,,,,,,,,images/exp1b_trial_77_colour1_distractors4_r.png,r,2,029,001,2021-04-23_20h26.13.910,searchDisc4,2020.2.10,Win32,60,,,space,2.034685,2,1,0.710535,,0,102,102,191,1,1b,77,1,4,
,,,,,,,,,,,,,,,,,,,,,,,,,,images/exp2b_trial_98_colour1_distractors31_l.png,l,1,029,001,2021-04-23_20h26.13.910,searchDisc4,2020.2.10,Win32,60,,,space,0.459695,1,1,0.77153,,0,103,103,440,1,2b,98,1,31,
,,,,,,,,,,,,,,,,,,,,,,,,,,images/exp2a_trial_44_colour2_distractors1_r.png,r,2,029,001,2021-04-23_20h26.13.910,searchDisc4,2020.2.10,Win32,60,,,space,0.368985,2,1,0.74627,,0,104,104,272,1,2a,44,2,1,
,,,,,,,,,,,,,,,,,,,,,,,,,,images/exp1a_trial_71_colour3_distractors19_l.png,l,1,029,001,2021-04-23_20h26.13.910,searchDisc4,2020.2.10,Win32,60,,,space,0.457845,1,1,0.653605,,0,105,105,71,1,1a,71,3,19,
,,,,,,,,,,,,,,,,,,,,,,,,,,images/exp2c_trial_59_colour1_distractors19_l.png,l,1,029,001,2021-04-23_20h26.13.910,searchDisc4,2020.2.10,Win32,60,,,space,0.56845,1,1,0.71171,,0,106,106,515,1,2c,59,1,19,
,,,,,,,,,,,,,,,,,,,,,,,,,,images/exp1a_trial_23_colour1_distractors43_l.png,l,1,029,001,2021-04-23_20h26.13.910,searchDisc4,2020.2.10,Win32,60,,,space,0.370915,1,1,0.67339,,0,107,107,23,1,1a,23,1,43,
,,,,,,,,,,,,,,,,,,,,,,,,,,images/exp2b_trial_94_colour1_distractors1_l.png,l,1,029,001,2021-04-23_20h26.13.910,searchDisc4,2020.2.10,Win32,60,,,space,0.305335,1,1,0.634035,,0,108,108,436,1,2b,94,1,1,
,,,,,,,,,,,,,,,,,,,,,,,,,,images/exp2b_trial_103_colour2_distractors19_l.png,l,1,029,001,2021-04-23_20h26.13.910,searchDisc4,2020.2.10,Win32,60,,,space,0.264195,1,1,0.4686,,0,109,109,445,1,2b,103,2,19,
,,,,,,,,,,,,,,,,,,,,,,,,,,images/exp1a_trial_70_colour3_distractors9_l.png,l,1,029,001,2021-04-23_20h26.13.910,searchDisc4,2020.2.10,Win32,60,,,space,1.075495,1,1,0.73792,,0,110,110,70,1,1a,70,3,9,
,,,,,,,,,,,,,,,,,,,,,,,,,,images/exp1b_trial_52_colour3_distractors9_r.png,r,2,029,001,2021-04-23_20h26.13.910,searchDisc4,2020.2.10,Win32,60,,,space,0.37355,2,1,0.882525,,0,111,111,166,1,1b,52,3,9,
,,,,,,,,,,,,,,,,,,,,,,,,,,images/exp2b_trial_99_colour1_distractors43_l.png,l,1,029,001,2021-04-23_20h26.13.910,searchDisc4,2020.2.10,Win32,60,,,space,0.336725,1,1,0.727865,,0,112,112,441,1,2b,99,1,43,
,,,,,,,,,,,,,,,,,,,,,,,,,,images/exp2b_trial_37_colour0_distractors0_l.png,l,1,029,001,2021-04-23_20h26.13.910,searchDisc4,2020.2.10,Win32,60,,,space,0.319945,1,1,0.562805,,0,113,113,379,1,2b,37,0,0,
,,,,,,,,,,,,,,,,,,,,,,,,,,images/exp1b_trial_111_colour3_distractors43_l.png,l,1,029,001,2021-04-23_20h26.13.910,searchDisc4,2020.2.10,Win32,60,,,space,0.315555,1,1,1.05541,,0,114,114,225,1,1b,111,3,43,
,,,,,,,,,,,,,,,,,,,,,,,,,,images/exp1b_trial_96_colour1_distractors9_l.png,l,1,029,001,2021-04-23_20h26.13.910,searchDisc4,2020.2.10,Win32,60,,,space,0.921655,1,1,0.67799,,0,115,115,210,1,1b,96,1,9,
,,,,,,,,,,,,,,,,,,,,,,,,,,images/exp2c_trial_7_colour2_distractors4_r.png,r,2,029,001,2021-04-23_20h26.13.910,searchDisc4,2020.2.10,Win32,60,,,space,0.428275,2,1,0.57345,,0,116,116,463,1,2c,7,2,4,
,,,,,,,,,,,,,,,,,,,,,,,,,,images/exp2c_trial_28_colour2_distractors31_l.png,l,1,029,001,2021-04-23_20h26.13.910,searchDisc4,2020.2.10,Win32,60,,,space,0.418935,1,1,0.728085,,0,117,117,484,1,2c,28,2,31,
,,,,,,,,,,,,,,,,,,,,,,,,,,images/exp1a_trial_35_colour3_distractors43_l.png,l,1,029,001,2021-04-23_20h26.13.910,searchDisc4,2020.2.10,Win32,60,,,space,1.03783,1,1,0.73809,,0,118,118,35,1,1a,35,3,43,
,,,,,,,,,,,,,,,,,,,,,,,,,,images/exp1a_trial_107_colour3_distractors4_l.png,l,1,029,001,2021-04-23_20h26.13.910,searchDisc4,2020.2.10,Win32,60,,,space,0.426755,1,1,0.415275,space,0,119,119,107,1,1a,107,3,4,8.239985
,,,,,,,,,,,,,,,,,,,,,,,,,,images/exp1b_trial_48_colour2_distractors31_r.png,r,2,029,001,2021-04-23_20h26.13.910,searchDisc4,2020.2.10,Win32,60,,,space,0.929285,2,1,0.58834,,0,120,120,162,1,1b,48,2,31,
,,,,,,,,,,,,,,,,,,,,,,,,,,images/exp2b_trial_56_colour1_distractors1_l.png,l,1,029,001,2021-04-23_20h26.13.910,searchDisc4,2020.2.10,Win32,60,,,space,1.10659,1,1,0.42162,,0,121,121,398,1,2b,56,1,1,
,,,,,,,,,,,,,,,,,,,,,,,,,,images/exp2c_trial_112_colour0_distractors0_r.png,r,2,029,001,2021-04-23_20h26.13.910,searchDisc4,2020.2.10,Win32,60,,,space,1.03729,2,1,0.43377,,0,122,122,568,1,2c,112,0,0,
,,,,,,,,,,,,,,,,,,,,,,,,,,images/exp1a_trial_30_colour3_distractors1_l.png,l,1,029,001,2021-04-23_20h26.13.910,searchDisc4,2020.2.10,Win32,60,,,space,1.158545,1,1,0.547555,,0,123,123,30,1,1a,30,3,1,
,,,,,,,,,,,,,,,,,,,,,,,,,,images/exp2a_trial_95_colour1_distractors4_l.png,l,1,029,001,2021-04-23_20h26.13.910,searchDisc4,2020.2.10,Win32,60,,,space,1.26124,1,1,0.52463,,0,124,124,323,1,2a,95,1,4,
,,,,,,,,,,,,,,,,,,,,,,,,,,images/exp2b_trial_27_colour2_distractors19_l.png,l,1,029,001,2021-04-23_20h26.13.910,searchDisc4,2020.2.10,Win32,60,,,space,0.87125,1,1,0.532445,,0,125,125,369,1,2b,27,2,19,
,,,,,,,,,,,,,,,,,,,,,,,,,,images/exp2a_trial_31_colour3_distractors4_l.png,l,1,029,001,2021-04-23_20h26.13.910,searchDisc4,2020.2.10,Win32,60,,,space,0.645125,1,1,0.55057,,0,126,126,259,1,2a,31,3,4,
,,,,,,,,,,,,,,,,,,,,,,,,,,images/exp1a_trial_45_colour2_distractors4_r.png,r,2,029,001,2021-04-23_20h26.13.910,searchDisc4,2020.2.10,Win32,60,,,space,0.410215,2,1,0.595555,,0,127,127,45,1,1a,45,2,4,
,,,,,,,,,,,,,,,,,,,,,,,,,,images/exp2c_trial_99_colour1_distractors43_l.png,l,1,029,001,2021-04-23_20h26.13.910,searchDisc4,2020.2.10,Win32,60,,,space,0.820125,1,1,0.51833,,0,128,128,555,1,2c,99,1,43,
,,,,,,,,,,,,,,,,,,,,,,,,,,images/exp2c_trial_47_colour2_distractors19_r.png,r,2,029,001,2021-04-23_20h26.13.910,searchDisc4,2020.2.10,Win32,60,,,space,0.539105,2,1,0.736645,,0,129,129,503,1,2c,47,2,19,
,,,,,,,,,,,,,,,,,,,,,,,,,,images/exp2c_trial_17_colour3_distractors43_r.png,r,2,029,001,2021-04-23_20h26.13.910,searchDisc4,2020.2.10,Win32,60,,,space,0.474845,2,1,0.68777,,0,130,130,473,1,2c,17,3,43,
,,,,,,,,,,,,,,,,,,,,,,,,,,images/exp2a_trial_106_colour3_distractors1_l.png,l,1,029,001,2021-04-23_20h26.13.910,searchDisc4,2020.2.10,Win32,60,,,space,0.367955,1,1,0.46845,,0,131,131,334,1,2a,106,3,1,
,,,,,,,,,,,,,,,,,,,,,,,,,,images/exp1b_trial_40_colour1_distractors9_r.png,r,2,029,001,2021-04-23_20h26.13.910,searchDisc4,2020.2.10,Win32,60,,,space,0.572555,2,1,0.63307,,0,132,132,154,1,1b,40,1,9,
,,,,,,,,,,,,,,,,,,,,,,,,,,images/exp1a_trial_69_colour3_distractors4_l.png,l,1,029,001,2021-04-23_20h26.13.910,searchDisc4,2020.2.10,Win32,60,,,space,0.820385,1,1,0.39605,,0,133,133,69,1,1a,69,3,4,
,,,,,,,,,,,,,,,,,,,,,,,,,,images/exp1b_trial_16_colour3_distractors31_r.png,r,2,029,001,2021-04-23_20h26.13.910,searchDisc4,2020.2.10,Win32,60,,,space,0.46141,2,1,1.79898,,0,134,134,130,1,1b,16,3,31,
,,,,,,,,,,,,,,,,,,,,,,,,,,images/exp2c_trial_108_colour3_distractors9_l.png,l,1,029,001,2021-04-23_20h26.13.910,searchDisc4,2020.2.10,Win32,60,,,space,0.50168,1,1,0.753555,,0,135,135,564,1,2c,108,3,9,
,,,,,,,,,,,,,,,,,,,,,,,,,,images/exp1a_trial_82_colour2_distractors1_r.png,r,2,029,001,2021-04-23_20h26.13.910,searchDisc4,2020.2.10,Win32,60,,,space,0.335355,2,1,0.41524,,0,136,136,82,1,1a,82,2,1,
,,,,,,,,,,,,,,,,,,,,,,,,,,images/exp2c_trial_61_colour1_distractors43_l.png,l,1,029,001,2021-04-23_20h26.13.910,searchDisc4,2020.2.10,Win32,60,,,space,0.33412,1,1,0.652385,,0,137,137,517,1,2c,61,1,43,
,,,,,,,,,,,,,,,,,,,,,,,,,,images/exp1a_trial_34_colour3_distractors31_l.png,l,1,029,001,2021-04-23_20h26.13.910,searchDisc4,2020.2.10,Win32,60,,,space,0.42646,1,1,0.84591,,0,138,138,34,1,1a,34,3,31,
,,,,,,,,,,,,,,,,,,,,,,,,,,images/exp2b_trial_51_colour3_distractors4_r.png,r,2,029,001,2021-04-23_20h26.13.910,searchDisc4,2020.2.10,Win32,60,,,space,0.58071,2,1,0.553525,,0,139,139,393,1,2b,51,3,4,
,,,,,,,,,,,,,,,,,,,,,,,,,,images/exp2c_trial_98_colour1_distractors31_l.png,l,1,029,001,2021-04-23_20h26.13.910,searchDisc4,2020.2.10,Win32,60,,,space,0.517735,1,1,0.49568,,0,140,140,554,1,2c,98,1,31,
,,,,,,,,,,,,,,,,,,,,,,,,,,images/exp2a_trial_8_colour2_distractors9_r.png,r,2,029,001,2021-04-23_20h26.13.910,searchDisc4,2020.2.10,Win32,60,,,space,0.456545,2,1,0.589585,,0,141,141,236,1,2a,8,2,9,
,,,,,,,,,,,,,,,,,,,,,,,,,,images/exp1a_trial_11_colour2_distractors43_r.png,r,2,029,001,2021-04-23_20h26.13.910,searchDisc4,2020.2.10,Win32,60,,,space,0.70564,2,1,0.566485,,0,142,142,11,1,1a,11,2,43,
,,,,,,,,,,,,,,,,,,,,,,,,,,images/exp2c_trial_111_colour3_distractors43_l.png,l,1,029,001,2021-04-23_20h26.13.910,searchDisc4,2020.2.10,Win32,60,,,space,1.04015,1,1,0.653345,,0,143,143,567,1,2c,111,3,43,
,,,,,,,,,,,,,,,,,,,,,,,,,,images/exp2b_trial_84_colour2_distractors9_r.png,r,2,029,001,2021-04-23_20h26.13.910,searchDisc4,2020.2.10,Win32,60,,,space,0.528235,2,1,0.56227,,0,144,144,426,1,2b,84,2,9,
,,,,,,,,,,,,,,,,,,,,,,,,,,images/exp1a_trial_15_colour3_distractors19_r.png,r,2,029,001,2021-04-23_20h26.13.910,searchDisc4,2020.2.10,Win32,60,,,space,0.41014,1,0,0.432055,,0,145,145,15,1,1a,15,3,19,
,,,,,,,,,,,,,,,,,,,,,,,,,,images/exp2b_trial_70_colour3_distractors9_l.png,l,1,029,001,2021-04-23_20h26.13.910,searchDisc4,2020.2.10,Win32,60,,,space,1.052545,1,1,0.60986,,0,146,146,412,1,2b,70,3,9,
,,,,,,,,,,,,,,,,,,,,,,,,,,images/exp2b_trial_40_colour1_distractors9_r.png,r,2,029,001,2021-04-23_20h26.13.910,searchDisc4,2020.2.10,Win32,60,,,space,0.40012,2,1,0.822665,,0,147,147,382,1,2b,40,1,9,
,,,,,,,,,,,,,,,,,,,,,,,,,,images/exp1a_trial_25_colour2_distractors4_l.png,l,1,029,001,2021-04-23_20h26.13.910,searchDisc4,2020.2.10,Win32,60,,,space,0.63343,1,1,0.59965,,0,148,148,25,1,1a,25,2,4,
,,,,,,,,,,,,,,,,,,,,,,,,,,images/exp1a_trial_55_colour3_distractors43_r.png,r,2,029,001,2021-04-23_20h26.13.910,searchDisc4,2020.2.10,Win32,60,,,space,0.74145,2,1,0.658115,,0,149,149,55,1,1a,55,3,43,
,,,,,,,,,,,,,,,,,,,,,,,,,,images/exp2a_trial_68_colour3_distractors1_l.png,l,1,029,001,2021-04-23_20h26.13.910,searchDisc4,2020.2.10,Win32,60,,,space,0.67174,1,1,0.54463,,0,150,150,296,1,2a,68,3,1,
,,,,,,,,,,,,,,,,,,,,,,,,,,images/exp1b_trial_11_colour2_distractors43_r.png,r,2,029,001,2021-04-23_20h26.13.910,searchDisc4,2020.2.10,Win32,60,,,space,0.506735,2,1,0.815105,,0,151,151,125,1,1b,11,2,43,
,,,,,,,,,,,,,,,,,,,,,,,,,,images/exp2b_trial_55_colour3_distractors43_r.png,r,2,029,001,2021-04-23_20h26.13.910,searchDisc4,2020.2.10,Win32,60,,,space,0.52347,2,1,0.47457,,0,152,152,397,1,2b,55,3,43,
,,,,,,,,,,,,,,,,,,,,,,,,,,images/exp2a_trial_47_colour2_distractors19_r.png,r,2,029,001,2021-04-23_20h26.13.910,searchDisc4,2020.2.10,Win32,60,,,space,0.81768,2,1,0.628915,,0,153,153,275,1,2a,47,2,19,
,,,,,,,,,,,,,,,,,,,,,,,,,,images/exp2b_trial_79_colour1_distractors19_r.png,r,2,029,001,2021-04-23_20h26.13.910,searchDisc4,2020.2.10,Win32,60,,,space,0.496325,2,1,0.469035,,0,154,154,421,1,2b,79,1,19,
,,,,,,,,,,,,,,,,,,,,,,,,,,images/exp2b_trial_89_colour3_distractors4_r.png,r,2,029,001,2021-04-23_20h26.13.910,searchDisc4,2020.2.10,Win32,60,,,space,0.920065,2,1,0.452665,,0,155,155,431,1,2b,89,3,4,
,,,,,,,,,,,,,,,,,,,,,,,,,,images/exp2b_trial_35_colour3_distractors43_l.png,l,1,029,001,2021-04-23_20h26.13.910,searchDisc4,2020.2.10,Win32,60,,,space,0.39557,1,1,0.518945,,0,156,156,377,1,2b,35,3,43,
,,,,,,,,,,,,,,,,,,,,,,,,,,images/exp2b_trial_54_colour3_distractors31_r.png,r,2,029,001,2021-04-23_20h26.13.910,searchDisc4,2020.2.10,Win32,60,,,space,1.006665,2,1,0.514405,,0,157,157,396,1,2b,54,3,31,
,,,,,,,,,,,,,,,,,,,,,,,,,,images/exp1a_trial_106_colour3_distractors1_l.png,l,1,029,001,2021-04-23_20h26.13.910,searchDisc4,2020.2.10,Win32,60,,,space,0.751005,1,1,0.5395,,0,158,158,106,1,1a,106,3,1,
,,,,,,,,,,,,,,,,,,,,,,,,,,images/exp1b_trial_66_colour2_distractors31_l.png,l,1,029,001,2021-04-23_20h26.13.910,searchDisc4,2020.2.10,Win32,60,,,space,1.733425,1,1,0.80442,,0,159,159,180,1,1b,66,2,31,
,,,,,,,,,,,,,,,,,,,,,,,,,,images/exp2b_trial_52_colour3_distractors9_r.png,r,2,029,001,2021-04-23_20h26.13.910,searchDisc4,2020.2.10,Win32,60,,,space,1.393555,2,1,0.560285,,0,160,160,394,1,2b,52,3,9,
,,,,,,,,,,,,,,,,,,,,,,,,,,images/exp1a_trial_4_colour1_distractors31_r.png,r,2,029,001,2021-04-23_20h26.13.910,searchDisc4,2020.2.10,Win32,60,,,space,0.81746,2,1,0.60355,,0,161,161,4,1,1a,4,1,31,
,,,,,,,,,,,,,,,,,,,,,,,,,,images/exp2a_trial_18_colour1_distractors1_l.png,l,1,029,001,2021-04-23_20h26.13.910,searchDisc4,2020.2.10,Win32,60,,,space,0.474235,1,1,0.685645,,0,162,162,246,1,2a,18,1,1,
,,,,,,,,,,,,,,,,,,,,,,,,,,images/exp2b_trial_113_colour0_distractors0_l.png,l,1,029,001,2021-04-23_20h26.13.910,searchDisc4,2020.2.10,Win32,60,,,space,0.472755,1,1,0.493635,,0,163,163,455,1,2b,113,0,0,
,,,,,,,,,,,,,,,,,,,,,,,,,,images/exp1b_trial_54_colour3_distractors31_r.png,r,2,029,001,2021-04-23_20h26.13.910,searchDisc4,2020.2.10,Win32,60,,,space,0.494025,2,1,0.98939,,0,164,164,168,1,1b,54,3,31,
,,,,,,,,,,,,,,,,,,,,,,,,,,images/exp2c_trial_11_colour2_distractors43_r.png,r,2,029,001,2021-04-23_20h26.13.910,searchDisc4,2020.2.10,Win32,60,,,space,0.70413,2,1,0.555585,,0,165,165,467,1,2c,11,2,43,
,,,,,,,,,,,,,,,,,,,,,,,,,,images/exp1a_trial_18_colour1_distractors1_l.png,l,1,029,001,2021-04-23_20h26.13.910,searchDisc4,2020.2.10,Win32,60,,,space,0.53092,1,1,0.74047,,0,166,166,18,1,1a,18,1,1,
,,,,,,,,,,,,,,,,,,,,,,,,,,images/exp2c_trial_83_colour2_distractors4_r.png,r,2,029,001,2021-04-23_20h26.13.910,searchDisc4,2020.2.10,Win32,60,,,space,0.49471,2,1,0.515395,,0,167,167,539,1,2c,83,2,4,
,,,,,,,,,,,,,,,,,,,,,,,,,,images/exp1b_trial_2_colour1_distractors9_r.png,r,2,029,001,2021-04-23_20h26.13.910,searchDisc4,2020.2.10,Win32,60,,,space,0.43945,2,1,1.31367,,0,168,168,116,1,1b,2,1,9,
,,,,,,,,,,,,,,,,,,,,,,,,,,images/exp2a_trial_65_colour2_distractors19_l.png,l,1,029,001,2021-04-23_20h26.13.910,searchDisc4,2020.2.10,Win32,60,,,space,0.82113,1,1,0.636755,,0,169,169,293,1,2a,65,2,19,
,,,,,,,,,,,,,,,,,,,,,,,,,,images/exp2c_trial_22_colour1_distractors31_l.png,l,1,029,001,2021-04-23_20h26.13.910,searchDisc4,2020.2.10,Win32,60,,,space,0.46894,1,1,1.12387,,0,170,170,478,1,2c,22,1,31,
,,,,,,,,,,,,,,,,,,,,,,,,,,images/exp1b_trial_7_colour2_distractors4_r.png,r,2,029,001,2021-04-23_20h26.13.910,searchDisc4,2020.2.10,Win32,60,,,space,0.732805,2,1,0.75668,,0,171,171,121,1,1b,7,2,4,
,,,,,,,,,,,,,,,,,,,,,,,,,,images/exp1a_trial_96_colour1_distractors9_l.png,l,1,029,001,2021-04-23_20h26.13.910,searchDisc4,2020.2.10,Win32,60,,,space,1.82076,1,1,0.81664,,0,172,172,96,1,1a,96,1,9,
,,,,,,,,,,,,,,,,,,,,,,,,,,images/exp1b_trial_22_colour1_distractors31_l.png,l,1,029,001,2021-04-23_20h26.13.910,searchDisc4,2020.2.10,Win32,60,,,space,0.85351,1,1,0.730345,,0,173,173,136,1,1b,22,1,31,
,,,,,,,,,,,,,,,,,,,,,,,,,,images/exp2a_trial_91_colour3_distractors19_r.png,r,2,029,001,2021-04-23_20h26.13.910,searchDisc4,2020.2.10,Win32,60,,,space,1.551035,2,1,0.8018,,0,174,174,319,1,2a,91,3,19,
,,,,,,,,,,,,,,,,,,,,,,,,,,images/exp2c_trial_105_colour2_distractors43_l.png,l,1,029,001,2021-04-23_20h26.13.910,searchDisc4,2020.2.10,Win32,60,,,space,0.84136,1,1,0.894125,,0,175,175,561,1,2c,105,2,43,
,,,,,,,,,,,,,,,,,,,,,,,,,,images/exp1b_trial_26_colour2_distractors9_l.png,l,1,029,001,2021-04-23_20h26.13.910,searchDisc4,2020.2.10,Win32,60,,,space,1.269335,1,1,0.652405,,0,176,176,140,1,1b,26,2,9,
,,,,,,,,,,,,,,,,,,,,,,,,,,images/exp2a_trial_37_colour0_distractors0_l.png,l,1,029,001,2021-04-23_20h26.13.910,searchDisc4,2020.2.10,Win32,60,,,space,0.594625,1,1,0.52731,,0,177,177,265,1,2a,37,0,0,
,,,,,,,,,,,,,,,,,,,,,,,,,,images/exp1b_trial_46_colour2_distractors9_r.png,r,2,029,001,2021-04-23_20h26.13.910,searchDisc4,2020.2.10,Win32,60,,,space,1.06928,2,1,0.62366,,0,178,178,160,1,1b,46,2,9,
,,,,,,,,,,,,,,,,,,,,,,,,,,images/exp1a_trial_37_colour0_distractors0_l.png,l,1,029,001,2021-04-23_20h26.13.910,searchDisc4,2020.2.10,Win32,60,,,space,0.698255,1,1,0.51593,space,0,179,179,37,1,1a,37,0,0,7.964445
,,,,,,,,,,,,,,,,,,,,,,,,,,images/exp2b_trial_102_colour2_distractors9_l.png,l,1,029,001,2021-04-23_20h26.13.910,searchDisc4,2020.2.10,Win32,60,,,space,1.450425,1,1,0.81161,,0,180,180,444,1,2b,102,2,9,
,,,,,,,,,,,,,,,,,,,,,,,,,,images/exp2c_trial_39_colour1_distractors4_r.png,r,2,029,001,2021-04-23_20h26.13.910,searchDisc4,2020.2.10,Win32,60,,,space,0.39695,2,1,0.49734,,0,181,181,495,1,2c,39,1,4,
,,,,,,,,,,,,,,,,,,,,,,,,,,images/exp1a_trial_58_colour1_distractors9_l.png,l,1,029,001,2021-04-23_20h26.13.910,searchDisc4,2020.2.10,Win32,60,,,space,0.36071,1,1,0.531525,,0,182,182,58,1,1a,58,1,9,
,,,,,,,,,,,,,,,,,,,,,,,,,,images/exp1b_trial_23_colour1_distractors43_l.png,l,1,029,001,2021-04-23_20h26.13.910,searchDisc4,2020.2.10,Win32,60,,,space,0.367235,1,1,0.53236,,0,183,183,137,1,1b,23,1,43,
,,,,,,,,,,,,,,,,,,,,,,,,,,images/exp2a_trial_74_colour0_distractors0_r.png,r,2,029,001,2021-04-23_20h26.13.910,searchDisc4,2020.2.10,Win32,60,,,space,0.366615,2,1,0.58171,,0,184,184,302,1,2a,74,0,0,
,,,,,,,,,,,,,,,,,,,,,,,,,,images/exp2c_trial_94_colour1_distractors1_l.png,l,1,029,001,2021-04-23_20h26.13.910,searchDisc4,2020.2.10,Win32,60,,,space,0.42136,1,1,0.523975,,0,185,185,550,1,2c,94,1,1,
,,,,,,,,,,,,,,,,,,,,,,,,,,images/exp1b_trial_93_colour3_distractors43_r.png,r,2,029,001,2021-04-23_20h26.13.910,searchDisc4,2020.2.10,Win32,60,,,space,0.338955,2,1,1.42896,,0,186,186,207,1,1b,93,3,43,
,,,,,,,,,,,,,,,,,,,,,,,,,,images/exp2a_trial_92_colour3_distractors31_r.png,r,2,029,001,2021-04-23_20h26.13.910,searchDisc4,2020.2.10,Win32,60,,,space,0.32165,2,1,0.69482,,0,187,187,320,1,2a,92,3,31,
,,,,,,,,,,,,,,,,,,,,,,,,,,images/exp1b_trial_63_colour2_distractors4_l.png,l,1,029,001,2021-04-23_20h26.13.910,searchDisc4,2020.2.10,Win32,60,,,space,0.388105,1,1,0.680835,,0,188,188,177,1,1b,63,2,4,
,,,,,,,,,,,,,,,,,,,,,,,,,,images/exp2c_trial_81_colour1_distractors43_r.png,r,2,029,001,2021-04-23_20h26.13.910,searchDisc4,2020.2.10,Win32,60,,,space,0.49393,2,1,0.452025,,0,189,189,537,1,2c,81,1,43,
,,,,,,,,,,,,,,,,,,,,,,,,,,images/exp1a_trial_38_colour1_distractors1_r.png,r,2,029,001,2021-04-23_20h26.13.910,searchDisc4,2020.2.10,Win32,60,,,space,0.524625,2,1,0.89675,,0,190,190,38,1,1a,38,1,1,
,,,,,,,,,,,,,,,,,,,,,,,,,,images/exp2a_trial_107_colour3_distractors4_l.png,l,1,029,001,2021-04-23_20h26.13.910,searchDisc4,2020.2.10,Win32,60,,,space,0.949985,1,1,0.54531,,0,191,191,335,1,2a,107,3,4,
,,,,,,,,,,,,,,,,,,,,,,,,,,images/exp1a_trial_56_colour1_distractors1_l.png,l,1,029,001,2021-04-23_20h26.13.910,searchDisc4,2020.2.10,Win32,60,,,space,0.47016,1,1,0.64741,,0,192,192,56,1,1a,56,1,1,
,,,,,,,,,,,,,,,,,,,,,,,,,,images/exp2c_trial_18_colour1_distractors1_l.png,l,1,029,001,2021-04-23_20h26.13.910,searchDisc4,2020.2.10,Win32,60,,,space,0.389985,1,1,0.47152,,0,193,193,474,1,2c,18,1,1,
,,,,,,,,,,,,,,,,,,,,,,,,,,images/exp1b_trial_28_colour2_distractors31_l.png,l,1,029,001,2021-04-23_20h26.13.910,searchDisc4,2020.2.10,Win32,60,,,space,0.34315,1,1,0.562555,,0,194,194,142,1,1b,28,2,31,
,,,,,,,,,,,,,,,,,,,,,,,,,,images/exp2a_trial_93_colour3_distractors43_r.png,r,2,029,001,2021-04-23_20h26.13.910,searchDisc4,2020.2.10,Win32,60,,,space,1.155735,2,1,0.59712,,0,195,195,321,1,2a,93,3,43,
,,,,,,,,,,,,,,,,,,,,,,,,,,images/exp1b_trial_100_colour2_distractors1_l.png,l,1,029,001,2021-04-23_20h26.13.910,searchDisc4,2020.2.10,Win32,60,,,space,1.39884,1,1,0.38918,,0,196,196,214,1,1b,100,2,1,
,,,,,,,,,,,,,,,,,,,,,,,,,,images/exp1b_trial_78_colour1_distractors9_r.png,r,2,029,001,2021-04-23_20h26.13.910,searchDisc4,2020.2.10,Win32,60,,,space,1.62887,2,1,0.50434,,0,197,197,192,1,1b,78,1,9,
,,,,,,,,,,,,,,,,,,,,,,,,,,images/exp2b_trial_62_colour2_distractors1_l.png,l,1,029,001,2021-04-23_20h26.13.910,searchDisc4,2020.2.10,Win32,60,,,space,1.229465,1,1,0.560185,,0,198,198,404,1,2b,62,2,1,
,,,,,,,,,,,,,,,,,,,,,,,,,,images/exp2b_trial_14_colour3_distractors9_r.png,r,2,029,001,2021-04-23_20h26.13.910,searchDisc4,2020.2.10,Win32,60,,,space,1.083115,2,1,0.469635,,0,199,199,356,1,2b,14,3,9,
,,,,,,,,,,,,,,,,,,,,,,,,,,images/exp1a_trial_68_colour3_distractors1_l.png,l,1,029,001,2021-04-23_20h26.13.910,searchDisc4,2020.2.10,Win32,60,,,space,0.84398,1,1,0.465525,,0,200,200,68,1,1a,68,3,1,
,,,,,,,,,,,,,,,,,,,,,,,,,,images/exp2c_trial_8_colour2_distractors9_r.png,r,2,029,001,2021-04-23_20h26.13.910,searchDisc4,2020.2.10,Win32,60,,,space,0.881615,2,1,0.49294,,0,201,201,464,1,2c,8,2,9,
,,,,,,,,,,,,,,,,,,,,,,,,,,images/exp2a_trial_35_colour3_distractors43_l.png,l,1,029,001,2021-04-23_20h26.13.910,searchDisc4,2020.2.10,Win32,60,,,space,0.698455,1,1,0.567735,,0,202,202,263,1,2a,35,3,43,
,,,,,,,,,,,,,,,,,,,,,,,,,,images/exp1a_trial_101_colour2_distractors4_l.png,l,1,029,001,2021-04-23_20h26.13.910,searchDisc4,2020.2.10,Win32,60,,,space,0.61643,1,1,0.445735,,0,203,203,101,1,1a,101,2,4,
,,,,,,,,,,,,,,,,,,,,,,,,,,images/exp2b_trial_66_colour2_distractors31_l.png,l,1,029,001,2021-04-23_20h26.13.910,searchDisc4,2020.2.10,Win32,60,,,space,0.889135,1,1,0.549875,,0,204,204,408,1,2b,66,2,31,
,,,,,,,,,,,,,,,,,,,,,,,,,,images/exp1a_trial_29_colour2_distractors43_l.png,l,1,029,001,2021-04-23_20h26.13.910,searchDisc4,2020.2.10,Win32,60,,,space,0.611705,1,1,0.63344,,0,205,205,29,1,1a,29,2,43,
,,,,,,,,,,,,,,,,,,,,,,,,,,images/exp2b_trial_58_colour1_distractors9_l.png,l,1,029,001,2021-04-23_20h26.13.910,searchDisc4,2020.2.10,Win32,60,,,space,0.503825,1,1,0.4741,,0,206,206,400,1,2b,58,1,9,
,,,,,,,,,,,,,,,,,,,,,,,,,,images/exp2a_trial_15_colour3_distractors19_r.png,r,2,029,001,2021-04-23_20h26.13.910,searchDisc4,2020.2.10,Win32,60,,,space,0.620115,2,1,0.445515,,0,207,207,243,1,2a,15,3,19,
,,,,,,,,,,,,,,,,,,,,,,,,,,images/exp2a_trial_26_colour2_distractors9_l.png,l,1,029,001,2021-04-23_20h26.13.910,searchDisc4,2020.2.10,Win32,60,,,space,0.653415,1,1,0.48596,,0,208,208,254,1,2a,26,2,9,
,,,,,,,,,,,,,,,,,,,,,,,,,,images/exp1b_trial_91_colour3_distractors19_r.png,r,2,029,001,2021-04-23_20h26.13.910,searchDisc4,2020.2.10,Win32,60,,,space,0.989775,2,1,0.699295,,0,209,209,205,1,1b,91,3,19,
,,,,,,,,,,,,,,,,,,,,,,,,,,images/exp2c_trial_113_colour0_distractors0_l.png,l,1,029,001,2021-04-23_20h26.13.910,searchDisc4,2020.2.10,Win32,60,,,space,0.586845,1,1,0.42119,,0,210,210,569,1,2c,113,0,0,
,,,,,,,,,,,,,,,,,,,,,,,,,,images/exp2c_trial_24_colour2_distractors1_l.png,l,1,029,001,2021-04-23_20h26.13.910,searchDisc4,2020.2.10,Win32,60,,,space,0.60188,1,1,0.378465,,0,211,211,480,1,2c,24,2,1,
,,,,,,,,,,,,,,,,,,,,,,,,,,images/exp2a_trial_90_colour3_distractors9_r.png,r,2,029,001,2021-04-23_20h26.13.910,searchDisc4,2020.2.10,Win32,60,,,space,0.615465,2,1,0.507965,,0,212,212,318,1,2a,90,3,9,
,,,,,,,,,,,,,,,,,,,,,,,,,,images/exp2c_trial_55_colour3_distractors43_r.png,r,2,029,001,2021-04-23_20h26.13.910,searchDisc4,2020.2.10,Win32,60,,,space,0.584405,2,1,0.87056,,0,213,213,511,1,2c,55,3,43,
,,,,,,,,,,,,,,,,,,,,,,,,,,images/exp2a_trial_97_colour1_distractors19_l.png,l,1,029,001,2021-04-23_20h26.13.910,searchDisc4,2020.2.10,Win32,60,,,space,0.91312,1,1,0.462495,,0,214,214,325,1,2a,97,1,19,
,,,,,,,,,,,,,,,,,,,,,,,,,,images/exp2a_trial_82_colour2_distractors1_r.png,r,2,029,001,2021-04-23_20h26.13.910,searchDisc4,2020.2.10,Win32,60,,,space,0.46943,2,1,0.73256,,0,215,215,310,1,2a,82,2,1,
,,,,,,,,,,,,,,,,,,,,,,,,,,images/exp2b_trial_41_colour1_distractors19_r.png,r,2,029,001,2021-04-23_20h26.13.910,searchDisc4,2020.2.10,Win32,60,,,space,0.9917,2,1,0.66326,,0,216,216,383,1,2b,41,1,19,
,,,,,,,,,,,,,,,,,,,,,,,,,,images/exp1b_trial_75_colour0_distractors0_l.png,l,1,029,001,2021-04-23_20h26.13.910,searchDisc4,2020.2.10,Win32,60,,,space,0.385105,1,1,0.769875,,0,217,217,189,1,1b,75,0,0,
,,,,,,,,,,,,,,,,,,,,,,,,,,images/exp2c_trial_90_colour3_distractors9_r.png,r,2,029,001,2021-04-23_20h26.13.910,searchDisc4,2020.2.10,Win32,60,,,space,1.19122,2,1,0.768955,,0,218,218,546,1,2c,90,3,9,
,,,,,,,,,,,,,,,,,,,,,,,,,,images/exp1b_trial_32_colour3_distractors9_l.png,l,1,029,001,2021-04-23_20h26.13.910,searchDisc4,2020.2.10,Win32,60,,,space,0.866665,1,1,1.089495,,0,219,219,146,1,1b,32,3,9,
,,,,,,,,,,,,,,,,,,,,,,,,,,images/exp2c_trial_21_colour1_distractors19_l.png,l,1,029,001,2021-04-23_20h26.13.910,searchDisc4,2020.2.10,Win32,60,,,space,5.69127,1,1,0.563135,,0,220,220,477,1,2c,21,1,19,
,,,,,,,,,,,,,,,,,,,,,,,,,,images/exp2b_trial_26_colour2_distractors9_l.png,l,1,029,001,2021-04-23_20h26.13.910,searchDisc4,2020.2.10,Win32,60,,,space,0.427845,1,1,0.503735,,0,221,221,368,1,2b,26,2,9,
,,,,,,,,,,,,,,,,,,,,,,,,,,images/exp2a_trial_71_colour3_distractors19_l.png,l,1,029,001,2021-04-23_20h26.13.910,searchDisc4,2020.2.10,Win32,60,,,space,0.61072,1,1,0.422875,,0,222,222,299,1,2a,71,3,19,
,,,,,,,,,,,,,,,,,,,,,,,,,,images/exp1a_trial_33_colour3_distractors19_l.png,l,1,029,001,2021-04-23_20h26.13.910,searchDisc4,2020.2.10,Win32,60,,,space,0.49829,1,1,0.527125,,0,223,223,33,1,1a,33,3,19,
,,,,,,,,,,,,,,,,,,,,,,,,,,images/exp1a_trial_110_colour3_distractors31_l.png,l,1,029,001,2021-04-23_20h26.13.910,searchDisc4,2020.2.10,Win32,60,,,space,0.40136,1,1,0.566045,,0,224,224,110,1,1a,110,3,31,
,,,,,,,,,,,,,,,,,,,,,,,,,,images/exp2c_trial_70_colour3_distractors9_l.png,l,1,029,001,2021-04-23_20h26.13.910,searchDisc4,2020.2.10,Win32,60,,,space,0.35769,1,1,0.52385,,0,225,225,526,1,2c,70,3,9,
,,,,,,,,,,,,,,,,,,,,,,,,,,images/exp2a_trial_111_colour3_distractors43_l.png,l,1,029,001,2021-04-23_20h26.13.910,searchDisc4,2020.2.10,Win32,60,,,space,6.51802,1,1,0.557285,,0,226,226,339,1,2a,111,3,43,
,,,,,,,,,,,,,,,,,,,,,,,,,,images/exp2a_trial_28_colour2_distractors31_l.png,l,1,029,001,2021-04-23_20h26.13.910,searchDisc4,2020.2.10,Win32,60,,,space,0.50434,1,1,0.47539,,0,227,227,256,1,2a,28,2,31,
,,,,,,,,,,,,,,,,,,,,,,,,,,images/exp1b_trial_113_colour0_distractors0_l.png,l,1,029,001,2021-04-23_20h26.13.910,searchDisc4,2020.2.10,Win32,60,,,space,0.4558,1,1,0.460445,,0,228,228,227,1,1b,113,0,0,
,,,,,,,,,,,,,,,,,,,,,,,,,,images/exp2b_trial_88_colour3_distractors1_r.png,r,2,029,001,2021-04-23_20h26.13.910,searchDisc4,2020.2.10,Win32,60,,,space,1.542485,2,1,0.857955,,0,229,229,430,1,2b,88,3,1,
,,,,,,,,,,,,,,,,,,,,,,,,,,images/exp2c_trial_79_colour1_distractors19_r.png,r,2,029,001,2021-04-23_20h26.13.910,searchDisc4,2020.2.10,Win32,60,,,space,0.571795,2,1,0.667365,,0,230,230,535,1,2c,79,1,19,
,,,,,,,,,,,,,,,,,,,,,,,,,,images/exp2a_trial_3_colour1_distractors19_r.png,r,2,029,001,2021-04-23_20h26.13.910,searchDisc4,2020.2.10,Win32,60,,,space,0.69857,2,1,0.610685,,0,231,231,231,1,2a,3,1,19,
,,,,,,,,,,,,,,,,,,,,,,,,,,images/exp1a_trial_93_colour3_distractors43_r.png,r,2,029,001,2021-04-23_20h26.13.910,searchDisc4,2020.2.10,Win32,60,,,space,0.45324,2,1,0.57968,,0,232,232,93,1,1a,93,3,43,
,,,,,,,,,,,,,,,,,,,,,,,,,,images/exp2a_trial_61_colour1_distractors43_l.png,l,1,029,001,2021-04-23_20h26.13.910,searchDisc4,2020.2.10,Win32,60,,,space,0.51822,1,1,0.601485,,0,233,233,289,1,2a,61,1,43,
,,,,,,,,,,,,,,,,,,,,,,,,,,images/exp1b_trial_73_colour3_distractors43_l.png,l,1,029,001,2021-04-23_20h26.13.910,searchDisc4,2020.2.10,Win32,60,,,space,0.77171,1,1,0.68071,,0,234,234,187,1,1b,73,3,43,
,,,,,,,,,,,,,,,,,,,,,,,,,,images/exp2a_trial_43_colour1_distractors43_r.png,r,2,029,001,2021-04-23_20h26.13.910,searchDisc4,2020.2.10,Win32,60,,,space,0.478915,2,1,0.571665,,0,235,235,271,1,2a,43,1,43,
,,,,,,,,,,,,,,,,,,,,,,,,,,images/exp1a_trial_0_colour1_distractors1_r.png,r,2,029,001,2021-04-23_20h26.13.910,searchDisc4,2020.2.10,Win32,60,,,space,0.567735,1,0,0.46698,,0,236,236,0,1,1a,0,1,1,
,,,,,,,,,,,,,,,,,,,,,,,,,,images/exp1a_trial_39_colour1_distractors4_r.png,r,2,029,001,2021-04-23_20h26.13.910,searchDisc4,2020.2.10,Win32,60,,,space,1.71066,2,1,0.48108,,0,237,237,39,1,1a,39,1,4,
,,,,,,,,,,,,,,,,,,,,,,,,,,images/exp1a_trial_14_colour3_distractors9_r.png,r,2,029,001,2021-04-23_20h26.13.910,searchDisc4,2020.2.10,Win32,60,,,space,0.33979,2,1,0.373375,,0,238,238,14,1,1a,14,3,9,
,,,,,,,,,,,,,,,,,,,,,,,,,,images/exp2b_trial_30_colour3_distractors1_l.png,l,1,029,001,2021-04-23_20h26.13.910,searchDisc4,2020.2.10,Win32,60,,,space,0.340115,1,1,0.528095,space,0,239,239,372,1,2b,30,3,1,15.17647
,,,,,,,,,,,,,,,,,,,,,,,,,,images/exp2c_trial_101_colour2_distractors4_l.png,l,1,029,001,2021-04-23_20h26.13.910,searchDisc4,2020.2.10,Win32,60,,,space,1.89134,1,1,1.41077,,0,240,240,557,1,2c,101,2,4,
,,,,,,,,,,,,,,,,,,,,,,,,,,images/exp2b_trial_16_colour3_distractors31_r.png,r,2,029,001,2021-04-23_20h26.13.910,searchDisc4,2020.2.10,Win32,60,,,space,1.293725,2,1,0.738195,,0,241,241,358,1,2b,16,3,31,
,,,,,,,,,,,,,,,,,,,,,,,,,,images/exp1b_trial_4_colour1_distractors31_r.png,r,2,029,001,2021-04-23_20h26.13.910,searchDisc4,2020.2.10,Win32,60,,,space,0.551105,2,1,0.5584,,0,242,242,118,1,1b,4,1,31,
,,,,,,,,,,,,,,,,,,,,,,,,,,images/exp2b_trial_65_colour2_distractors19_l.png,l,1,029,001,2021-04-23_20h26.13.910,searchDisc4,2020.2.10,Win32,60,,,space,0.312475,1,1,0.649355,,0,243,243,407,1,2b,65,2,19,
,,,,,,,,,,,,,,,,,,,,,,,,,,images/exp2b_trial_4_colour1_distractors31_r.png,r,2,029,001,2021-04-23_20h26.13.910,searchDisc4,2020.2.10,Win32,60,,,space,0.422765,2,1,0.573375,,0,244,244,346,1,2b,4,1,31,
,,,,,,,,,,,,,,,,,,,,,,,,,,images/exp2c_trial_95_colour1_distractors4_l.png,l,1,029,001,2021-04-23_20h26.13.910,searchDisc4,2020.2.10,Win32,60,,,space,0.49207,1,1,0.53707,,0,245,245,551,1,2c,95,1,4,
,,,,,,,,,,,,,,,,,,,,,,,,,,images/exp1b_trial_3_colour1_distractors19_r.png,r,2,029,001,2021-04-23_20h26.13.910,searchDisc4,2020.2.10,Win32,60,,,space,0.35922,2,1,0.827665,,0,246,246,117,1,1b,3,1,19,
,,,,,,,,,,,,,,,,,,,,,,,,,,images/exp2b_trial_83_colour2_distractors4_r.png,r,2,029,001,2021-04-23_20h26.13.910,searchDisc4,2020.2.10,Win32,60,,,space,0.55634,2,1,0.69562,,0,247,247,425,1,2b,83,2,4,
,,,,,,,,,,,,,,,,,,,,,,,,,,images/exp2a_trial_21_colour1_distractors19_l.png,l,1,029,001,2021-04-23_20h26.13.910,searchDisc4,2020.2.10,Win32,60,,,space,0.35157,1,1,0.572375,,0,248,248,249,1,2a,21,1,19,
,,,,,,,,,,,,,,,,,,,,,,,,,,images/exp2c_trial_52_colour3_distractors9_r.png,r,2,029,001,2021-04-23_20h26.13.910,searchDisc4,2020.2.10,Win32,60,,,space,0.507955,2,1,0.7071,,0,249,249,508,1,2c,52,3,9,
,,,,,,,,,,,,,,,,,,,,,,,,,,images/exp2a_trial_62_colour2_distractors1_l.png,l,1,029,001,2021-04-23_20h26.13.910,searchDisc4,2020.2.10,Win32,60,,,space,0.47216,1,1,0.56623,,0,250,250,290,1,2a,62,2,1,
,,,,,,,,,,,,,,,,,,,,,,,,,,images/exp2b_trial_39_colour1_distractors4_r.png,r,2,029,001,2021-04-23_20h26.13.910,searchDisc4,2020.2.10,Win32,60,,,space,0.673615,2,1,0.52715,,0,251,251,381,1,2b,39,1,4,
,,,,,,,,,,,,,,,,,,,,,,,,,,images/exp1a_trial_108_colour3_distractors9_l.png,l,1,029,001,2021-04-23_20h26.13.910,searchDisc4,2020.2.10,Win32,60,,,space,0.33943,1,1,0.60652,,0,252,252,108,1,1a,108,3,9,
,,,,,,,,,,,,,,,,,,,,,,,,,,images/exp2b_trial_71_colour3_distractors19_l.png,l,1,029,001,2021-04-23_20h26.13.910,searchDisc4,2020.2.10,Win32,60,,,space,0.45865,1,1,0.49589,,0,253,253,413,1,2b,71,3,19,
,,,,,,,,,,,,,,,,,,,,,,,,,,images/exp1a_trial_10_colour2_distractors31_r.png,r,2,029,001,2021-04-23_20h26.13.910,searchDisc4,2020.2.10,Win32,60,,,space,0.369595,2,1,0.56422,,0,254,254,10,1,1a,10,2,31,
,,,,,,,,,,,,,,,,,,,,,,,,,,images/exp1a_trial_36_colour0_distractors0_r.png,r,2,029,001,2021-04-23_20h26.13.910,searchDisc4,2020.2.10,Win32,60,,,space,0.4086,2,1,0.47414,,0,255,255,36,1,1a,36,0,0,
,,,,,,,,,,,,,,,,,,,,,,,,,,images/exp2b_trial_46_colour2_distractors9_r.png,r,2,029,001,2021-04-23_20h26.13.910,searchDisc4,2020.2.10,Win32,60,,,space,0.39365,2,1,0.49829,,0,256,256,388,1,2b,46,2,9,
,,,,,,,,,,,,,,,,,,,,,,,,,,images/exp1a_trial_31_colour3_distractors4_l.png,l,1,029,001,2021-04-23_20h26.13.910,searchDisc4,2020.2.10,Win32,60,,,space,0.46257,1,1,0.579905,,0,257,257,31,1,1a,31,3,4,
,,,,,,,,,,,,,,,,,,,,,,,,,,images/exp2c_trial_10_colour2_distractors31_r.png,r,2,029,001,2021-04-23_20h26.13.910,searchDisc4,2020.2.10,Win32,60,,,space,1.09561,2,1,0.773185,,0,258,258,466,1,2c,10,2,31,
,,,,,,,,,,,,,,,,,,,,,,,,,,images/exp2b_trial_17_colour3_distractors43_r.png,r,2,029,001,2021-04-23_20h26.13.910,searchDisc4,2020.2.10,Win32,60,,,space,0.504145,2,1,0.52484,,0,259,259,359,1,2b,17,3,43,
,,,,,,,,,,,,,,,,,,,,,,,,,,images/exp1b_trial_81_colour1_distractors43_r.png,r,2,029,001,2021-04-23_20h26.13.910,searchDisc4,2020.2.10,Win32,60,,,space,0.57701,2,1,0.797345,,0,260,260,195,1,1b,81,1,43,
,,,,,,,,,,,,,,,,,,,,,,,,,,images/exp2c_trial_66_colour2_distractors31_l.png,l,1,029,001,2021-04-23_20h26.13.910,searchDisc4,2020.2.10,Win32,60,,,space,0.70343,1,1,0.499185,,0,261,261,522,1,2c,66,2,31,
,,,,,,,,,,,,,,,,,,,,,,,,,,images/exp1a_trial_57_colour1_distractors4_l.png,l,1,029,001,2021-04-23_20h26.13.910,searchDisc4,2020.2.10,Win32,60,,,space,0.602565,1,1,0.70639,,0,262,262,57,1,1a,57,1,4,
,,,,,,,,,,,,,,,,,,,,,,,,,,images/exp2c_trial_107_colour3_distractors4_l.png,l,1,029,001,2021-04-23_20h26.13.910,searchDisc4,2020.2.10,Win32,60,,,space,0.3346,1,1,0.61594,,0,263,263,563,1,2c,107,3,4,
,,,,,,,,,,,,,,,,,,,,,,,,,,images/exp2a_trial_75_colour0_distractors0_l.png,l,1,029,001,2021-04-23_20h26.13.910,searchDisc4,2020.2.10,Win32,60,,,space,0.389775,1,1,0.49381,,0,264,264,303,1,2a,75,0,0,
,,,,,,,,,,,,,,,,,,,,,,,,,,images/exp2b_trial_3_colour1_distractors19_r.png,r,2,029,001,2021-04-23_20h26.13.910,searchDisc4,2020.2.10,Win32,60,,,space,0.349725,2,1,0.56123,,0,265,265,345,1,2b,3,1,19,
,,,,,,,,,,,,,,,,,,,,,,,,,,images/exp1b_trial_14_colour3_distractors9_r.png,r,2,029,001,2021-04-23_20h26.13.910,searchDisc4,2020.2.10,Win32,60,,,space,0.830505,2,1,0.72888,,0,266,266,128,1,1b,14,3,9,
,,,,,,,,,,,,,,,,,,,,,,,,,,images/exp2a_trial_78_colour1_distractors9_r.png,r,2,029,001,2021-04-23_20h26.13.910,searchDisc4,2020.2.10,Win32,60,,,space,0.603905,2,1,0.75066,,0,267,267,306,1,2a,78,1,9,
,,,,,,,,,,,,,,,,,,,,,,,,,,images/exp2c_trial_12_colour3_distractors1_r.png,r,2,029,001,2021-04-23_20h26.13.910,searchDisc4,2020.2.10,Win32,60,,,space,0.706085,2,1,0.397555,,0,268,268,468,1,2c,12,3,1,
,,,,,,,,,,,,,,,,,,,,,,,,,,images/exp2a_trial_108_colour3_distractors9_l.png,l,1,029,001,2021-04-23_20h26.13.910,searchDisc4,2020.2.10,Win32,60,,,space,0.40445,1,1,0.456715,,0,269,269,336,1,2a,108,3,9,
,,,,,,,,,,,,,,,,,,,,,,,,,,images/exp2b_trial_19_colour1_distractors4_l.png,l,1,029,001,2021-04-23_20h26.13.910,searchDisc4,2020.2.10,Win32,60,,,space,0.403015,1,1,0.59143,,0,270,270,361,1,2b,19,1,4,
,,,,,,,,,,,,,,,,,,,,,,,,,,images/exp1a_trial_97_colour1_distractors19_l.png,l,1,029,001,2021-04-23_20h26.13.910,searchDisc4,2020.2.10,Win32,60,,,space,0.871335,1,1,0.88356,,0,271,271,97,1,1a,97,1,19,
,,,,,,,,,,,,,,,,,,,,,,,,,,images/exp2c_trial_72_colour3_distractors31_l.png,l,1,029,001,2021-04-23_20h26.13.910,searchDisc4,2020.2.10,Win32,60,,,space,0.56672,1,1,0.62806,,0,272,272,528,1,2c,72,3,31,
,,,,,,,,,,,,,,,,,,,,,,,,,,images/exp2a_trial_57_colour1_distractors4_l.png,l,1,029,001,2021-04-23_20h26.13.910,searchDisc4,2020.2.10,Win32,60,,,space,0.31186,1,1,0.50096,,0,273,273,285,1,2a,57,1,4,
,,,,,,,,,,,,,,,,,,,,,,,,,,images/exp2c_trial_69_colour3_distractors4_l.png,l,1,029,001,2021-04-23_20h26.13.910,searchDisc4,2020.2.10,Win32,60,,,space,0.446645,1,1,0.56868,,0,274,274,525,1,2c,69,3,4,
,,,,,,,,,,,,,,,,,,,,,,,,,,images/exp2a_trial_58_colour1_distractors9_l.png,l,1,029,001,2021-04-23_20h26.13.910,searchDisc4,2020.2.10,Win32,60,,,space,0.286205,1,1,0.48479,,0,275,275,286,1,2a,58,1,9,
,,,,,,,,,,,,,,,,,,,,,,,,,,images/exp2a_trial_48_colour2_distractors31_r.png,r,2,029,001,2021-04-23_20h26.13.910,searchDisc4,2020.2.10,Win32,60,,,space,0.27355,2,1,0.679595,,0,276,276,276,1,2a,48,2,31,
,,,,,,,,,,,,,,,,,,,,,,,,,,images/exp1b_trial_58_colour1_distractors9_l.png,l,1,029,001,2021-04-23_20h26.13.910,searchDisc4,2020.2.10,Win32,60,,,space,0.414115,1,1,0.61469,,0,277,277,172,1,1b,58,1,9,
,,,,,,,,,,,,,,,,,,,,,,,,,,images/exp2c_trial_9_colour2_distractors19_r.png,r,2,029,001,2021-04-23_20h26.13.910,searchDisc4,2020.2.10,Win32,60,,,space,0.392075,2,1,0.82061,,0,278,278,465,1,2c,9,2,19,
,,,,,,,,,,,,,,,,,,,,,,,,,,images/exp2a_trial_55_colour3_distractors43_r.png,r,2,029,001,2021-04-23_20h26.13.910,searchDisc4,2020.2.10,Win32,60,,,space,0.30931,2,1,0.793705,,0,279,279,283,1,2a,55,3,43,
,,,,,,,,,,,,,,,,,,,,,,,,,,images/exp2a_trial_38_colour1_distractors1_r.png,r,2,029,001,2021-04-23_20h26.13.910,searchDisc4,2020.2.10,Win32,60,,,space,0.717975,2,1,0.545105,,0,280,280,266,1,2a,38,1,1,
,,,,,,,,,,,,,,,,,,,,,,,,,,images/exp1a_trial_104_colour2_distractors31_l.png,l,1,029,001,2021-04-23_20h26.13.910,searchDisc4,2020.2.10,Win32,60,,,space,0.38504,1,1,0.573755,,0,281,281,104,1,1a,104,2,31,
,,,,,,,,,,,,,,,,,,,,,,,,,,images/exp2a_trial_100_colour2_distractors1_l.png,l,1,029,001,2021-04-23_20h26.13.910,searchDisc4,2020.2.10,Win32,60,,,space,0.334675,1,1,0.45415,,0,282,282,328,1,2a,100,2,1,
,,,,,,,,,,,,,,,,,,,,,,,,,,images/exp1b_trial_83_colour2_distractors4_r.png,r,2,029,001,2021-04-23_20h26.13.910,searchDisc4,2020.2.10,Win32,60,,,space,0.684835,2,1,0.62604,,0,283,283,197,1,1b,83,2,4,
,,,,,,,,,,,,,,,,,,,,,,,,,,images/exp2b_trial_111_colour3_distractors43_l.png,l,1,029,001,2021-04-23_20h26.13.910,searchDisc4,2020.2.10,Win32,60,,,space,0.62036,1,1,0.522625,,0,284,284,453,1,2b,111,3,43,
,,,,,,,,,,,,,,,,,,,,,,,,,,images/exp2b_trial_105_colour2_distractors43_l.png,l,1,029,001,2021-04-23_20h26.13.910,searchDisc4,2020.2.10,Win32,60,,,space,0.41971,1,1,0.63187,,0,285,285,447,1,2b,105,2,43,
,,,,,,,,,,,,,,,,,,,,,,,,,,images/exp2a_trial_85_colour2_distractors19_r.png,r,2,029,001,2021-04-23_20h26.13.910,searchDisc4,2020.2.10,Win32,60,,,space,0.57791,2,1,0.68346,,0,286,286,313,1,2a,85,2,19,
,,,,,,,,,,,,,,,,,,,,,,,,,,images/exp1b_trial_105_colour2_distractors43_l.png,l,1,029,001,2021-04-23_20h26.13.910,searchDisc4,2020.2.10,Win32,60,,,space,0.49142,1,1,0.754685,,0,287,287,219,1,1b,105,2,43,
,,,,,,,,,,,,,,,,,,,,,,,,,,images/exp1b_trial_24_colour2_distractors1_l.png,l,1,029,001,2021-04-23_20h26.13.910,searchDisc4,2020.2.10,Win32,60,,,space,0.405565,1,1,0.551965,,0,288,288,138,1,1b,24,2,1,
,,,,,,,,,,,,,,,,,,,,,,,,,,images/exp2a_trial_88_colour3_distractors1_r.png,r,2,029,001,2021-04-23_20h26.13.910,searchDisc4,2020.2.10,Win32,60,,,space,0.48532,2,1,0.70103,,0,289,289,316,1,2a,88,3,1,
,,,,,,,,,,,,,,,,,,,,,,,,,,images/exp1a_trial_20_colour1_distractors9_l.png,l,1,029,001,2021-04-23_20h26.13.910,searchDisc4,2020.2.10,Win32,60,,,space,0.88635,1,1,0.75711,,0,290,290,20,1,1a,20,1,9,
,,,,,,,,,,,,,,,,,,,,,,,,,,images/exp1a_trial_86_colour2_distractors31_r.png,r,2,029,001,2021-04-23_20h26.13.910,searchDisc4,2020.2.10,Win32,60,,,space,0.313575,2,1,0.66105,,0,291,291,86,1,1a,86,2,31,
,,,,,,,,,,,,,,,,,,,,,,,,,,images/exp1b_trial_12_colour3_distractors1_r.png,r,2,029,001,2021-04-23_20h26.13.910,searchDisc4,2020.2.10,Win32,60,,,space,0.334275,2,1,0.710285,,0,292,292,126,1,1b,12,3,1,
,,,,,,,,,,,,,,,,,,,,,,,,,,images/exp1a_trial_9_colour2_distractors19_r.png,r,2,029,001,2021-04-23_20h26.13.910,searchDisc4,2020.2.10,Win32,60,,,space,0.88513,2,1,0.460645,,0,293,293,9,1,1a,9,2,19,
,,,,,,,,,,,,,,,,,,,,,,,,,,images/exp2b_trial_33_colour3_distractors19_l.png,l,1,029,001,2021-04-23_20h26.13.910,searchDisc4,2020.2.10,Win32,60,,,space,0.639225,1,1,0.55907,,0,294,294,375,1,2b,33,3,19,
,,,,,,,,,,,,,,,,,,,,,,,,,,images/exp2b_trial_22_colour1_distractors31_l.png,l,1,029,001,2021-04-23_20h26.13.910,searchDisc4,2020.2.10,Win32,60,,,space,0.67624,1,1,0.587035,,0,295,295,364,1,2b,22,1,31,
,,,,,,,,,,,,,,,,,,,,,,,,,,images/exp1a_trial_83_colour2_distractors4_r.png,r,2,029,001,2021-04-23_20h26.13.910,searchDisc4,2020.2.10,Win32,60,,,space,0.32452,2,1,0.49023,,0,296,296,83,1,1a,83,2,4,
,,,,,,,,,,,,,,,,,,,,,,,,,,images/exp1b_trial_50_colour3_distractors1_r.png,r,2,029,001,2021-04-23_20h26.13.910,searchDisc4,2020.2.10,Win32,60,,,space,0.647165,2,1,0.813065,,0,297,297,164,1,1b,50,3,1,
,,,,,,,,,,,,,,,,,,,,,,,,,,images/exp2a_trial_12_colour3_distractors1_r.png,r,2,029,001,2021-04-23_20h26.13.910,searchDisc4,2020.2.10,Win32,60,,,space,3.15732,2,1,0.59121,,0,298,298,240,1,2a,12,3,1,
,,,,,,,,,,,,,,,,,,,,,,,,,,images/exp2a_trial_60_colour1_distractors31_l.png,l,1,029,001,2021-04-23_20h26.13.910,searchDisc4,2020.2.10,Win32,60,,,space,0.373765,1,1,0.587415,space,0,299,299,288,1,2a,60,1,31,42.71414
,,,,,,,,,,,,,,,,,,,,,,,,,,images/exp2b_trial_81_colour1_distractors43_r.png,r,2,029,001,2021-04-23_20h26.13.910,searchDisc4,2020.2.10,Win32,60,,,space,0.597445,2,1,0.57436,,0,300,300,423,1,2b,81,1,43,
,,,,,,,,,,,,,,,,,,,,,,,,,,images/exp2a_trial_79_colour1_distractors19_r.png,r,2,029,001,2021-04-23_20h26.13.910,searchDisc4,2020.2.10,Win32,60,,,space,0.41075,2,1,0.73368,,0,301,301,307,1,2a,79,1,19,
,,,,,,,,,,,,,,,,,,,,,,,,,,images/exp2a_trial_112_colour0_distractors0_r.png,r,2,029,001,2021-04-23_20h26.13.910,searchDisc4,2020.2.10,Win32,60,,,space,0.29764,2,1,0.42818,,0,302,302,340,1,2a,112,0,0,
,,,,,,,,,,,,,,,,,,,,,,,,,,images/exp2c_trial_49_colour2_distractors43_r.png,r,2,029,001,2021-04-23_20h26.13.910,searchDisc4,2020.2.10,Win32,60,,,space,0.30703,2,1,0.43042,,0,303,303,505,1,2c,49,2,43,
,,,,,,,,,,,,,,,,,,,,,,,,,,images/exp2b_trial_7_colour2_distractors4_r.png,r,2,029,001,2021-04-23_20h26.13.910,searchDisc4,2020.2.10,Win32,60,,,space,0.26822,2,1,0.532965,,0,304,304,349,1,2b,7,2,4,
,,,,,,,,,,,,,,,,,,,,,,,,,,images/exp1a_trial_22_colour1_distractors31_l.png,l,1,029,001,2021-04-23_20h26.13.910,searchDisc4,2020.2.10,Win32,60,,,space,0.39609,1,1,0.64105,,0,305,305,22,1,1a,22,1,31,
,,,,,,,,,,,,,,,,,,,,,,,,,,images/exp2a_trial_42_colour1_distractors31_r.png,r,2,029,001,2021-04-23_20h26.13.910,searchDisc4,2020.2.10,Win32,60,,,space,0.383475,2,1,0.464,,0,306,306,270,1,2a,42,1,31,
,,,,,,,,,,,,,,,,,,,,,,,,,,images/exp2a_trial_9_colour2_distractors19_r.png,r,2,029,001,2021-04-23_20h26.13.910,searchDisc4,2020.2.10,Win32,60,,,space,0.612985,2,1,0.610765,,0,307,307,237,1,2a,9,2,19,
,,,,,,,,,,,,,,,,,,,,,,,,,,images/exp2a_trial_32_colour3_distractors9_l.png,l,1,029,001,2021-04-23_20h26.13.910,searchDisc4,2020.2.10,Win32,60,,,space,0.30112,1,1,0.5597,,0,308,308,260,1,2a,32,3,9,
,,,,,,,,,,,,,,,,,,,,,,,,,,images/exp1a_trial_6_colour2_distractors1_r.png,r,2,029,001,2021-04-23_20h26.13.910,searchDisc4,2020.2.10,Win32,60,,,space,0.349,2,1,0.546845,,0,309,309,6,1,1a,6,2,1,
,,,,,,,,,,,,,,,,,,,,,,,,,,images/exp2a_trial_11_colour2_distractors43_r.png,r,2,029,001,2021-04-23_20h26.13.910,searchDisc4,2020.2.10,Win32,60,,,space,0.296175,2,1,0.548935,,0,310,310,239,1,2a,11,2,43,
,,,,,,,,,,,,,,,,,,,,,,,,,,images/exp1a_trial_21_colour1_distractors19_l.png,l,1,029,001,2021-04-23_20h26.13.910,searchDisc4,2020.2.10,Win32,60,,,space,0.270195,1,1,0.645715,,0,311,311,21,1,1a,21,1,19,
,,,,,,,,,,,,,,,,,,,,,,,,,,images/exp2a_trial_84_colour2_distractors9_r.png,r,2,029,001,2021-04-23_20h26.13.910,searchDisc4,2020.2.10,Win32,60,,,space,0.69035,2,1,0.51134,,0,312,312,312,1,2a,84,2,9,
,,,,,,,,,,,,,,,,,,,,,,,,,,images/exp2a_trial_22_colour1_distractors31_l.png,l,1,029,001,2021-04-23_20h26.13.910,searchDisc4,2020.2.10,Win32,60,,,space,0.295965,1,1,0.525605,,0,313,313,250,1,2a,22,1,31,
,,,,,,,,,,,,,,,,,,,,,,,,,,images/exp2a_trial_46_colour2_distractors9_r.png,r,2,029,001,2021-04-23_20h26.13.910,searchDisc4,2020.2.10,Win32,60,,,space,0.367575,2,1,0.604465,,0,314,314,274,1,2a,46,2,9,
,,,,,,,,,,,,,,,,,,,,,,,,,,images/exp1b_trial_99_colour1_distractors43_l.png,l,1,029,001,2021-04-23_20h26.13.910,searchDisc4,2020.2.10,Win32,60,,,space,0.32025,1,1,0.589775,,0,315,315,213,1,1b,99,1,43,
,,,,,,,,,,,,,,,,,,,,,,,,,,images/exp1a_trial_100_colour2_distractors1_l.png,l,1,029,001,2021-04-23_20h26.13.910,searchDisc4,2020.2.10,Win32,60,,,space,0.275115,1,1,0.581035,,0,316,316,100,1,1a,100,2,1,
,,,,,,,,,,,,,,,,,,,,,,,,,,images/exp1b_trial_38_colour1_distractors1_r.png,r,2,029,001,2021-04-23_20h26.13.910,searchDisc4,2020.2.10,Win32,60,,,space,0.300265,2,1,0.66813,,0,317,317,152,1,1b,38,1,1,
,,,,,,,,,,,,,,,,,,,,,,,,,,images/exp2c_trial_3_colour1_distractors19_r.png,r,2,029,001,2021-04-23_20h26.13.910,searchDisc4,2020.2.10,Win32,60,,,space,0.601855,2,1,0.56416,,0,318,318,459,1,2c,3,1,19,
,,,,,,,,,,,,,,,,,,,,,,,,,,images/exp2b_trial_93_colour3_distractors43_r.png,r,2,029,001,2021-04-23_20h26.13.910,searchDisc4,2020.2.10,Win32,60,,,space,0.28533,2,1,0.54472,,0,319,319,435,1,2b,93,3,43,
,,,,,,,,,,,,,,,,,,,,,,,,,,images/exp1a_trial_7_colour2_distractors4_r.png,r,2,029,001,2021-04-23_20h26.13.910,searchDisc4,2020.2.10,Win32,60,,,space,0.256945,2,1,0.422665,,0,320,320,7,1,1a,7,2,4,
,,,,,,,,,,,,,,,,,,,,,,,,,,images/exp2a_trial_103_colour2_distractors19_l.png,l,1,029,001,2021-04-23_20h26.13.910,searchDisc4,2020.2.10,Win32,60,,,space,0.507165,1,1,0.480585,,0,321,321,331,1,2a,103,2,19,
,,,,,,,,,,,,,,,,,,,,,,,,,,images/exp1b_trial_25_colour2_distractors4_l.png,l,1,029,001,2021-04-23_20h26.13.910,searchDisc4,2020.2.10,Win32,60,,,space,0.375205,1,1,0.728075,,0,322,322,139,1,1b,25,2,4,
,,,,,,,,,,,,,,,,,,,,,,,,,,images/exp1b_trial_39_colour1_distractors4_r.png,r,2,029,001,2021-04-23_20h26.13.910,searchDisc4,2020.2.10,Win32,60,,,space,0.29555,2,1,0.59773,,0,323,323,153,1,1b,39,1,4,
,,,,,,,,,,,,,,,,,,,,,,,,,,images/exp2c_trial_87_colour2_distractors43_r.png,r,2,029,001,2021-04-23_20h26.13.910,searchDisc4,2020.2.10,Win32,60,,,space,0.44157,2,1,0.542445,,0,324,324,543,1,2c,87,2,43,
,,,,,,,,,,,,,,,,,,,,,,,,,,images/exp2a_trial_24_colour2_distractors1_l.png,l,1,029,001,2021-04-23_20h26.13.910,searchDisc4,2020.2.10,Win32,60,,,space,0.33705,1,1,0.433045,,0,325,325,252,1,2a,24,2,1,
,,,,,,,,,,,,,,,,,,,,,,,,,,images/exp2b_trial_32_colour3_distractors9_l.png,l,1,029,001,2021-04-23_20h26.13.910,searchDisc4,2020.2.10,Win32,60,,,space,0.44169,1,1,0.50491,,0,326,326,374,1,2b,32,3,9,
,,,,,,,,,,,,,,,,,,,,,,,,,,images/exp1b_trial_103_colour2_distractors19_l.png,l,1,029,001,2021-04-23_20h26.13.910,searchDisc4,2020.2.10,Win32,60,,,space,0.256675,1,1,0.669815,,0,327,327,217,1,1b,103,2,19,
,,,,,,,,,,,,,,,,,,,,,,,,,,images/exp2c_trial_36_colour0_distractors0_r.png,r,2,029,001,2021-04-23_20h26.13.910,searchDisc4,2020.2.10,Win32,60,,,space,0.30271,2,1,0.593535,,0,328,328,492,1,2c,36,0,0,
,,,,,,,,,,,,,,,,,,,,,,,,,,images/exp2c_trial_85_colour2_distractors19_r.png,r,2,029,001,2021-04-23_20h26.13.910,searchDisc4,2020.2.10,Win32,60,,,space,0.44945,2,1,0.49405,,0,329,329,541,1,2c,85,2,19,
,,,,,,,,,,,,,,,,,,,,,,,,,,images/exp2b_trial_82_colour2_distractors1_r.png,r,2,029,001,2021-04-23_20h26.13.910,searchDisc4,2020.2.10,Win32,60,,,space,0.39785,2,1,0.45396,,0,330,330,424,1,2b,82,2,1,
,,,,,,,,,,,,,,,,,,,,,,,,,,images/exp2a_trial_101_colour2_distractors4_l.png,l,1,029,001,2021-04-23_20h26.13.910,searchDisc4,2020.2.10,Win32,60,,,space,0.3526,1,1,0.56743,,0,331,331,329,1,2a,101,2,4,
,,,,,,,,,,,,,,,,,,,,,,,,,,images/exp2a_trial_73_colour3_distractors43_l.png,l,1,029,001,2021-04-23_20h26.13.910,searchDisc4,2020.2.10,Win32,60,,,space,0.31791,1,1,0.528885,,0,332,332,301,1,2a,73,3,43,
,,,,,,,,,,,,,,,,,,,,,,,,,,images/exp2b_trial_11_colour2_distractors43_r.png,r,2,029,001,2021-04-23_20h26.13.910,searchDisc4,2020.2.10,Win32,60,,,space,0.341685,2,1,0.639625,,0,333,333,353,1,2b,11,2,43,
,,,,,,,,,,,,,,,,,,,,,,,,,,images/exp2b_trial_72_colour3_distractors31_l.png,l,1,029,001,2021-04-23_20h26.13.910,searchDisc4,2020.2.10,Win32,60,,,space,0.40399,1,1,0.68952,,0,334,334,414,1,2b,72,3,31,
,,,,,,,,,,,,,,,,,,,,,,,,,,images/exp2a_trial_6_colour2_distractors1_r.png,r,2,029,001,2021-04-23_20h26.13.910,searchDisc4,2020.2.10,Win32,60,,,space,1.965665,2,1,0.42882,,0,335,335,234,1,2a,6,2,1,
,,,,,,,,,,,,,,,,,,,,,,,,,,images/exp2c_trial_84_colour2_distractors9_r.png,r,2,029,001,2021-04-23_20h26.13.910,searchDisc4,2020.2.10,Win32,60,,,space,0.761715,2,1,0.54637,,0,336,336,540,1,2c,84,2,9,
,,,,,,,,,,,,,,,,,,,,,,,,,,images/exp1b_trial_74_colour0_distractors0_r.png,r,2,029,001,2021-04-23_20h26.13.910,searchDisc4,2020.2.10,Win32,60,,,space,0.38853,2,1,0.47236,,0,337,337,188,1,1b,74,0,0,
,,,,,,,,,,,,,,,,,,,,,,,,,,images/exp2c_trial_25_colour2_distractors4_l.png,l,1,029,001,2021-04-23_20h26.13.910,searchDisc4,2020.2.10,Win32,60,,,space,0.337855,1,1,0.45093,,0,338,338,481,1,2c,25,2,4,
,,,,,,,,,,,,,,,,,,,,,,,,,,images/exp1a_trial_72_colour3_distractors31_l.png,l,1,029,001,2021-04-23_20h26.13.910,searchDisc4,2020.2.10,Win32,60,,,space,0.36673,1,1,0.50824,,0,339,339,72,1,1a,72,3,31,
,,,,,,,,,,,,,,,,,,,,,,,,,,images/exp1a_trial_46_colour2_distractors9_r.png,r,2,029,001,2021-04-23_20h26.13.910,searchDisc4,2020.2.10,Win32,60,,,space,0.308385,2,1,0.55226,,0,340,340,46,1,1a,46,2,9,
,,,,,,,,,,,,,,,,,,,,,,,,,,images/exp2c_trial_97_colour1_distractors19_l.png,l,1,029,001,2021-04-23_20h26.13.910,searchDisc4,2020.2.10,Win32,60,,,space,0.50115,1,1,0.758115,,0,341,341,553,1,2c,97,1,19,
,,,,,,,,,,,,,,,,,,,,,,,,,,images/exp2a_trial_45_colour2_distractors4_r.png,r,2,029,001,2021-04-23_20h26.13.910,searchDisc4,2020.2.10,Win32,60,,,space,0.372005,2,1,0.443445,,0,342,342,273,1,2a,45,2,4,
,,,,,,,,,,,,,,,,,,,,,,,,,,images/exp2b_trial_74_colour0_distractors0_r.png,r,2,029,001,2021-04-23_20h26.13.910,searchDisc4,2020.2.10,Win32,60,,,space,0.49781,2,1,0.54264,,0,343,343,416,1,2b,74,0,0,
,,,,,,,,,,,,,,,,,,,,,,,,,,images/exp1a_trial_113_colour0_distractors0_l.png,l,1,029,001,2021-04-23_20h26.13.910,searchDisc4,2020.2.10,Win32,60,,,space,0.31784,1,1,0.460425,,0,344,344,113,1,1a,113,0,0,
,,,,,,,,,,,,,,,,,,,,,,,,,,images/exp1a_trial_103_colour2_distractors19_l.png,l,1,029,001,2021-04-23_20h26.13.910,searchDisc4,2020.2.10,Win32,60,,,space,0.42462,1,1,0.58062,,0,345,345,103,1,1a,103,2,19,
,,,,,,,,,,,,,,,,,,,,,,,,,,images/exp1a_trial_32_colour3_distractors9_l.png,l,1,029,001,2021-04-23_20h26.13.910,searchDisc4,2020.2.10,Win32,60,,,space,0.412235,1,1,0.46284,,0,346,346,32,1,1a,32,3,9,
,,,,,,,,,,,,,,,,,,,,,,,,,,images/exp1b_trial_6_colour2_distractors1_r.png,r,2,029,001,2021-04-23_20h26.13.910,searchDisc4,2020.2.10,Win32,60,,,space,0.358305,2,1,0.54657,,0,347,347,120,1,1b,6,2,1,
,,,,,,,,,,,,,,,,,,,,,,,,,,images/exp1b_trial_112_colour0_distractors0_r.png,r,2,029,001,2021-04-23_20h26.13.910,searchDisc4,2020.2.10,Win32,60,,,space,0.35732,2,1,0.45844,,0,348,348,226,1,1b,112,0,0,
,,,,,,,,,,,,,,,,,,,,,,,,,,images/exp2a_trial_113_colour0_distractors0_l.png,l,1,029,001,2021-04-23_20h26.13.910,searchDisc4,2020.2.10,Win32,60,,,space,0.302345,1,1,0.474895,,0,349,349,341,1,2a,113,0,0,
,,,,,,,,,,,,,,,,,,,,,,,,,,images/exp2b_trial_8_colour2_distractors9_r.png,r,2,029,001,2021-04-23_20h26.13.910,searchDisc4,2020.2.10,Win32,60,,,space,0.557335,2,1,0.53743,,0,350,350,350,1,2b,8,2,9,
,,,,,,,,,,,,,,,,,,,,,,,,,,images/exp2c_trial_45_colour2_distractors4_r.png,r,2,029,001,2021-04-23_20h26.13.910,searchDisc4,2020.2.10,Win32,60,,,space,0.33067,2,1,0.65723,,0,351,351,501,1,2c,45,2,4,
,,,,,,,,,,,,,,,,,,,,,,,,,,images/exp2b_trial_61_colour1_distractors43_l.png,l,1,029,001,2021-04-23_20h26.13.910,searchDisc4,2020.2.10,Win32,60,,,space,0.30659,1,1,0.65292,,0,352,352,403,1,2b,61,1,43,
,,,,,,,,,,,,,,,,,,,,,,,,,,images/exp2c_trial_76_colour1_distractors1_r.png,r,2,029,001,2021-04-23_20h26.13.910,searchDisc4,2020.2.10,Win32,60,,,space,0.895235,2,1,0.448135,,0,353,353,532,1,2c,76,1,1,
,,,,,,,,,,,,,,,,,,,,,,,,,,images/exp2c_trial_46_colour2_distractors9_r.png,r,2,029,001,2021-04-23_20h26.13.910,searchDisc4,2020.2.10,Win32,60,,,space,0.41465,2,1,0.603295,,0,354,354,502,1,2c,46,2,9,
,,,,,,,,,,,,,,,,,,,,,,,,,,images/exp2c_trial_64_colour2_distractors9_l.png,l,1,029,001,2021-04-23_20h26.13.910,searchDisc4,2020.2.10,Win32,60,,,space,0.75647,1,1,0.482155,,0,355,355,520,1,2c,64,2,9,
,,,,,,,,,,,,,,,,,,,,,,,,,,images/exp2a_trial_94_colour1_distractors1_l.png,l,1,029,001,2021-04-23_20h26.13.910,searchDisc4,2020.2.10,Win32,60,,,space,0.42291,1,1,0.59632,,0,356,356,322,1,2a,94,1,1,
,,,,,,,,,,,,,,,,,,,,,,,,,,images/exp2a_trial_40_colour1_distractors9_r.png,r,2,029,001,2021-04-23_20h26.13.910,searchDisc4,2020.2.10,Win32,60,,,space,0.900425,2,1,0.601115,,0,357,357,268,1,2a,40,1,9,
,,,,,,,,,,,,,,,,,,,,,,,,,,images/exp1a_trial_12_colour3_distractors1_r.png,r,2,029,001,2021-04-23_20h26.13.910,searchDisc4,2020.2.10,Win32,60,,,space,0.485105,1,0,0.52237,,0,358,358,12,1,1a,12,3,1,
,,,,,,,,,,,,,,,,,,,,,,,,,,images/exp1a_trial_84_colour2_distractors9_r.png,r,2,029,001,2021-04-23_20h26.13.910,searchDisc4,2020.2.10,Win32,60,,,space,0.936175,2,1,0.583285,space,0,359,359,84,1,1a,84,2,9,8.97809
,,,,,,,,,,,,,,,,,,,,,,,,,,images/exp2b_trial_53_colour3_distractors19_r.png,r,2,029,001,2021-04-23_20h26.13.910,searchDisc4,2020.2.10,Win32,60,,,space,0.69838,2,1,0.577335,,0,360,360,395,1,2b,53,3,19,
,,,,,,,,,,,,,,,,,,,,,,,,,,images/exp2b_trial_92_colour3_distractors31_r.png,r,2,029,001,2021-04-23_20h26.13.910,searchDisc4,2020.2.10,Win32,60,,,space,0.307305,2,1,0.52777,,0,361,361,434,1,2b,92,3,31,
,,,,,,,,,,,,,,,,,,,,,,,,,,images/exp2b_trial_44_colour2_distractors1_r.png,r,2,029,001,2021-04-23_20h26.13.910,searchDisc4,2020.2.10,Win32,60,,,space,0.261,2,1,0.546205,,0,362,362,386,1,2b,44,2,1,
,,,,,,,,,,,,,,,,,,,,,,,,,,images/exp2c_trial_51_colour3_distractors4_r.png,r,2,029,001,2021-04-23_20h26.13.910,searchDisc4,2020.2.10,Win32,60,,,space,0.2905,2,1,0.61804,,0,363,363,507,1,2c,51,3,4,
,,,,,,,,,,,,,,,,,,,,,,,,,,images/exp2b_trial_18_colour1_distractors1_l.png,l,1,029,001,2021-04-23_20h26.13.910,searchDisc4,2020.2.10,Win32,60,,,space,1.12886,1,1,0.46687,,0,364,364,360,1,2b,18,1,1,
,,,,,,,,,,,,,,,,,,,,,,,,,,images/exp1a_trial_41_colour1_distractors19_r.png,r,2,029,001,2021-04-23_20h26.13.910,searchDisc4,2020.2.10,Win32,60,,,space,1.447185,2,1,0.538645,,0,365,365,41,1,1a,41,1,19,
,,,,,,,,,,,,,,,,,,,,,,,,,,images/exp1a_trial_13_colour3_distractors4_r.png,r,2,029,001,2021-04-23_20h26.13.910,searchDisc4,2020.2.10,Win32,60,,,space,0.851695,2,1,0.542715,,0,366,366,13,1,1a,13,3,4,
,,,,,,,,,,,,,,,,,,,,,,,,,,images/exp1a_trial_85_colour2_distractors19_r.png,r,2,029,001,2021-04-23_20h26.13.910,searchDisc4,2020.2.10,Win32,60,,,space,0.847,2,1,0.607905,,0,367,367,85,1,1a,85,2,19,
,,,,,,,,,,,,,,,,,,,,,,,,,,images/exp1a_trial_28_colour2_distractors31_l.png,l,1,029,001,2021-04-23_20h26.13.910,searchDisc4,2020.2.10,Win32,60,,,space,0.766625,1,1,0.58893,,0,368,368,28,1,1a,28,2,31,
,,,,,,,,,,,,,,,,,,,,,,,,,,images/exp2b_trial_97_colour1_distractors19_l.png,l,1,029,001,2021-04-23_20h26.13.910,searchDisc4,2020.2.10,Win32,60,,,space,0.708015,1,1,0.75134,,0,369,369,439,1,2b,97,1,19,
,,,,,,,,,,,,,,,,,,,,,,,,,,images/exp2c_trial_75_colour0_distractors0_l.png,l,1,029,001,2021-04-23_20h26.13.910,searchDisc4,2020.2.10,Win32,60,,,space,1.22931,1,1,0.48454,,0,370,370,531,1,2c,75,0,0,
,,,,,,,,,,,,,,,,,,,,,,,,,,images/exp2c_trial_88_colour3_distractors1_r.png,r,2,029,001,2021-04-23_20h26.13.910,searchDisc4,2020.2.10,Win32,60,,,space,0.589975,2,1,0.481325,,0,371,371,544,1,2c,88,3,1,
,,,,,,,,,,,,,,,,,,,,,,,,,,images/exp2b_trial_87_colour2_distractors43_r.png,r,2,029,001,2021-04-23_20h26.13.910,searchDisc4,2020.2.10,Win32,60,,,space,0.808935,2,1,0.70828,,0,372,372,429,1,2b,87,2,43,
,,,,,,,,,,,,,,,,,,,,,,,,,,images/exp1a_trial_8_colour2_distractors9_r.png,r,2,029,001,2021-04-23_20h26.13.910,searchDisc4,2020.2.10,Win32,60,,,space,0.85343,2,1,0.463775,,0,373,373,8,1,1a,8,2,9,
,,,,,,,,,,,,,,,,,,,,,,,,,,images/exp1a_trial_98_colour1_distractors31_l.png,l,1,029,001,2021-04-23_20h26.13.910,searchDisc4,2020.2.10,Win32,60,,,space,0.51056,1,1,0.900965,,0,374,374,98,1,1a,98,1,31,
,,,,,,,,,,,,,,,,,,,,,,,,,,images/exp2a_trial_51_colour3_distractors4_r.png,r,2,029,001,2021-04-23_20h26.13.910,searchDisc4,2020.2.10,Win32,60,,,space,0.891275,2,1,0.73109,,0,375,375,279,1,2a,51,3,4,
,,,,,,,,,,,,,,,,,,,,,,,,,,images/exp2a_trial_1_colour1_distractors4_r.png,r,2,029,001,2021-04-23_20h26.13.910,searchDisc4,2020.2.10,Win32,60,,,space,0.789685,2,1,0.450755,,0,376,376,229,1,2a,1,1,4,
,,,,,,,,,,,,,,,,,,,,,,,,,,images/exp2b_trial_13_colour3_distractors4_r.png,r,2,029,001,2021-04-23_20h26.13.910,searchDisc4,2020.2.10,Win32,60,,,space,0.514035,2,1,0.5415,,0,377,377,355,1,2b,13,3,4,
,,,,,,,,,,,,,,,,,,,,,,,,,,images/exp2a_trial_69_colour3_distractors4_l.png,l,1,029,001,2021-04-23_20h26.13.910,searchDisc4,2020.2.10,Win32,60,,,space,0.33575,1,1,0.66414,,0,378,378,297,1,2a,69,3,4,
,,,,,,,,,,,,,,,,,,,,,,,,,,images/exp2c_trial_102_colour2_distractors9_l.png,l,1,029,001,2021-04-23_20h26.13.910,searchDisc4,2020.2.10,Win32,60,,,space,0.519545,1,1,0.630795,,0,379,379,558,1,2c,102,2,9,
,,,,,,,,,,,,,,,,,,,,,,,,,,images/exp1a_trial_42_colour1_distractors31_r.png,r,2,029,001,2021-04-23_20h26.13.910,searchDisc4,2020.2.10,Win32,60,,,space,0.33921,2,1,0.658545,,0,380,380,42,1,1a,42,1,31,
,,,,,,,,,,,,,,,,,,,,,,,,,,images/exp2a_trial_33_colour3_distractors19_l.png,l,1,029,001,2021-04-23_20h26.13.910,searchDisc4,2020.2.10,Win32,60,,,space,0.46512,1,1,0.751025,,0,381,381,261,1,2a,33,3,19,
,,,,,,,,,,,,,,,,,,,,,,,,,,images/exp2c_trial_2_colour1_distractors9_r.png,r,2,029,001,2021-04-23_20h26.13.910,searchDisc4,2020.2.10,Win32,60,,,space,0.38556,2,1,0.49674,,0,382,382,458,1,2c,2,1,9,
,,,,,,,,,,,,,,,,,,,,,,,,,,images/exp2a_trial_50_colour3_distractors1_r.png,r,2,029,001,2021-04-23_20h26.13.910,searchDisc4,2020.2.10,Win32,60,,,space,0.47648,2,1,0.574275,,0,383,383,278,1,2a,50,3,1,
,,,,,,,,,,,,,,,,,,,,,,,,,,images/exp2b_trial_91_colour3_distractors19_r.png,r,2,029,001,2021-04-23_20h26.13.910,searchDisc4,2020.2.10,Win32,60,,,space,0.83011,2,1,0.39063,,0,384,384,433,1,2b,91,3,19,
,,,,,,,,,,,,,,,,,,,,,,,,,,images/exp2a_trial_34_colour3_distractors31_l.png,l,1,029,001,2021-04-23_20h26.13.910,searchDisc4,2020.2.10,Win32,60,,,space,0.584375,1,1,0.65143,,0,385,385,262,1,2a,34,3,31,
,,,,,,,,,,,,,,,,,,,,,,,,,,images/exp1a_trial_76_colour1_distractors1_r.png,r,2,029,001,2021-04-23_20h26.13.910,searchDisc4,2020.2.10,Win32,60,,,space,0.468725,2,1,0.65452,,0,386,386,76,1,1a,76,1,1,
,,,,,,,,,,,,,,,,,,,,,,,,,,images/exp2b_trial_112_colour0_distractors0_r.png,r,2,029,001,2021-04-23_20h26.13.910,searchDisc4,2020.2.10,Win32,60,,,space,0.38576,2,1,0.50893,,0,387,387,454,1,2b,112,0,0,
,,,,,,,,,,,,,,,,,,,,,,,,,,images/exp2a_trial_56_colour1_distractors1_l.png,l,1,029,001,2021-04-23_20h26.13.910,searchDisc4,2020.2.10,Win32,60,,,space,0.7054,1,1,0.633265,,0,388,388,284,1,2a,56,1,1,
,,,,,,,,,,,,,,,,,,,,,,,,,,images/exp2a_trial_102_colour2_distractors9_l.png,l,1,029,001,2021-04-23_20h26.13.910,searchDisc4,2020.2.10,Win32,60,,,space,0.47871,1,1,0.575815,,0,389,389,330,1,2a,102,2,9,
,,,,,,,,,,,,,,,,,,,,,,,,,,images/exp2b_trial_101_colour2_distractors4_l.png,l,1,029,001,2021-04-23_20h26.13.910,searchDisc4,2020.2.10,Win32,60,,,space,0.36024,1,1,0.547275,,0,390,390,443,1,2b,101,2,4,
,,,,,,,,,,,,,,,,,,,,,,,,,,images/exp1b_trial_34_colour3_distractors31_l.png,l,1,029,001,2021-04-23_20h26.13.910,searchDisc4,2020.2.10,Win32,60,,,space,0.962445,1,1,0.662255,,0,391,391,148,1,1b,34,3,31,
,,,,,,,,,,,,,,,,,,,,,,,,,,images/exp2c_trial_110_colour3_distractors31_l.png,l,1,029,001,2021-04-23_20h26.13.910,searchDisc4,2020.2.10,Win32,60,,,space,0.37962,1,1,0.628075,,0,392,392,566,1,2c,110,3,31,
,,,,,,,,,,,,,,,,,,,,,,,,,,images/exp1a_trial_65_colour2_distractors19_l.png,l,1,029,001,2021-04-23_20h26.13.910,searchDisc4,2020.2.10,Win32,60,,,space,0.84116,1,1,0.545395,,0,393,393,65,1,1a,65,2,19,
,,,,,,,,,,,,,,,,,,,,,,,,,,images/exp2a_trial_20_colour1_distractors9_l.png,l,1,029,001,2021-04-23_20h26.13.910,searchDisc4,2020.2.10,Win32,60,,,space,0.377995,1,1,0.46162,,0,394,394,248,1,2a,20,1,9,
,,,,,,,,,,,,,,,,,,,,,,,,,,images/exp1b_trial_88_colour3_distractors1_r.png,r,2,029,001,2021-04-23_20h26.13.910,searchDisc4,2020.2.10,Win32,60,,,space,0.386875,2,1,0.691985,,0,395,395,202,1,1b,88,3,1,
,,,,,,,,,,,,,,,,,,,,,,,,,,images/exp1b_trial_56_colour1_distractors1_l.png,l,1,029,001,2021-04-23_20h26.13.910,searchDisc4,2020.2.10,Win32,60,,,space,0.88812,1,1,0.695975,,0,396,396,170,1,1b,56,1,1,
,,,,,,,,,,,,,,,,,,,,,,,,,,images/exp1b_trial_13_colour3_distractors4_r.png,r,2,029,001,2021-04-23_20h26.13.910,searchDisc4,2020.2.10,Win32,60,,,space,0.47723,2,1,0.627535,,0,397,397,127,1,1b,13,3,4,
,,,,,,,,,,,,,,,,,,,,,,,,,,images/exp2c_trial_71_colour3_distractors19_l.png,l,1,029,001,2021-04-23_20h26.13.910,searchDisc4,2020.2.10,Win32,60,,,space,0.54963,1,1,0.80622,,0,398,398,527,1,2c,71,3,19,
,,,,,,,,,,,,,,,,,,,,,,,,,,images/exp2b_trial_57_colour1_distractors4_l.png,l,1,029,001,2021-04-23_20h26.13.910,searchDisc4,2020.2.10,Win32,60,,,space,1.236615,1,1,0.458065,,0,399,399,399,1,2b,57,1,4,
,,,,,,,,,,,,,,,,,,,,,,,,,,images/exp2c_trial_6_colour2_distractors1_r.png,r,2,029,001,2021-04-23_20h26.13.910,searchDisc4,2020.2.10,Win32,60,,,space,0.611615,2,1,0.564365,,0,400,400,462,1,2c,6,2,1,
,,,,,,,,,,,,,,,,,,,,,,,,,,images/exp2c_trial_5_colour1_distractors43_r.png,r,2,029,001,2021-04-23_20h26.13.910,searchDisc4,2020.2.10,Win32,60,,,space,0.359555,2,1,0.69405,,0,401,401,461,1,2c,5,1,43,
,,,,,,,,,,,,,,,,,,,,,,,,,,images/exp2b_trial_110_colour3_distractors31_l.png,l,1,029,001,2021-04-23_20h26.13.910,searchDisc4,2020.2.10,Win32,60,,,space,0.63576,1,1,0.61031,,0,402,402,452,1,2b,110,3,31,
,,,,,,,,,,,,,,,,,,,,,,,,,,images/exp2b_trial_108_colour3_distractors9_l.png,l,1,029,001,2021-04-23_20h26.13.910,searchDisc4,2020.2.10,Win32,60,,,space,0.426075,1,1,0.54409,,0,403,403,450,1,2b,108,3,9,
,,,,,,,,,,,,,,,,,,,,,,,,,,images/exp2a_trial_86_colour2_distractors31_r.png,r,2,029,001,2021-04-23_20h26.13.910,searchDisc4,2020.2.10,Win32,60,,,space,0.295185,2,1,0.514885,,0,404,404,314,1,2a,86,2,31,
,,,,,,,,,,,,,,,,,,,,,,,,,,images/exp1b_trial_19_colour1_distractors4_l.png,l,1,029,001,2021-04-23_20h26.13.910,searchDisc4,2020.2.10,Win32,60,,,space,0.36852,1,1,0.593335,,0,405,405,133,1,1b,19,1,4,
,,,,,,,,,,,,,,,,,,,,,,,,,,images/exp1b_trial_101_colour2_distractors4_l.png,l,1,029,001,2021-04-23_20h26.13.910,searchDisc4,2020.2.10,Win32,60,,,space,0.354455,1,1,0.718225,,0,406,406,215,1,1b,101,2,4,
,,,,,,,,,,,,,,,,,,,,,,,,,,images/exp1b_trial_15_colour3_distractors19_r.png,r,2,029,001,2021-04-23_20h26.13.910,searchDisc4,2020.2.10,Win32,60,,,space,1.101575,2,1,0.66065,,0,407,407,129,1,1b,15,3,19,
,,,,,,,,,,,,,,,,,,,,,,,,,,images/exp1a_trial_19_colour1_distractors4_l.png,l,1,029,001,2021-04-23_20h26.13.910,searchDisc4,2020.2.10,Win32,60,,,space,0.37696,1,1,0.60975,,0,408,408,19,1,1a,19,1,4,
,,,,,,,,,,,,,,,,,,,,,,,,,,images/exp1b_trial_70_colour3_distractors9_l.png,l,1,029,001,2021-04-23_20h26.13.910,searchDisc4,2020.2.10,Win32,60,,,space,0.554985,1,1,0.64566,,0,409,409,184,1,1b,70,3,9,
,,,,,,,,,,,,,,,,,,,,,,,,,,images/exp2b_trial_67_colour2_distractors43_l.png,l,1,029,001,2021-04-23_20h26.13.910,searchDisc4,2020.2.10,Win32,60,,,space,0.381865,1,1,0.725875,,0,410,410,409,1,2b,67,2,43,
,,,,,,,,,,,,,,,,,,,,,,,,,,images/exp2c_trial_109_colour3_distractors19_l.png,l,1,029,001,2021-04-23_20h26.13.910,searchDisc4,2020.2.10,Win32,60,,,space,0.355835,1,1,0.632035,,0,411,411,565,1,2c,109,3,19,
,,,,,,,,,,,,,,,,,,,,,,,,,,images/exp1b_trial_64_colour2_distractors9_l.png,l,1,029,001,2021-04-23_20h26.13.910,searchDisc4,2020.2.10,Win32,60,,,space,0.750595,1,1,0.775745,,0,412,412,178,1,1b,64,2,9,
,,,,,,,,,,,,,,,,,,,,,,,,,,images/exp2a_trial_66_colour2_distractors31_l.png,l,1,029,001,2021-04-23_20h26.13.910,searchDisc4,2020.2.10,Win32,60,,,space,0.297715,1,1,0.56068,,0,413,413,294,1,2a,66,2,31,
,,,,,,,,,,,,,,,,,,,,,,,,,,images/exp2c_trial_31_colour3_distractors4_l.png,l,1,029,001,2021-04-23_20h26.13.910,searchDisc4,2020.2.10,Win32,60,,,space,0.33566,1,1,0.40909,,0,414,414,487,1,2c,31,3,4,
,,,,,,,,,,,,,,,,,,,,,,,,,,images/exp2c_trial_29_colour2_distractors43_l.png,l,1,029,001,2021-04-23_20h26.13.910,searchDisc4,2020.2.10,Win32,60,,,space,0.334025,1,1,0.43177,,0,415,415,485,1,2c,29,2,43,
,,,,,,,,,,,,,,,,,,,,,,,,,,images/exp2c_trial_106_colour3_distractors1_l.png,l,1,029,001,2021-04-23_20h26.13.910,searchDisc4,2020.2.10,Win32,60,,,space,0.38027,1,1,0.417735,,0,416,416,562,1,2c,106,3,1,
,,,,,,,,,,,,,,,,,,,,,,,,,,images/exp1b_trial_92_colour3_distractors31_r.png,r,2,029,001,2021-04-23_20h26.13.910,searchDisc4,2020.2.10,Win32,60,,,space,1.15222,2,1,1.545035,,0,417,417,206,1,1b,92,3,31,
,,,,,,,,,,,,,,,,,,,,,,,,,,images/exp2c_trial_30_colour3_distractors1_l.png,l,1,029,001,2021-04-23_20h26.13.910,searchDisc4,2020.2.10,Win32,60,,,space,0.294055,1,1,0.724895,,0,418,418,486,1,2c,30,3,1,
,,,,,,,,,,,,,,,,,,,,,,,,,,images/exp1b_trial_43_colour1_distractors43_r.png,r,2,029,001,2021-04-23_20h26.13.910,searchDisc4,2020.2.10,Win32,60,,,space,0.35128,2,1,0.76411,space,0,419,419,157,1,1b,43,1,43,4.522995
,,,,,,,,,,,,,,,,,,,,,,,,,,images/exp1a_trial_87_colour2_distractors43_r.png,r,2,029,001,2021-04-23_20h26.13.910,searchDisc4,2020.2.10,Win32,60,,,space,0.662055,2,1,0.934575,,0,420,420,87,1,1a,87,2,43,
,,,,,,,,,,,,,,,,,,,,,,,,,,images/exp2b_trial_38_colour1_distractors1_r.png,r,2,029,001,2021-04-23_20h26.13.910,searchDisc4,2020.2.10,Win32,60,,,space,0.456645,2,1,0.51232,,0,421,421,380,1,2b,38,1,1,
,,,,,,,,,,,,,,,,,,,,,,,,,,images/exp2c_trial_37_colour0_distractors0_l.png,l,1,029,001,2021-04-23_20h26.13.910,searchDisc4,2020.2.10,Win32,60,,,space,0.303865,1,1,0.691565,,0,422,422,493,1,2c,37,0,0,
,,,,,,,,,,,,,,,,,,,,,,,,,,images/exp2c_trial_89_colour3_distractors4_r.png,r,2,029,001,2021-04-23_20h26.13.910,searchDisc4,2020.2.10,Win32,60,,,space,0.304685,2,1,0.49229,,0,423,423,545,1,2c,89,3,4,
,,,,,,,,,,,,,,,,,,,,,,,,,,images/exp2c_trial_26_colour2_distractors9_l.png,l,1,029,001,2021-04-23_20h26.13.910,searchDisc4,2020.2.10,Win32,60,,,space,0.749135,1,1,0.617255,,0,424,424,482,1,2c,26,2,9,
,,,,,,,,,,,,,,,,,,,,,,,,,,images/exp1a_trial_109_colour3_distractors19_l.png,l,1,029,001,2021-04-23_20h26.13.910,searchDisc4,2020.2.10,Win32,60,,,space,0.46981,1,1,0.544665,,0,425,425,109,1,1a,109,3,19,
,,,,,,,,,,,,,,,,,,,,,,,,,,images/exp2a_trial_76_colour1_distractors1_r.png,r,2,029,001,2021-04-23_20h26.13.910,searchDisc4,2020.2.10,Win32,60,,,space,0.88717,2,1,0.42797,,0,426,426,304,1,2a,76,1,1,
,,,,,,,,,,,,,,,,,,,,,,,,,,images/exp1a_trial_73_colour3_distractors43_l.png,l,1,029,001,2021-04-23_20h26.13.910,searchDisc4,2020.2.10,Win32,60,,,space,0.613335,1,1,0.562795,,0,427,427,73,1,1a,73,3,43,
,,,,,,,,,,,,,,,,,,,,,,,,,,images/exp1b_trial_31_colour3_distractors4_l.png,l,1,029,001,2021-04-23_20h26.13.910,searchDisc4,2020.2.10,Win32,60,,,space,0.921655,1,1,0.663455,,0,428,428,145,1,1b,31,3,4,
,,,,,,,,,,,,,,,,,,,,,,,,,,images/exp2b_trial_9_colour2_distractors19_r.png,r,2,029,001,2021-04-23_20h26.13.910,searchDisc4,2020.2.10,Win32,60,,,space,0.736015,2,1,0.600435,,0,429,429,351,1,2b,9,2,19,
,,,,,,,,,,,,,,,,,,,,,,,,,,images/exp2a_trial_99_colour1_distractors43_l.png,l,1,029,001,2021-04-23_20h26.13.910,searchDisc4,2020.2.10,Win32,60,,,space,0.75,1,1,0.54949,,0,430,430,327,1,2a,99,1,43,
,,,,,,,,,,,,,,,,,,,,,,,,,,images/exp2b_trial_45_colour2_distractors4_r.png,r,2,029,001,2021-04-23_20h26.13.910,searchDisc4,2020.2.10,Win32,60,,,space,0.96792,2,1,0.61825,,0,431,431,387,1,2b,45,2,4,
,,,,,,,,,,,,,,,,,,,,,,,,,,images/exp2c_trial_65_colour2_distractors19_l.png,l,1,029,001,2021-04-23_20h26.13.910,searchDisc4,2020.2.10,Win32,60,,,space,0.87351,1,1,0.73126,,0,432,432,521,1,2c,65,2,19,
,,,,,,,,,,,,,,,,,,,,,,,,,,images/exp2c_trial_34_colour3_distractors31_l.png,l,1,029,001,2021-04-23_20h26.13.910,searchDisc4,2020.2.10,Win32,60,,,space,1.149635,1,1,0.57831,,0,433,433,490,1,2c,34,3,31,
,,,,,,,,,,,,,,,,,,,,,,,,,,images/exp1b_trial_33_colour3_distractors19_l.png,l,1,029,001,2021-04-23_20h26.13.910,searchDisc4,2020.2.10,Win32,60,,,space,0.5895,1,1,1.18757,,0,434,434,147,1,1b,33,3,19,
,,,,,,,,,,,,,,,,,,,,,,,,,,images/exp1a_trial_90_colour3_distractors9_r.png,r,2,029,001,2021-04-23_20h26.13.910,searchDisc4,2020.2.10,Win32,60,,,space,0.30076,2,1,0.64088,,0,435,435,90,1,1a,90,3,9,
,,,,,,,,,,,,,,,,,,,,,,,,,,images/exp1b_trial_84_colour2_distractors9_r.png,r,2,029,001,2021-04-23_20h26.13.910,searchDisc4,2020.2.10,Win32,60,,,space,0.768995,2,1,1.39382,,0,436,436,198,1,1b,84,2,9,
,,,,,,,,,,,,,,,,,,,,,,,,,,images/exp2a_trial_13_colour3_distractors4_r.png,r,2,029,001,2021-04-23_20h26.13.910,searchDisc4,2020.2.10,Win32,60,,,space,0.79799,2,1,0.93221,,0,437,437,241,1,2a,13,3,4,
,,,,,,,,,,,,,,,,,,,,,,,,,,images/exp2c_trial_93_colour3_distractors43_r.png,r,2,029,001,2021-04-23_20h26.13.910,searchDisc4,2020.2.10,Win32,60,,,space,0.46815,2,1,0.878375,,0,438,438,549,1,2c,93,3,43,
,,,,,,,,,,,,,,,,,,,,,,,,,,images/exp2b_trial_15_colour3_distractors19_r.png,r,2,029,001,2021-04-23_20h26.13.910,searchDisc4,2020.2.10,Win32,60,,,space,0.425955,2,1,0.694315,,0,439,439,357,1,2b,15,3,19,
,,,,,,,,,,,,,,,,,,,,,,,,,,images/exp1b_trial_18_colour1_distractors1_l.png,l,1,029,001,2021-04-23_20h26.13.910,searchDisc4,2020.2.10,Win32,60,,,space,0.44015,1,1,0.48154,,0,440,440,132,1,1b,18,1,1,
,,,,,,,,,,,,,,,,,,,,,,,,,,images/exp1b_trial_0_colour1_distractors1_r.png,r,2,029,001,2021-04-23_20h26.13.910,searchDisc4,2020.2.10,Win32,60,,,space,1.53476,2,1,0.586705,,0,441,441,114,1,1b,0,1,1,
,,,,,,,,,,,,,,,,,,,,,,,,,,images/exp2b_trial_69_colour3_distractors4_l.png,l,1,029,001,2021-04-23_20h26.13.910,searchDisc4,2020.2.10,Win32,60,,,space,0.4135,1,1,0.54802,,0,442,442,411,1,2b,69,3,4,
,,,,,,,,,,,,,,,,,,,,,,,,,,images/exp2b_trial_60_colour1_distractors31_l.png,l,1,029,001,2021-04-23_20h26.13.910,searchDisc4,2020.2.10,Win32,60,,,space,0.4034,1,1,0.61164,,0,443,443,402,1,2b,60,1,31,
,,,,,,,,,,,,,,,,,,,,,,,,,,images/exp1a_trial_27_colour2_distractors19_l.png,l,1,029,001,2021-04-23_20h26.13.910,searchDisc4,2020.2.10,Win32,60,,,space,0.985195,1,1,0.57537,,0,444,444,27,1,1a,27,2,19,
,,,,,,,,,,,,,,,,,,,,,,,,,,images/exp2b_trial_64_colour2_distractors9_l.png,l,1,029,001,2021-04-23_20h26.13.910,searchDisc4,2020.2.10,Win32,60,,,space,0.601655,1,1,0.89463,,0,445,445,406,1,2b,64,2,9,
,,,,,,,,,,,,,,,,,,,,,,,,,,images/exp2b_trial_0_colour1_distractors1_r.png,r,2,029,001,2021-04-23_20h26.13.910,searchDisc4,2020.2.10,Win32,60,,,space,0.668515,2,1,0.645965,,0,446,446,342,1,2b,0,1,1,
,,,,,,,,,,,,,,,,,,,,,,,,,,images/exp1a_trial_92_colour3_distractors31_r.png,r,2,029,001,2021-04-23_20h26.13.910,searchDisc4,2020.2.10,Win32,60,,,space,0.58796,2,1,0.56337,,0,447,447,92,1,1a,92,3,31,
,,,,,,,,,,,,,,,,,,,,,,,,,,images/exp2a_trial_63_colour2_distractors4_l.png,l,1,029,001,2021-04-23_20h26.13.910,searchDisc4,2020.2.10,Win32,60,,,space,0.650115,1,1,0.51885,,0,448,448,291,1,2a,63,2,4,
,,,,,,,,,,,,,,,,,,,,,,,,,,images/exp2c_trial_54_colour3_distractors31_r.png,r,2,029,001,2021-04-23_20h26.13.910,searchDisc4,2020.2.10,Win32,60,,,space,0.41908,2,1,0.843835,,0,449,449,510,1,2c,54,3,31,
,,,,,,,,,,,,,,,,,,,,,,,,,,images/exp1b_trial_41_colour1_distractors19_r.png,r,2,029,001,2021-04-23_20h26.13.910,searchDisc4,2020.2.10,Win32,60,,,space,0.57203,2,1,0.66751,,0,450,450,155,1,1b,41,1,19,
,,,,,,,,,,,,,,,,,,,,,,,,,,images/exp2c_trial_63_colour2_distractors4_l.png,l,1,029,001,2021-04-23_20h26.13.910,searchDisc4,2020.2.10,Win32,60,,,space,0.38443,1,1,0.574525,,0,451,451,519,1,2c,63,2,4,
,,,,,,,,,,,,,,,,,,,,,,,,,,images/exp2a_trial_80_colour1_distractors31_r.png,r,2,029,001,2021-04-23_20h26.13.910,searchDisc4,2020.2.10,Win32,60,,,space,0.628165,2,1,0.54221,,0,452,452,308,1,2a,80,1,31,
,,,,,,,,,,,,,,,,,,,,,,,,,,images/exp2b_trial_5_colour1_distractors43_r.png,r,2,029,001,2021-04-23_20h26.13.910,searchDisc4,2020.2.10,Win32,60,,,space,0.423815,2,1,0.676695,,0,453,453,347,1,2b,5,1,43,
,,,,,,,,,,,,,,,,,,,,,,,,,,images/exp1b_trial_30_colour3_distractors1_l.png,l,1,029,001,2021-04-23_20h26.13.910,searchDisc4,2020.2.10,Win32,60,,,space,0.34575,1,1,0.69943,,0,454,454,144,1,1b,30,3,1,
,,,,,,,,,,,,,,,,,,,,,,,,,,images/exp1a_trial_64_colour2_distractors9_l.png,l,1,029,001,2021-04-23_20h26.13.910,searchDisc4,2020.2.10,Win32,60,,,space,0.675705,1,1,0.459605,,0,455,455,64,1,1a,64,2,9,
,,,,,,,,,,,,,,,,,,,,,,,,,,images/exp1a_trial_43_colour1_distractors43_r.png,r,2,029,001,2021-04-23_20h26.13.910,searchDisc4,2020.2.10,Win32,60,,,space,0.347485,2,1,0.76646,,0,456,456,43,1,1a,43,1,43,
,,,,,,,,,,,,,,,,,,,,,,,,,,images/exp2a_trial_39_colour1_distractors4_r.png,r,2,029,001,2021-04-23_20h26.13.910,searchDisc4,2020.2.10,Win32,60,,,space,0.35987,2,1,0.73934,,0,457,457,267,1,2a,39,1,4,
,,,,,,,,,,,,,,,,,,,,,,,,,,images/exp2b_trial_109_colour3_distractors19_l.png,l,1,029,001,2021-04-23_20h26.13.910,searchDisc4,2020.2.10,Win32,60,,,space,0.60575,1,1,0.4405,,0,458,458,451,1,2b,109,3,19,
,,,,,,,,,,,,,,,,,,,,,,,,,,images/exp1a_trial_111_colour3_distractors43_l.png,l,1,029,001,2021-04-23_20h26.13.910,searchDisc4,2020.2.10,Win32,60,,,space,0.5423,1,1,0.676795,,0,459,459,111,1,1a,111,3,43,
,,,,,,,,,,,,,,,,,,,,,,,,,,images/exp2b_trial_48_colour2_distractors31_r.png,r,2,029,001,2021-04-23_20h26.13.910,searchDisc4,2020.2.10,Win32,60,,,space,0.46343,2,1,0.559485,,0,460,460,390,1,2b,48,2,31,
,,,,,,,,,,,,,,,,,,,,,,,,,,images/exp2c_trial_4_colour1_distractors31_r.png,r,2,029,001,2021-04-23_20h26.13.910,searchDisc4,2020.2.10,Win32,60,,,space,0.466875,2,1,0.6072,,0,461,461,460,1,2c,4,1,31,
,,,,,,,,,,,,,,,,,,,,,,,,,,images/exp2c_trial_35_colour3_distractors43_l.png,l,1,029,001,2021-04-23_20h26.13.910,searchDisc4,2020.2.10,Win32,60,,,space,0.590145,1,1,0.693985,,0,462,462,491,1,2c,35,3,43,
,,,,,,,,,,,,,,,,,,,,,,,,,,images/exp1a_trial_47_colour2_distractors19_r.png,r,2,029,001,2021-04-23_20h26.13.910,searchDisc4,2020.2.10,Win32,60,,,space,0.661435,2,1,0.497175,,0,463,463,47,1,1a,47,2,19,
,,,,,,,,,,,,,,,,,,,,,,,,,,images/exp1b_trial_55_colour3_distractors43_r.png,r,2,029,001,2021-04-23_20h26.13.910,searchDisc4,2020.2.10,Win32,60,,,space,0.525145,1,0,1.47414,,0,464,464,169,1,1b,55,3,43,
,,,,,,,,,,,,,,,,,,,,,,,,,,images/exp2a_trial_4_colour1_distractors31_r.png,r,2,029,001,2021-04-23_20h26.13.910,searchDisc4,2020.2.10,Win32,60,,,space,0.839715,2,1,0.64947,,0,465,465,232,1,2a,4,1,31,
,,,,,,,,,,,,,,,,,,,,,,,,,,images/exp1b_trial_57_colour1_distractors4_l.png,l,1,029,001,2021-04-23_20h26.13.910,searchDisc4,2020.2.10,Win32,60,,,space,0.351735,1,1,0.949545,,0,466,466,171,1,1b,57,1,4,
,,,,,,,,,,,,,,,,,,,,,,,,,,images/exp2c_trial_48_colour2_distractors31_r.png,r,2,029,001,2021-04-23_20h26.13.910,searchDisc4,2020.2.10,Win32,60,,,space,0.33516,2,1,0.595785,,0,467,467,504,1,2c,48,2,31,
,,,,,,,,,,,,,,,,,,,,,,,,,,images/exp2b_trial_106_colour3_distractors1_l.png,l,1,029,001,2021-04-23_20h26.13.910,searchDisc4,2020.2.10,Win32,60,,,space,0.452445,1,1,0.561165,,0,468,468,448,1,2b,106,3,1,
,,,,,,,,,,,,,,,,,,,,,,,,,,images/exp2a_trial_19_colour1_distractors4_l.png,l,1,029,001,2021-04-23_20h26.13.910,searchDisc4,2020.2.10,Win32,60,,,space,0.384175,1,1,0.525255,,0,469,469,247,1,2a,19,1,4,
,,,,,,,,,,,,,,,,,,,,,,,,,,images/exp1b_trial_104_colour2_distractors31_l.png,l,1,029,001,2021-04-23_20h26.13.910,searchDisc4,2020.2.10,Win32,60,,,space,0.305005,1,1,0.883975,,0,470,470,218,1,1b,104,2,31,
,,,,,,,,,,,,,,,,,,,,,,,,,,images/exp1a_trial_66_colour2_distractors31_l.png,l,1,029,001,2021-04-23_20h26.13.910,searchDisc4,2020.2.10,Win32,60,,,space,0.3097,1,1,0.521475,,0,471,471,66,1,1a,66,2,31,
,,,,,,,,,,,,,,,,,,,,,,,,,,images/exp2b_trial_20_colour1_distractors9_l.png,l,1,029,001,2021-04-23_20h26.13.910,searchDisc4,2020.2.10,Win32,60,,,space,0.801015,1,1,0.53618,,0,472,472,362,1,2b,20,1,9,
,,,,,,,,,,,,,,,,,,,,,,,,,,images/exp1a_trial_88_colour3_distractors1_r.png,r,2,029,001,2021-04-23_20h26.13.910,searchDisc4,2020.2.10,Win32,60,,,space,0.34575,2,1,0.762315,,0,473,473,88,1,1a,88,3,1,
,,,,,,,,,,,,,,,,,,,,,,,,,,images/exp2c_trial_68_colour3_distractors1_l.png,l,1,029,001,2021-04-23_20h26.13.910,searchDisc4,2020.2.10,Win32,60,,,space,0.527465,1,1,0.75528,,0,474,474,524,1,2c,68,3,1,
,,,,,,,,,,,,,,,,,,,,,,,,,,images/exp1a_trial_81_colour1_distractors43_r.png,r,2,029,001,2021-04-23_20h26.13.910,searchDisc4,2020.2.10,Win32,60,,,space,0.70504,2,1,0.687395,,0,475,475,81,1,1a,81,1,43,
,,,,,,,,,,,,,,,,,,,,,,,,,,images/exp1b_trial_68_colour3_distractors1_l.png,l,1,029,001,2021-04-23_20h26.13.910,searchDisc4,2020.2.10,Win32,60,,,space,0.50643,1,1,0.64174,,0,476,476,182,1,1b,68,3,1,
