X Scale,Y Scale,key_resp_10.keys,key_resp_10.rt,key_resp_11.keys,key_resp_11.rt,key_resp_12.keys,key_resp_12.rt,key_resp_13.keys,key_resp_13.rt,key_resp_5.keys,key_resp_5.rt,key_resp_8.keys,key_resp_8.rt,key_resp_6.keys,key_resp_6.rt,key_resp_7.keys,key_resp_7.rt,key_resp_4.keys,key_resp_4.corr,key_resp_4.rt,trials_2.thisRepN,trials_2.thisTrialN,trials_2.thisN,trials_2.thisIndex,trials_2.ran,ImageFile,targ_side,correctAnswer,participant,session,date,expName,psychopyVersion,OS,frameRate,key_resp_3.keys,key_resp_3.rt,key_resp_9.keys,key_resp_9.rt,key_resp_2.keys,key_resp_2.corr,key_resp_2.rt,key_resp.keys,trials.thisRepN,trials.thisTrialN,trials.thisN,trials.thisIndex,trials.ran,exp,trial,colour,distNo,key_resp.rt
21.3,20.9,space,11.5439,space,73.78571,space,5.90863,space,1.836415,space,14.39221,space,6.18753,space,8.594155,space,7.77851,1,1,3.06334,0,0,0,11,1,Practice arrays/exp1a_trial_21_colour1_distractors19_l.png,l,1,029,001,2021-04-23_18h46.39.705,searchDisc4,2020.2.10,Win32,60,,,,,,,,,,,,,,,,,,
,,,,,,,,,,,,,,,,space,2.226325,2,1,0.659065,0,1,1,6,1,Practice arrays/exp1a_trial_12_colour3_distractors1_r.png,r,2,029,001,2021-04-23_18h46.39.705,searchDisc4,2020.2.10,Win32,60,,,,,,,,,,,,,,,,,,
,,,,,,,,,,,,,,,,space,1.28846,1,1,0.977825,0,2,2,17,1,Practice arrays/exp1a_trial_35_colour3_distractors43_l.png,l,1,029,001,2021-04-23_18h46.39.705,searchDisc4,2020.2.10,Win32,60,,,,,,,,,,,,,,,,,,
,,,,,,,,,,,,,,,,space,0.198125,1,1,1.29654,0,3,3,19,1,Practice arrays/exp1a_trial_37_colour0_distractors0_l.png,l,1,029,001,2021-04-23_18h46.39.705,searchDisc4,2020.2.10,Win32,60,,,,,,,,,,,,,,,,,,
,,,,,,,,,,,,,,,,space,1.274355,2,1,0.7486,0,4,4,8,1,Practice arrays/exp1a_trial_16_colour3_distractors31_r.png,r,2,029,001,2021-04-23_18h46.39.705,searchDisc4,2020.2.10,Win32,60,,,,,,,,,,,,,,,,,,
,,,,,,,,,,,,,,,,space,1.079515,1,1,0.935305,0,5,5,9,1,Practice arrays/exp1a_trial_19_colour1_distractors4_l.png,l,1,029,001,2021-04-23_18h46.39.705,searchDisc4,2020.2.10,Win32,60,,,,,,,,,,,,,,,,,,
,,,,,,,,,,,,,,,,space,0.927335,2,1,0.717445,0,6,6,2,1,Practice arrays/exp1a_trial_5_colour1_distractors43_r.png,r,2,029,001,2021-04-23_18h46.39.705,searchDisc4,2020.2.10,Win32,60,,,,,,,,,,,,,,,,,,
,,,,,,,,,,,,,,,,space,0.82155,1,1,0.94573,0,7,7,10,1,Practice arrays/exp1a_trial_20_colour1_distractors9_l.png,l,1,029,001,2021-04-23_18h46.39.705,searchDisc4,2020.2.10,Win32,60,,,,,,,,,,,,,,,,,,
,,,,,,,,,,,,,,,,space,0.01478,2,1,0.738765,0,8,8,4,1,Practice arrays/exp1a_trial_8_colour2_distractors9_r.png,r,2,029,001,2021-04-23_18h46.39.705,searchDisc4,2020.2.10,Win32,60,,,,,,,,,,,,,,,,,,
,,,,,,,,,,,,,,,,space,1.78403,1,1,0.812585,0,9,9,16,1,Practice arrays/exp1a_trial_33_colour3_distractors19_l.png,l,1,029,001,2021-04-23_18h46.39.705,searchDisc4,2020.2.10,Win32,60,,,,,,,,,,,,,,,,,,
,,,,,,,,,,,,,,,,space,1.0088,2,1,0.67574,0,10,10,7,1,Practice arrays/exp1a_trial_13_colour3_distractors4_r.png,r,2,029,001,2021-04-23_18h46.39.705,searchDisc4,2020.2.10,Win32,60,,,,,,,,,,,,,,,,,,
,,,,,,,,,,,,,,,,space,0.311875,2,1,0.61748,0,11,11,1,1,Practice arrays/exp1a_trial_3_colour1_distractors19_r.png,r,2,029,001,2021-04-23_18h46.39.705,searchDisc4,2020.2.10,Win32,60,,,,,,,,,,,,,,,,,,
,,,,,,,,,,,,,,,,space,0.5522,1,1,0.82024,0,12,12,12,1,Practice arrays/exp1a_trial_25_colour2_distractors4_l.png,l,1,029,001,2021-04-23_18h46.39.705,searchDisc4,2020.2.10,Win32,60,,,,,,,,,,,,,,,,,,
,,,,,,,,,,,,,,,,space,0.176935,1,1,0.76706,0,13,13,14,1,Practice arrays/exp1a_trial_29_colour2_distractors43_l.png,l,1,029,001,2021-04-23_18h46.39.705,searchDisc4,2020.2.10,Win32,60,,,,,,,,,,,,,,,,,,
,,,,,,,,,,,,,,,,space,0.39808,2,1,1.23216,0,14,14,5,1,Practice arrays/exp1a_trial_10_colour2_distractors31_r.png,r,2,029,001,2021-04-23_18h46.39.705,searchDisc4,2020.2.10,Win32,60,,,,,,,,,,,,,,,,,,
,,,,,,,,,,,,,,,,space,0.300275,1,1,0.89509,0,15,15,13,1,Practice arrays/exp1a_trial_28_colour2_distractors31_l.png,l,1,029,001,2021-04-23_18h46.39.705,searchDisc4,2020.2.10,Win32,60,,,,,,,,,,,,,,,,,,
,,,,,,,,,,,,,,,,space,0.357495,2,1,0.70225,0,16,16,18,1,Practice arrays/exp1a_trial_36_colour0_distractors0_r.png,r,2,029,001,2021-04-23_18h46.39.705,searchDisc4,2020.2.10,Win32,60,,,,,,,,,,,,,,,,,,
,,,,,,,,,,,,,,,,space,0.328175,2,1,0.68931,0,17,17,0,1,Practice arrays/exp1a_trial_0_colour1_distractors1_r.png,r,2,029,001,2021-04-23_18h46.39.705,searchDisc4,2020.2.10,Win32,60,,,,,,,,,,,,,,,,,,
,,,,,,,,,,,,,,,,space,0.31758,2,1,0.722285,0,18,18,3,1,Practice arrays/exp1a_trial_7_colour2_distractors4_r.png,r,2,029,001,2021-04-23_18h46.39.705,searchDisc4,2020.2.10,Win32,60,,,,,,,,,,,,,,,,,,
,,,,,,,,,,,,,,,,space,0.282935,1,1,0.640555,0,19,19,15,1,Practice arrays/exp1a_trial_32_colour3_distractors9_l.png,l,1,029,001,2021-04-23_18h46.39.705,searchDisc4,2020.2.10,Win32,60,,,,,,,,,,,,,,,,,,
,,,,,,,,,,,,,,,,,,,,,,,,,,images/exp1a_trial_59_colour1_distractors19_l.png,l,1,029,001,2021-04-23_18h46.39.705,searchDisc4,2020.2.10,Win32,60,space,4.66519,space,0.85637,2,0,0.97433,,0,0,0,59,1,1a,59,1,19,
,,,,,,,,,,,,,,,,,,,,,,,,,,images/exp1a_trial_104_colour2_distractors31_l.png,l,1,029,001,2021-04-23_18h46.39.705,searchDisc4,2020.2.10,Win32,60,,,space,1.409765,1,1,0.663985,,0,1,1,104,1,1a,104,2,31,
,,,,,,,,,,,,,,,,,,,,,,,,,,images/exp2c_trial_43_colour1_distractors43_r.png,r,2,029,001,2021-04-23_18h46.39.705,searchDisc4,2020.2.10,Win32,60,,,space,0.99989,2,1,0.78607,,0,2,2,499,1,2c,43,1,43,
,,,,,,,,,,,,,,,,,,,,,,,,,,images/exp2a_trial_9_colour2_distractors19_r.png,r,2,029,001,2021-04-23_18h46.39.705,searchDisc4,2020.2.10,Win32,60,,,space,0.81719,2,1,0.77742,,0,3,3,237,1,2a,9,2,19,
,,,,,,,,,,,,,,,,,,,,,,,,,,images/exp2c_trial_3_colour1_distractors19_r.png,r,2,029,001,2021-04-23_18h46.39.705,searchDisc4,2020.2.10,Win32,60,,,space,0.676375,2,1,0.73092,,0,4,4,459,1,2c,3,1,19,
,,,,,,,,,,,,,,,,,,,,,,,,,,images/exp1b_trial_30_colour3_distractors1_l.png,l,1,029,001,2021-04-23_18h46.39.705,searchDisc4,2020.2.10,Win32,60,,,space,0.59125,1,1,0.91073,,0,5,5,144,1,1b,30,3,1,
,,,,,,,,,,,,,,,,,,,,,,,,,,images/exp2c_trial_30_colour3_distractors1_l.png,l,1,029,001,2021-04-23_18h46.39.705,searchDisc4,2020.2.10,Win32,60,,,space,0.74616,1,1,0.80362,,0,6,6,486,1,2c,30,3,1,
,,,,,,,,,,,,,,,,,,,,,,,,,,images/exp1b_trial_104_colour2_distractors31_l.png,l,1,029,001,2021-04-23_18h46.39.705,searchDisc4,2020.2.10,Win32,60,,,space,0.611255,1,1,1.46393,,0,7,7,218,1,1b,104,2,31,
,,,,,,,,,,,,,,,,,,,,,,,,,,images/exp2b_trial_89_colour3_distractors4_r.png,r,2,029,001,2021-04-23_18h46.39.705,searchDisc4,2020.2.10,Win32,60,,,space,0.721245,2,1,0.961195,,0,8,8,431,1,2b,89,3,4,
,,,,,,,,,,,,,,,,,,,,,,,,,,images/exp2b_trial_22_colour1_distractors31_l.png,l,1,029,001,2021-04-23_18h46.39.705,searchDisc4,2020.2.10,Win32,60,,,space,0.569425,1,1,0.805725,,0,9,9,364,1,2b,22,1,31,
,,,,,,,,,,,,,,,,,,,,,,,,,,images/exp2b_trial_69_colour3_distractors4_l.png,l,1,029,001,2021-04-23_18h46.39.705,searchDisc4,2020.2.10,Win32,60,,,space,0.551415,1,1,0.90001,,0,10,10,411,1,2b,69,3,4,
,,,,,,,,,,,,,,,,,,,,,,,,,,images/exp2a_trial_20_colour1_distractors9_l.png,l,1,029,001,2021-04-23_18h46.39.705,searchDisc4,2020.2.10,Win32,60,,,space,0.8092,1,1,0.76763,,0,11,11,248,1,2a,20,1,9,
,,,,,,,,,,,,,,,,,,,,,,,,,,images/exp1a_trial_58_colour1_distractors9_l.png,l,1,029,001,2021-04-23_18h46.39.705,searchDisc4,2020.2.10,Win32,60,,,space,0.718235,1,1,0.66225,,0,12,12,58,1,1a,58,1,9,
,,,,,,,,,,,,,,,,,,,,,,,,,,images/exp2c_trial_63_colour2_distractors4_l.png,l,1,029,001,2021-04-23_18h46.39.705,searchDisc4,2020.2.10,Win32,60,,,space,0.68007,1,1,0.799175,,0,13,13,519,1,2c,63,2,4,
,,,,,,,,,,,,,,,,,,,,,,,,,,images/exp1b_trial_78_colour1_distractors9_r.png,r,2,029,001,2021-04-23_18h46.39.705,searchDisc4,2020.2.10,Win32,60,,,space,0.625625,2,1,0.74343,,0,14,14,192,1,1b,78,1,9,
,,,,,,,,,,,,,,,,,,,,,,,,,,images/exp1b_trial_71_colour3_distractors19_l.png,l,1,029,001,2021-04-23_18h46.39.705,searchDisc4,2020.2.10,Win32,60,,,space,0.747065,1,1,1.669085,,0,15,15,185,1,1b,71,3,19,
,,,,,,,,,,,,,,,,,,,,,,,,,,images/exp2c_trial_105_colour2_distractors43_l.png,l,1,029,001,2021-04-23_18h46.39.705,searchDisc4,2020.2.10,Win32,60,,,space,0.626285,1,1,0.84329,,0,16,16,561,1,2c,105,2,43,
,,,,,,,,,,,,,,,,,,,,,,,,,,images/exp1a_trial_20_colour1_distractors9_l.png,l,1,029,001,2021-04-23_18h46.39.705,searchDisc4,2020.2.10,Win32,60,,,space,0.61269,1,1,0.79896,,0,17,17,20,1,1a,20,1,9,
,,,,,,,,,,,,,,,,,,,,,,,,,,images/exp1a_trial_65_colour2_distractors19_l.png,l,1,029,001,2021-04-23_18h46.39.705,searchDisc4,2020.2.10,Win32,60,,,space,0.56631,1,1,0.79609,,0,18,18,65,1,1a,65,2,19,
,,,,,,,,,,,,,,,,,,,,,,,,,,images/exp2a_trial_109_colour3_distractors19_l.png,l,1,029,001,2021-04-23_18h46.39.705,searchDisc4,2020.2.10,Win32,60,,,space,0.501705,1,1,0.726075,,0,19,19,337,1,2a,109,3,19,
,,,,,,,,,,,,,,,,,,,,,,,,,,images/exp1b_trial_80_colour1_distractors31_r.png,r,2,029,001,2021-04-23_18h46.39.705,searchDisc4,2020.2.10,Win32,60,,,space,0.725415,2,1,0.71148,,0,20,20,194,1,1b,80,1,31,
,,,,,,,,,,,,,,,,,,,,,,,,,,images/exp2b_trial_47_colour2_distractors19_r.png,r,2,029,001,2021-04-23_18h46.39.705,searchDisc4,2020.2.10,Win32,60,,,space,0.670665,2,1,0.72842,,0,21,21,389,1,2b,47,2,19,
,,,,,,,,,,,,,,,,,,,,,,,,,,images/exp1a_trial_56_colour1_distractors1_l.png,l,1,029,001,2021-04-23_18h46.39.705,searchDisc4,2020.2.10,Win32,60,,,space,0.662555,1,1,0.64495,,0,22,22,56,1,1a,56,1,1,
,,,,,,,,,,,,,,,,,,,,,,,,,,images/exp1b_trial_65_colour2_distractors19_l.png,l,1,029,001,2021-04-23_18h46.39.705,searchDisc4,2020.2.10,Win32,60,,,space,0.83236,1,1,1.03007,,0,23,23,179,1,1b,65,2,19,
,,,,,,,,,,,,,,,,,,,,,,,,,,images/exp2a_trial_53_colour3_distractors19_r.png,r,2,029,001,2021-04-23_18h46.39.705,searchDisc4,2020.2.10,Win32,60,,,space,0.57549,2,1,0.5807,,0,24,24,281,1,2a,53,3,19,
,,,,,,,,,,,,,,,,,,,,,,,,,,images/exp1a_trial_7_colour2_distractors4_r.png,r,2,029,001,2021-04-23_18h46.39.705,searchDisc4,2020.2.10,Win32,60,,,space,0.73992,2,1,0.729755,,0,25,25,7,1,1a,7,2,4,
,,,,,,,,,,,,,,,,,,,,,,,,,,images/exp1a_trial_94_colour1_distractors1_l.png,l,1,029,001,2021-04-23_18h46.39.705,searchDisc4,2020.2.10,Win32,60,,,space,0.53535,1,1,0.72926,,0,26,26,94,1,1a,94,1,1,
,,,,,,,,,,,,,,,,,,,,,,,,,,images/exp2b_trial_21_colour1_distractors19_l.png,l,1,029,001,2021-04-23_18h46.39.705,searchDisc4,2020.2.10,Win32,60,,,space,0.57019,1,1,0.78541,,0,27,27,363,1,2b,21,1,19,
,,,,,,,,,,,,,,,,,,,,,,,,,,images/exp1b_trial_43_colour1_distractors43_r.png,r,2,029,001,2021-04-23_18h46.39.705,searchDisc4,2020.2.10,Win32,60,,,space,0.626905,2,1,0.900585,,0,28,28,157,1,1b,43,1,43,
,,,,,,,,,,,,,,,,,,,,,,,,,,images/exp1b_trial_112_colour0_distractors0_r.png,r,2,029,001,2021-04-23_18h46.39.705,searchDisc4,2020.2.10,Win32,60,,,space,0.62069,2,1,0.66896,,0,29,29,226,1,1b,112,0,0,
,,,,,,,,,,,,,,,,,,,,,,,,,,images/exp2b_trial_73_colour3_distractors43_l.png,l,1,029,001,2021-04-23_18h46.39.705,searchDisc4,2020.2.10,Win32,60,,,space,0.581995,1,1,0.708845,,0,30,30,415,1,2b,73,3,43,
,,,,,,,,,,,,,,,,,,,,,,,,,,images/exp2b_trial_112_colour0_distractors0_r.png,r,2,029,001,2021-04-23_18h46.39.705,searchDisc4,2020.2.10,Win32,60,,,space,0.70009,2,1,0.701605,,0,31,31,454,1,2b,112,0,0,
,,,,,,,,,,,,,,,,,,,,,,,,,,images/exp1a_trial_40_colour1_distractors9_r.png,r,2,029,001,2021-04-23_18h46.39.705,searchDisc4,2020.2.10,Win32,60,,,space,0.65464,2,1,0.687785,,0,32,32,40,1,1a,40,1,9,
,,,,,,,,,,,,,,,,,,,,,,,,,,images/exp2c_trial_59_colour1_distractors19_l.png,l,1,029,001,2021-04-23_18h46.39.705,searchDisc4,2020.2.10,Win32,60,,,space,0.64911,1,1,0.6618,,0,33,33,515,1,2c,59,1,19,
,,,,,,,,,,,,,,,,,,,,,,,,,,images/exp2a_trial_34_colour3_distractors31_l.png,l,1,029,001,2021-04-23_18h46.39.705,searchDisc4,2020.2.10,Win32,60,,,space,0.593275,1,1,0.673105,,0,34,34,262,1,2a,34,3,31,
,,,,,,,,,,,,,,,,,,,,,,,,,,images/exp1b_trial_58_colour1_distractors9_l.png,l,1,029,001,2021-04-23_18h46.39.705,searchDisc4,2020.2.10,Win32,60,,,space,0.700385,1,1,0.72901,,0,35,35,172,1,1b,58,1,9,
,,,,,,,,,,,,,,,,,,,,,,,,,,images/exp1b_trial_44_colour2_distractors1_r.png,r,2,029,001,2021-04-23_18h46.39.705,searchDisc4,2020.2.10,Win32,60,,,space,0.61729,2,1,0.61912,,0,36,36,158,1,1b,44,2,1,
,,,,,,,,,,,,,,,,,,,,,,,,,,images/exp1a_trial_15_colour3_distractors19_r.png,r,2,029,001,2021-04-23_18h46.39.705,searchDisc4,2020.2.10,Win32,60,,,space,0.616315,2,1,0.734795,,0,37,37,15,1,1a,15,3,19,
,,,,,,,,,,,,,,,,,,,,,,,,,,images/exp1b_trial_101_colour2_distractors4_l.png,l,1,029,001,2021-04-23_18h46.39.705,searchDisc4,2020.2.10,Win32,60,,,space,0.5992,1,1,0.65034,,0,38,38,215,1,1b,101,2,4,
,,,,,,,,,,,,,,,,,,,,,,,,,,images/exp2b_trial_88_colour3_distractors1_r.png,r,2,029,001,2021-04-23_18h46.39.705,searchDisc4,2020.2.10,Win32,60,,,space,0.50772,2,1,0.9559,,0,39,39,430,1,2b,88,3,1,
,,,,,,,,,,,,,,,,,,,,,,,,,,images/exp2a_trial_30_colour3_distractors1_l.png,l,1,029,001,2021-04-23_18h46.39.705,searchDisc4,2020.2.10,Win32,60,,,space,0.453595,1,1,0.688075,,0,40,40,258,1,2a,30,3,1,
,,,,,,,,,,,,,,,,,,,,,,,,,,images/exp2a_trial_50_colour3_distractors1_r.png,r,2,029,001,2021-04-23_18h46.39.705,searchDisc4,2020.2.10,Win32,60,,,space,0.3981,2,1,0.731115,,0,41,41,278,1,2a,50,3,1,
,,,,,,,,,,,,,,,,,,,,,,,,,,images/exp2b_trial_104_colour2_distractors31_l.png,l,1,029,001,2021-04-23_18h46.39.705,searchDisc4,2020.2.10,Win32,60,,,space,0.40485,1,1,0.635705,,0,42,42,446,1,2b,104,2,31,
,,,,,,,,,,,,,,,,,,,,,,,,,,images/exp1b_trial_7_colour2_distractors4_r.png,r,2,029,001,2021-04-23_18h46.39.705,searchDisc4,2020.2.10,Win32,60,,,space,0.419525,2,1,0.773955,,0,43,43,121,1,1b,7,2,4,
,,,,,,,,,,,,,,,,,,,,,,,,,,images/exp1b_trial_40_colour1_distractors9_r.png,r,2,029,001,2021-04-23_18h46.39.705,searchDisc4,2020.2.10,Win32,60,,,space,0.42673,2,1,0.93731,,0,44,44,154,1,1b,40,1,9,
,,,,,,,,,,,,,,,,,,,,,,,,,,images/exp1b_trial_3_colour1_distractors19_r.png,r,2,029,001,2021-04-23_18h46.39.705,searchDisc4,2020.2.10,Win32,60,,,space,0.436855,2,1,0.71665,,0,45,45,117,1,1b,3,1,19,
,,,,,,,,,,,,,,,,,,,,,,,,,,images/exp1b_trial_46_colour2_distractors9_r.png,r,2,029,001,2021-04-23_18h46.39.705,searchDisc4,2020.2.10,Win32,60,,,space,0.367605,2,1,0.792035,,0,46,46,160,1,1b,46,2,9,
,,,,,,,,,,,,,,,,,,,,,,,,,,images/exp2b_trial_50_colour3_distractors1_r.png,r,2,029,001,2021-04-23_18h46.39.705,searchDisc4,2020.2.10,Win32,60,,,space,0.4082,2,1,0.808395,,0,47,47,392,1,2b,50,3,1,
,,,,,,,,,,,,,,,,,,,,,,,,,,images/exp2b_trial_70_colour3_distractors9_l.png,l,1,029,001,2021-04-23_18h46.39.705,searchDisc4,2020.2.10,Win32,60,,,space,0.372705,1,1,0.745565,,0,48,48,412,1,2b,70,3,9,
,,,,,,,,,,,,,,,,,,,,,,,,,,images/exp2c_trial_78_colour1_distractors9_r.png,r,2,029,001,2021-04-23_18h46.39.705,searchDisc4,2020.2.10,Win32,60,,,space,0.397845,2,1,0.66844,,0,49,49,534,1,2c,78,1,9,
,,,,,,,,,,,,,,,,,,,,,,,,,,images/exp2c_trial_32_colour3_distractors9_l.png,l,1,029,001,2021-04-23_18h46.39.705,searchDisc4,2020.2.10,Win32,60,,,space,0.370065,1,1,0.71621,,0,50,50,488,1,2c,32,3,9,
,,,,,,,,,,,,,,,,,,,,,,,,,,images/exp1a_trial_49_colour2_distractors43_r.png,r,2,029,001,2021-04-23_18h46.39.705,searchDisc4,2020.2.10,Win32,60,,,space,0.345825,2,1,0.756815,,0,51,51,49,1,1a,49,2,43,
,,,,,,,,,,,,,,,,,,,,,,,,,,images/exp1b_trial_38_colour1_distractors1_r.png,r,2,029,001,2021-04-23_18h46.39.705,searchDisc4,2020.2.10,Win32,60,,,space,0.31387,2,1,0.953095,,0,52,52,152,1,1b,38,1,1,
,,,,,,,,,,,,,,,,,,,,,,,,,,images/exp1a_trial_28_colour2_distractors31_l.png,l,1,029,001,2021-04-23_18h46.39.705,searchDisc4,2020.2.10,Win32,60,,,space,0.361665,1,1,1.03265,,0,53,53,28,1,1a,28,2,31,
,,,,,,,,,,,,,,,,,,,,,,,,,,images/exp2a_trial_74_colour0_distractors0_r.png,r,2,029,001,2021-04-23_18h46.39.705,searchDisc4,2020.2.10,Win32,60,,,space,0.405375,2,1,0.62091,,0,54,54,302,1,2a,74,0,0,
,,,,,,,,,,,,,,,,,,,,,,,,,,images/exp2c_trial_80_colour1_distractors31_r.png,r,2,029,001,2021-04-23_18h46.39.705,searchDisc4,2020.2.10,Win32,60,,,space,0.40769,2,1,0.76253,,0,55,55,536,1,2c,80,1,31,
,,,,,,,,,,,,,,,,,,,,,,,,,,images/exp1a_trial_61_colour1_distractors43_l.png,l,1,029,001,2021-04-23_18h46.39.705,searchDisc4,2020.2.10,Win32,60,,,space,0.307135,1,1,1.08762,,0,56,56,61,1,1a,61,1,43,
,,,,,,,,,,,,,,,,,,,,,,,,,,images/exp2c_trial_61_colour1_distractors43_l.png,l,1,029,001,2021-04-23_18h46.39.705,searchDisc4,2020.2.10,Win32,60,,,space,0.370005,1,1,0.683125,,0,57,57,517,1,2c,61,1,43,
,,,,,,,,,,,,,,,,,,,,,,,,,,images/exp2a_trial_36_colour0_distractors0_r.png,r,2,029,001,2021-04-23_18h46.39.705,searchDisc4,2020.2.10,Win32,60,,,space,0.450335,2,1,0.594115,,0,58,58,264,1,2a,36,0,0,
,,,,,,,,,,,,,,,,,,,,,,,,,,images/exp1a_trial_75_colour0_distractors0_l.png,l,1,029,001,2021-04-23_18h46.39.705,searchDisc4,2020.2.10,Win32,60,,,space,0.381535,2,0,0.837965,space,0,59,59,75,1,1a,75,0,0,0.197385
,,,,,,,,,,,,,,,,,,,,,,,,,,images/exp2a_trial_37_colour0_distractors0_l.png,l,1,029,001,2021-04-23_18h46.39.705,searchDisc4,2020.2.10,Win32,60,,,space,1.841775,1,1,0.52704,,0,60,60,265,1,2a,37,0,0,
,,,,,,,,,,,,,,,,,,,,,,,,,,images/exp1b_trial_2_colour1_distractors9_r.png,r,2,029,001,2021-04-23_18h46.39.705,searchDisc4,2020.2.10,Win32,60,,,space,0.504295,2,1,0.63595,,0,61,61,116,1,1b,2,1,9,
,,,,,,,,,,,,,,,,,,,,,,,,,,images/exp1b_trial_6_colour2_distractors1_r.png,r,2,029,001,2021-04-23_18h46.39.705,searchDisc4,2020.2.10,Win32,60,,,space,0.420835,2,1,0.74388,,0,62,62,120,1,1b,6,2,1,
,,,,,,,,,,,,,,,,,,,,,,,,,,images/exp1a_trial_11_colour2_distractors43_r.png,r,2,029,001,2021-04-23_18h46.39.705,searchDisc4,2020.2.10,Win32,60,,,space,0.333395,2,1,0.711995,,0,63,63,11,1,1a,11,2,43,
,,,,,,,,,,,,,,,,,,,,,,,,,,images/exp2c_trial_11_colour2_distractors43_r.png,r,2,029,001,2021-04-23_18h46.39.705,searchDisc4,2020.2.10,Win32,60,,,space,0.332665,2,1,0.659005,,0,64,64,467,1,2c,11,2,43,
,,,,,,,,,,,,,,,,,,,,,,,,,,images/exp2a_trial_103_colour2_distractors19_l.png,l,1,029,001,2021-04-23_18h46.39.705,searchDisc4,2020.2.10,Win32,60,,,space,0.365535,1,1,0.710895,,0,65,65,331,1,2a,103,2,19,
,,,,,,,,,,,,,,,,,,,,,,,,,,images/exp2a_trial_39_colour1_distractors4_r.png,r,2,029,001,2021-04-23_18h46.39.705,searchDisc4,2020.2.10,Win32,60,,,space,0.398395,2,1,0.83112,,0,66,66,267,1,2a,39,1,4,
,,,,,,,,,,,,,,,,,,,,,,,,,,images/exp2a_trial_75_colour0_distractors0_l.png,l,1,029,001,2021-04-23_18h46.39.705,searchDisc4,2020.2.10,Win32,60,,,space,0.355135,1,1,0.70348,,0,67,67,303,1,2a,75,0,0,
,,,,,,,,,,,,,,,,,,,,,,,,,,images/exp1a_trial_23_colour1_distractors43_l.png,l,1,029,001,2021-04-23_18h46.39.705,searchDisc4,2020.2.10,Win32,60,,,space,0.39871,1,1,0.74786,,0,68,68,23,1,1a,23,1,43,
,,,,,,,,,,,,,,,,,,,,,,,,,,images/exp1b_trial_48_colour2_distractors31_r.png,r,2,029,001,2021-04-23_18h46.39.705,searchDisc4,2020.2.10,Win32,60,,,space,0.367225,2,1,0.720305,,0,69,69,162,1,1b,48,2,31,
,,,,,,,,,,,,,,,,,,,,,,,,,,images/exp1b_trial_105_colour2_distractors43_l.png,l,1,029,001,2021-04-23_18h46.39.705,searchDisc4,2020.2.10,Win32,60,,,space,0.34784,1,1,1.03529,,0,70,70,219,1,1b,105,2,43,
,,,,,,,,,,,,,,,,,,,,,,,,,,images/exp2a_trial_43_colour1_distractors43_r.png,r,2,029,001,2021-04-23_18h46.39.705,searchDisc4,2020.2.10,Win32,60,,,space,0.373695,2,1,0.655985,,0,71,71,271,1,2a,43,1,43,
,,,,,,,,,,,,,,,,,,,,,,,,,,images/exp1b_trial_75_colour0_distractors0_l.png,l,1,029,001,2021-04-23_18h46.39.705,searchDisc4,2020.2.10,Win32,60,,,space,0.35141,1,1,0.8059,,0,72,72,189,1,1b,75,0,0,
,,,,,,,,,,,,,,,,,,,,,,,,,,images/exp2c_trial_113_colour0_distractors0_l.png,l,1,029,001,2021-04-23_18h46.39.705,searchDisc4,2020.2.10,Win32,60,,,space,0.38031,1,1,0.744505,,0,73,73,569,1,2c,113,0,0,
,,,,,,,,,,,,,,,,,,,,,,,,,,images/exp2c_trial_49_colour2_distractors43_r.png,r,2,029,001,2021-04-23_18h46.39.705,searchDisc4,2020.2.10,Win32,60,,,space,0.373445,2,1,0.711655,,0,74,74,505,1,2c,49,2,43,
,,,,,,,,,,,,,,,,,,,,,,,,,,images/exp1a_trial_99_colour1_distractors43_l.png,l,1,029,001,2021-04-23_18h46.39.705,searchDisc4,2020.2.10,Win32,60,,,space,0.338505,1,1,0.715935,,0,75,75,99,1,1a,99,1,43,
,,,,,,,,,,,,,,,,,,,,,,,,,,images/exp2b_trial_51_colour3_distractors4_r.png,r,2,029,001,2021-04-23_18h46.39.705,searchDisc4,2020.2.10,Win32,60,,,space,0.377755,2,1,0.693635,,0,76,76,393,1,2b,51,3,4,
,,,,,,,,,,,,,,,,,,,,,,,,,,images/exp2c_trial_72_colour3_distractors31_l.png,l,1,029,001,2021-04-23_18h46.39.705,searchDisc4,2020.2.10,Win32,60,,,space,0.35231,1,1,0.766825,,0,77,77,528,1,2c,72,3,31,
,,,,,,,,,,,,,,,,,,,,,,,,,,images/exp1a_trial_90_colour3_distractors9_r.png,r,2,029,001,2021-04-23_18h46.39.705,searchDisc4,2020.2.10,Win32,60,,,space,0.345025,2,1,0.731765,,0,78,78,90,1,1a,90,3,9,
,,,,,,,,,,,,,,,,,,,,,,,,,,images/exp2b_trial_68_colour3_distractors1_l.png,l,1,029,001,2021-04-23_18h46.39.705,searchDisc4,2020.2.10,Win32,60,,,space,0.32228,1,1,0.856675,,0,79,79,410,1,2b,68,3,1,
,,,,,,,,,,,,,,,,,,,,,,,,,,images/exp2b_trial_29_colour2_distractors43_l.png,l,1,029,001,2021-04-23_18h46.39.705,searchDisc4,2020.2.10,Win32,60,,,space,0.279395,1,1,0.692465,,0,80,80,371,1,2b,29,2,43,
,,,,,,,,,,,,,,,,,,,,,,,,,,images/exp1a_trial_92_colour3_distractors31_r.png,r,2,029,001,2021-04-23_18h46.39.705,searchDisc4,2020.2.10,Win32,60,,,space,0.304045,2,1,0.83661,,0,81,81,92,1,1a,92,3,31,
,,,,,,,,,,,,,,,,,,,,,,,,,,images/exp1a_trial_26_colour2_distractors9_l.png,l,1,029,001,2021-04-23_18h46.39.705,searchDisc4,2020.2.10,Win32,60,,,space,0.33078,1,1,0.78395,,0,82,82,26,1,1a,26,2,9,
,,,,,,,,,,,,,,,,,,,,,,,,,,images/exp2a_trial_33_colour3_distractors19_l.png,l,1,029,001,2021-04-23_18h46.39.705,searchDisc4,2020.2.10,Win32,60,,,space,0.27884,1,1,0.786395,,0,83,83,261,1,2a,33,3,19,
,,,,,,,,,,,,,,,,,,,,,,,,,,images/exp1a_trial_22_colour1_distractors31_l.png,l,1,029,001,2021-04-23_18h46.39.705,searchDisc4,2020.2.10,Win32,60,,,space,0.315285,1,1,0.74358,,0,84,84,22,1,1a,22,1,31,
,,,,,,,,,,,,,,,,,,,,,,,,,,images/exp2c_trial_45_colour2_distractors4_r.png,r,2,029,001,2021-04-23_18h46.39.705,searchDisc4,2020.2.10,Win32,60,,,space,0.329425,2,1,1.304205,,0,85,85,501,1,2c,45,2,4,
,,,,,,,,,,,,,,,,,,,,,,,,,,images/exp2b_trial_75_colour0_distractors0_l.png,l,1,029,001,2021-04-23_18h46.39.705,searchDisc4,2020.2.10,Win32,60,,,space,0.366955,1,1,1.05702,,0,86,86,417,1,2b,75,0,0,
,,,,,,,,,,,,,,,,,,,,,,,,,,images/exp1b_trial_74_colour0_distractors0_r.png,r,2,029,001,2021-04-23_18h46.39.705,searchDisc4,2020.2.10,Win32,60,,,space,0.27917,2,1,0.65431,,0,87,87,188,1,1b,74,0,0,
,,,,,,,,,,,,,,,,,,,,,,,,,,images/exp1b_trial_9_colour2_distractors19_r.png,r,2,029,001,2021-04-23_18h46.39.705,searchDisc4,2020.2.10,Win32,60,,,space,0.333375,2,1,0.874915,,0,88,88,123,1,1b,9,2,19,
,,,,,,,,,,,,,,,,,,,,,,,,,,images/exp2c_trial_13_colour3_distractors4_r.png,r,2,029,001,2021-04-23_18h46.39.705,searchDisc4,2020.2.10,Win32,60,,,space,0.289825,2,1,0.70734,,0,89,89,469,1,2c,13,3,4,
,,,,,,,,,,,,,,,,,,,,,,,,,,images/exp2c_trial_57_colour1_distractors4_l.png,l,1,029,001,2021-04-23_18h46.39.705,searchDisc4,2020.2.10,Win32,60,,,space,0.333025,1,1,0.66273,,0,90,90,513,1,2c,57,1,4,
,,,,,,,,,,,,,,,,,,,,,,,,,,images/exp1a_trial_17_colour3_distractors43_r.png,r,2,029,001,2021-04-23_18h46.39.705,searchDisc4,2020.2.10,Win32,60,,,space,0.342045,2,1,0.691515,,0,91,91,17,1,1a,17,3,43,
,,,,,,,,,,,,,,,,,,,,,,,,,,images/exp2a_trial_64_colour2_distractors9_l.png,l,1,029,001,2021-04-23_18h46.39.705,searchDisc4,2020.2.10,Win32,60,,,space,0.453905,1,1,0.96492,,0,92,92,292,1,2a,64,2,9,
,,,,,,,,,,,,,,,,,,,,,,,,,,images/exp2b_trial_15_colour3_distractors19_r.png,r,2,029,001,2021-04-23_18h46.39.705,searchDisc4,2020.2.10,Win32,60,,,space,0.279625,2,1,0.73012,,0,93,93,357,1,2b,15,3,19,
,,,,,,,,,,,,,,,,,,,,,,,,,,images/exp1b_trial_19_colour1_distractors4_l.png,l,1,029,001,2021-04-23_18h46.39.705,searchDisc4,2020.2.10,Win32,60,,,space,0.31081,1,1,0.78602,,0,94,94,133,1,1b,19,1,4,
,,,,,,,,,,,,,,,,,,,,,,,,,,images/exp2b_trial_26_colour2_distractors9_l.png,l,1,029,001,2021-04-23_18h46.39.705,searchDisc4,2020.2.10,Win32,60,,,space,0.33279,1,1,0.72988,,0,95,95,368,1,2b,26,2,9,
,,,,,,,,,,,,,,,,,,,,,,,,,,images/exp2c_trial_91_colour3_distractors19_r.png,r,2,029,001,2021-04-23_18h46.39.705,searchDisc4,2020.2.10,Win32,60,,,space,0.284815,2,1,0.694495,,0,96,96,547,1,2c,91,3,19,
,,,,,,,,,,,,,,,,,,,,,,,,,,images/exp1b_trial_29_colour2_distractors43_l.png,l,1,029,001,2021-04-23_18h46.39.705,searchDisc4,2020.2.10,Win32,60,,,space,0.38873,1,1,1.743215,,0,97,97,143,1,1b,29,2,43,
,,,,,,,,,,,,,,,,,,,,,,,,,,images/exp2a_trial_85_colour2_distractors19_r.png,r,2,029,001,2021-04-23_18h46.39.705,searchDisc4,2020.2.10,Win32,60,,,space,0.3157,2,1,0.790345,,0,98,98,313,1,2a,85,2,19,
,,,,,,,,,,,,,,,,,,,,,,,,,,images/exp1b_trial_67_colour2_distractors43_l.png,l,1,029,001,2021-04-23_18h46.39.705,searchDisc4,2020.2.10,Win32,60,,,space,0.347715,1,1,2.296595,,0,99,99,181,1,1b,67,2,43,
,,,,,,,,,,,,,,,,,,,,,,,,,,images/exp2c_trial_17_colour3_distractors43_r.png,r,2,029,001,2021-04-23_18h46.39.705,searchDisc4,2020.2.10,Win32,60,,,space,0.348065,2,1,0.86389,,0,100,100,473,1,2c,17,3,43,
,,,,,,,,,,,,,,,,,,,,,,,,,,images/exp2b_trial_56_colour1_distractors1_l.png,l,1,029,001,2021-04-23_18h46.39.705,searchDisc4,2020.2.10,Win32,60,,,space,0.31744,1,1,0.72047,,0,101,101,398,1,2b,56,1,1,
,,,,,,,,,,,,,,,,,,,,,,,,,,images/exp2b_trial_45_colour2_distractors4_r.png,r,2,029,001,2021-04-23_18h46.39.705,searchDisc4,2020.2.10,Win32,60,,,space,0.38513,2,1,0.678495,,0,102,102,387,1,2b,45,2,4,
,,,,,,,,,,,,,,,,,,,,,,,,,,images/exp1b_trial_20_colour1_distractors9_l.png,l,1,029,001,2021-04-23_18h46.39.705,searchDisc4,2020.2.10,Win32,60,,,space,0.36637,1,1,0.6657,,0,103,103,134,1,1b,20,1,9,
,,,,,,,,,,,,,,,,,,,,,,,,,,images/exp1b_trial_4_colour1_distractors31_r.png,r,2,029,001,2021-04-23_18h46.39.705,searchDisc4,2020.2.10,Win32,60,,,space,0.38841,2,1,0.9087,,0,104,104,118,1,1b,4,1,31,
,,,,,,,,,,,,,,,,,,,,,,,,,,images/exp2b_trial_86_colour2_distractors31_r.png,r,2,029,001,2021-04-23_18h46.39.705,searchDisc4,2020.2.10,Win32,60,,,space,0.367195,2,1,0.78244,,0,105,105,428,1,2b,86,2,31,
,,,,,,,,,,,,,,,,,,,,,,,,,,images/exp1b_trial_111_colour3_distractors43_l.png,l,1,029,001,2021-04-23_18h46.39.705,searchDisc4,2020.2.10,Win32,60,,,space,0.31254,1,1,1.023695,,0,106,106,225,1,1b,111,3,43,
,,,,,,,,,,,,,,,,,,,,,,,,,,images/exp2b_trial_74_colour0_distractors0_r.png,r,2,029,001,2021-04-23_18h46.39.705,searchDisc4,2020.2.10,Win32,60,,,space,0.345615,2,1,0.70106,,0,107,107,416,1,2b,74,0,0,
,,,,,,,,,,,,,,,,,,,,,,,,,,images/exp2b_trial_108_colour3_distractors9_l.png,l,1,029,001,2021-04-23_18h46.39.705,searchDisc4,2020.2.10,Win32,60,,,space,0.41433,1,1,0.76463,,0,108,108,450,1,2b,108,3,9,
,,,,,,,,,,,,,,,,,,,,,,,,,,images/exp1a_trial_72_colour3_distractors31_l.png,l,1,029,001,2021-04-23_18h46.39.705,searchDisc4,2020.2.10,Win32,60,,,space,1.083,1,1,0.90785,,0,109,109,72,1,1a,72,3,31,
,,,,,,,,,,,,,,,,,,,,,,,,,,images/exp2c_trial_1_colour1_distractors4_r.png,r,2,029,001,2021-04-23_18h46.39.705,searchDisc4,2020.2.10,Win32,60,,,space,1.0361,2,1,0.65738,,0,110,110,457,1,2c,1,1,4,
,,,,,,,,,,,,,,,,,,,,,,,,,,images/exp2a_trial_3_colour1_distractors19_r.png,r,2,029,001,2021-04-23_18h46.39.705,searchDisc4,2020.2.10,Win32,60,,,space,1.20014,2,1,0.680325,,0,111,111,231,1,2a,3,1,19,
,,,,,,,,,,,,,,,,,,,,,,,,,,images/exp2c_trial_58_colour1_distractors9_l.png,l,1,029,001,2021-04-23_18h46.39.705,searchDisc4,2020.2.10,Win32,60,,,space,0.44563,1,1,0.529475,,0,112,112,514,1,2c,58,1,9,
,,,,,,,,,,,,,,,,,,,,,,,,,,images/exp1a_trial_67_colour2_distractors43_l.png,l,1,029,001,2021-04-23_18h46.39.705,searchDisc4,2020.2.10,Win32,60,,,space,0.461675,1,1,1.420385,,0,113,113,67,1,1a,67,2,43,
,,,,,,,,,,,,,,,,,,,,,,,,,,images/exp2b_trial_94_colour1_distractors1_l.png,l,1,029,001,2021-04-23_18h46.39.705,searchDisc4,2020.2.10,Win32,60,,,space,0.304105,1,1,0.73556,,0,114,114,436,1,2b,94,1,1,
,,,,,,,,,,,,,,,,,,,,,,,,,,images/exp1a_trial_100_colour2_distractors1_l.png,l,1,029,001,2021-04-23_18h46.39.705,searchDisc4,2020.2.10,Win32,60,,,space,0.37104,2,0,1.28642,,0,115,115,100,1,1a,100,2,1,
,,,,,,,,,,,,,,,,,,,,,,,,,,images/exp2c_trial_33_colour3_distractors19_l.png,l,1,029,001,2021-04-23_18h46.39.705,searchDisc4,2020.2.10,Win32,60,,,space,0.49419,1,1,0.951055,,0,116,116,489,1,2c,33,3,19,
,,,,,,,,,,,,,,,,,,,,,,,,,,images/exp2b_trial_19_colour1_distractors4_l.png,l,1,029,001,2021-04-23_18h46.39.705,searchDisc4,2020.2.10,Win32,60,,,space,0.383085,1,1,0.664285,,0,117,117,361,1,2b,19,1,4,
,,,,,,,,,,,,,,,,,,,,,,,,,,images/exp2a_trial_99_colour1_distractors43_l.png,l,1,029,001,2021-04-23_18h46.39.705,searchDisc4,2020.2.10,Win32,60,,,space,0.36673,1,1,0.675525,,0,118,118,327,1,2a,99,1,43,
,,,,,,,,,,,,,,,,,,,,,,,,,,images/exp1a_trial_48_colour2_distractors31_r.png,r,2,029,001,2021-04-23_18h46.39.705,searchDisc4,2020.2.10,Win32,60,,,space,0.37471,2,1,0.68504,space,0,119,119,48,1,1a,48,2,31,0.281355
,,,,,,,,,,,,,,,,,,,,,,,,,,images/exp2a_trial_86_colour2_distractors31_r.png,r,2,029,001,2021-04-23_18h46.39.705,searchDisc4,2020.2.10,Win32,60,,,space,1.22028,2,1,0.577155,,0,120,120,314,1,2a,86,2,31,
,,,,,,,,,,,,,,,,,,,,,,,,,,images/exp1a_trial_25_colour2_distractors4_l.png,l,1,029,001,2021-04-23_18h46.39.705,searchDisc4,2020.2.10,Win32,60,,,space,0.53967,1,1,0.534905,,0,121,121,25,1,1a,25,2,4,
,,,,,,,,,,,,,,,,,,,,,,,,,,images/exp1a_trial_76_colour1_distractors1_r.png,r,2,029,001,2021-04-23_18h46.39.705,searchDisc4,2020.2.10,Win32,60,,,space,0.485055,2,1,0.708305,,0,122,122,76,1,1a,76,1,1,
,,,,,,,,,,,,,,,,,,,,,,,,,,images/exp2c_trial_34_colour3_distractors31_l.png,l,1,029,001,2021-04-23_18h46.39.705,searchDisc4,2020.2.10,Win32,60,,,space,0.28432,1,1,1.2178,,0,123,123,490,1,2c,34,3,31,
,,,,,,,,,,,,,,,,,,,,,,,,,,images/exp1a_trial_9_colour2_distractors19_r.png,r,2,029,001,2021-04-23_18h46.39.705,searchDisc4,2020.2.10,Win32,60,,,space,0.350715,2,1,0.723505,,0,124,124,9,1,1a,9,2,19,
,,,,,,,,,,,,,,,,,,,,,,,,,,images/exp2b_trial_18_colour1_distractors1_l.png,l,1,029,001,2021-04-23_18h46.39.705,searchDisc4,2020.2.10,Win32,60,,,space,0.377835,1,1,0.766025,,0,125,125,360,1,2b,18,1,1,
,,,,,,,,,,,,,,,,,,,,,,,,,,images/exp1b_trial_32_colour3_distractors9_l.png,l,1,029,001,2021-04-23_18h46.39.705,searchDisc4,2020.2.10,Win32,60,,,space,0.3823,2,0,1.092745,,0,126,126,146,1,1b,32,3,9,
,,,,,,,,,,,,,,,,,,,,,,,,,,images/exp2c_trial_102_colour2_distractors9_l.png,l,1,029,001,2021-04-23_18h46.39.705,searchDisc4,2020.2.10,Win32,60,,,space,0.635155,1,1,0.882875,,0,127,127,558,1,2c,102,2,9,
,,,,,,,,,,,,,,,,,,,,,,,,,,images/exp2b_trial_7_colour2_distractors4_r.png,r,2,029,001,2021-04-23_18h46.39.705,searchDisc4,2020.2.10,Win32,60,,,space,0.43423,2,1,0.744245,,0,128,128,349,1,2b,7,2,4,
,,,,,,,,,,,,,,,,,,,,,,,,,,images/exp2b_trial_46_colour2_distractors9_r.png,r,2,029,001,2021-04-23_18h46.39.705,searchDisc4,2020.2.10,Win32,60,,,space,0.36909,2,1,0.664775,,0,129,129,388,1,2b,46,2,9,
,,,,,,,,,,,,,,,,,,,,,,,,,,images/exp1a_trial_34_colour3_distractors31_l.png,l,1,029,001,2021-04-23_18h46.39.705,searchDisc4,2020.2.10,Win32,60,,,space,0.35501,1,1,0.6482,,0,130,130,34,1,1a,34,3,31,
,,,,,,,,,,,,,,,,,,,,,,,,,,images/exp2b_trial_0_colour1_distractors1_r.png,r,2,029,001,2021-04-23_18h46.39.705,searchDisc4,2020.2.10,Win32,60,,,space,0.350345,2,1,0.76182,,0,131,131,342,1,2b,0,1,1,
,,,,,,,,,,,,,,,,,,,,,,,,,,images/exp2c_trial_107_colour3_distractors4_l.png,l,1,029,001,2021-04-23_18h46.39.705,searchDisc4,2020.2.10,Win32,60,,,space,0.31654,1,1,0.764115,,0,132,132,563,1,2c,107,3,4,
,,,,,,,,,,,,,,,,,,,,,,,,,,images/exp2c_trial_52_colour3_distractors9_r.png,r,2,029,001,2021-04-23_18h46.39.705,searchDisc4,2020.2.10,Win32,60,,,space,0.3648,2,1,0.70603,,0,133,133,508,1,2c,52,3,9,
,,,,,,,,,,,,,,,,,,,,,,,,,,images/exp1b_trial_51_colour3_distractors4_r.png,r,2,029,001,2021-04-23_18h46.39.705,searchDisc4,2020.2.10,Win32,60,,,space,0.330825,2,1,1.203965,,0,134,134,165,1,1b,51,3,4,
,,,,,,,,,,,,,,,,,,,,,,,,,,images/exp2b_trial_98_colour1_distractors31_l.png,l,1,029,001,2021-04-23_18h46.39.705,searchDisc4,2020.2.10,Win32,60,,,space,0.34592,1,1,0.75392,,0,135,135,440,1,2b,98,1,31,
,,,,,,,,,,,,,,,,,,,,,,,,,,images/exp2b_trial_65_colour2_distractors19_l.png,l,1,029,001,2021-04-23_18h46.39.705,searchDisc4,2020.2.10,Win32,60,,,space,0.363385,1,1,0.817625,,0,136,136,407,1,2b,65,2,19,
,,,,,,,,,,,,,,,,,,,,,,,,,,images/exp2c_trial_29_colour2_distractors43_l.png,l,1,029,001,2021-04-23_18h46.39.705,searchDisc4,2020.2.10,Win32,60,,,space,0.33675,1,1,0.77874,,0,137,137,485,1,2c,29,2,43,
,,,,,,,,,,,,,,,,,,,,,,,,,,images/exp2c_trial_16_colour3_distractors31_r.png,r,2,029,001,2021-04-23_18h46.39.705,searchDisc4,2020.2.10,Win32,60,,,space,0.344695,2,1,0.684645,,0,138,138,472,1,2c,16,3,31,
,,,,,,,,,,,,,,,,,,,,,,,,,,images/exp1a_trial_4_colour1_distractors31_r.png,r,2,029,001,2021-04-23_18h46.39.705,searchDisc4,2020.2.10,Win32,60,,,space,0.391495,2,1,0.917775,,0,139,139,4,1,1a,4,1,31,
,,,,,,,,,,,,,,,,,,,,,,,,,,images/exp2c_trial_65_colour2_distractors19_l.png,l,1,029,001,2021-04-23_18h46.39.705,searchDisc4,2020.2.10,Win32,60,,,space,0.555725,1,1,0.70603,,0,140,140,521,1,2c,65,2,19,
,,,,,,,,,,,,,,,,,,,,,,,,,,images/exp1a_trial_103_colour2_distractors19_l.png,l,1,029,001,2021-04-23_18h46.39.705,searchDisc4,2020.2.10,Win32,60,,,space,0.567065,1,1,0.938785,,0,141,141,103,1,1a,103,2,19,
,,,,,,,,,,,,,,,,,,,,,,,,,,images/exp2c_trial_82_colour2_distractors1_r.png,r,2,029,001,2021-04-23_18h46.39.705,searchDisc4,2020.2.10,Win32,60,,,space,0.37854,2,1,0.627515,,0,142,142,538,1,2c,82,2,1,
,,,,,,,,,,,,,,,,,,,,,,,,,,images/exp1b_trial_26_colour2_distractors9_l.png,l,1,029,001,2021-04-23_18h46.39.705,searchDisc4,2020.2.10,Win32,60,,,space,0.374785,1,1,0.725875,,0,143,143,140,1,1b,26,2,9,
,,,,,,,,,,,,,,,,,,,,,,,,,,images/exp2a_trial_98_colour1_distractors31_l.png,l,1,029,001,2021-04-23_18h46.39.705,searchDisc4,2020.2.10,Win32,60,,,space,0.382715,1,1,0.92336,,0,144,144,326,1,2a,98,1,31,
,,,,,,,,,,,,,,,,,,,,,,,,,,images/exp1a_trial_24_colour2_distractors1_l.png,l,1,029,001,2021-04-23_18h46.39.705,searchDisc4,2020.2.10,Win32,60,,,space,0.361175,1,1,0.711535,,0,145,145,24,1,1a,24,2,1,
,,,,,,,,,,,,,,,,,,,,,,,,,,images/exp2a_trial_35_colour3_distractors43_l.png,l,1,029,001,2021-04-23_18h46.39.705,searchDisc4,2020.2.10,Win32,60,,,space,0.370745,1,1,0.654645,,0,146,146,263,1,2a,35,3,43,
,,,,,,,,,,,,,,,,,,,,,,,,,,images/exp2c_trial_75_colour0_distractors0_l.png,l,1,029,001,2021-04-23_18h46.39.705,searchDisc4,2020.2.10,Win32,60,,,space,0.35635,1,1,0.68819,,0,147,147,531,1,2c,75,0,0,
,,,,,,,,,,,,,,,,,,,,,,,,,,images/exp2c_trial_85_colour2_distractors19_r.png,r,2,029,001,2021-04-23_18h46.39.705,searchDisc4,2020.2.10,Win32,60,,,space,0.33238,2,1,0.78269,,0,148,148,541,1,2c,85,2,19,
,,,,,,,,,,,,,,,,,,,,,,,,,,images/exp2b_trial_33_colour3_distractors19_l.png,l,1,029,001,2021-04-23_18h46.39.705,searchDisc4,2020.2.10,Win32,60,,,space,0.420045,1,1,0.726065,,0,149,149,375,1,2b,33,3,19,
,,,,,,,,,,,,,,,,,,,,,,,,,,images/exp1b_trial_64_colour2_distractors9_l.png,l,1,029,001,2021-04-23_18h46.39.705,searchDisc4,2020.2.10,Win32,60,,,space,0.29357,1,1,0.72672,,0,150,150,178,1,1b,64,2,9,
,,,,,,,,,,,,,,,,,,,,,,,,,,images/exp1a_trial_71_colour3_distractors19_l.png,l,1,029,001,2021-04-23_18h46.39.705,searchDisc4,2020.2.10,Win32,60,,,space,0.26265,1,1,0.789625,,0,151,151,71,1,1a,71,3,19,
,,,,,,,,,,,,,,,,,,,,,,,,,,images/exp1b_trial_109_colour3_distractors19_l.png,l,1,029,001,2021-04-23_18h46.39.705,searchDisc4,2020.2.10,Win32,60,,,space,0.29298,1,1,1.025725,,0,152,152,223,1,1b,109,3,19,
,,,,,,,,,,,,,,,,,,,,,,,,,,images/exp2c_trial_41_colour1_distractors19_r.png,r,2,029,001,2021-04-23_18h46.39.705,searchDisc4,2020.2.10,Win32,60,,,space,0.195925,2,1,0.679395,,0,153,153,497,1,2c,41,1,19,
,,,,,,,,,,,,,,,,,,,,,,,,,,images/exp2b_trial_55_colour3_distractors43_r.png,r,2,029,001,2021-04-23_18h46.39.705,searchDisc4,2020.2.10,Win32,60,,,space,0.350255,2,1,0.69082,,0,154,154,397,1,2b,55,3,43,
,,,,,,,,,,,,,,,,,,,,,,,,,,images/exp1a_trial_8_colour2_distractors9_r.png,r,2,029,001,2021-04-23_18h46.39.705,searchDisc4,2020.2.10,Win32,60,,,space,0.329635,2,1,0.790405,,0,155,155,8,1,1a,8,2,9,
,,,,,,,,,,,,,,,,,,,,,,,,,,images/exp2c_trial_89_colour3_distractors4_r.png,r,2,029,001,2021-04-23_18h46.39.705,searchDisc4,2020.2.10,Win32,60,,,space,0.32439,2,1,0.691565,,0,156,156,545,1,2c,89,3,4,
,,,,,,,,,,,,,,,,,,,,,,,,,,images/exp2a_trial_77_colour1_distractors4_r.png,r,2,029,001,2021-04-23_18h46.39.705,searchDisc4,2020.2.10,Win32,60,,,space,0.3306,1,0,0.73218,,0,157,157,305,1,2a,77,1,4,
,,,,,,,,,,,,,,,,,,,,,,,,,,images/exp2b_trial_81_colour1_distractors43_r.png,r,2,029,001,2021-04-23_18h46.39.705,searchDisc4,2020.2.10,Win32,60,,,space,0.368375,2,1,0.899425,,0,158,158,423,1,2b,81,1,43,
,,,,,,,,,,,,,,,,,,,,,,,,,,images/exp1b_trial_35_colour3_distractors43_l.png,l,1,029,001,2021-04-23_18h46.39.705,searchDisc4,2020.2.10,Win32,60,,,space,0.272785,1,1,1.31607,,0,159,159,149,1,1b,35,3,43,
,,,,,,,,,,,,,,,,,,,,,,,,,,images/exp1a_trial_16_colour3_distractors31_r.png,r,2,029,001,2021-04-23_18h46.39.705,searchDisc4,2020.2.10,Win32,60,,,space,0.33524,2,1,0.81388,,0,160,160,16,1,1a,16,3,31,
,,,,,,,,,,,,,,,,,,,,,,,,,,images/exp2c_trial_74_colour0_distractors0_r.png,r,2,029,001,2021-04-23_18h46.39.705,searchDisc4,2020.2.10,Win32,60,,,space,0.412935,2,1,0.773505,,0,161,161,530,1,2c,74,0,0,
,,,,,,,,,,,,,,,,,,,,,,,,,,images/exp2a_trial_29_colour2_distractors43_l.png,l,1,029,001,2021-04-23_18h46.39.705,searchDisc4,2020.2.10,Win32,60,,,space,0.319135,1,1,0.69081,,0,162,162,257,1,2a,29,2,43,
,,,,,,,,,,,,,,,,,,,,,,,,,,images/exp1a_trial_91_colour3_distractors19_r.png,r,2,029,001,2021-04-23_18h46.39.705,searchDisc4,2020.2.10,Win32,60,,,space,0.362905,2,1,1.134855,,0,163,163,91,1,1a,91,3,19,
,,,,,,,,,,,,,,,,,,,,,,,,,,images/exp2a_trial_101_colour2_distractors4_l.png,l,1,029,001,2021-04-23_18h46.39.705,searchDisc4,2020.2.10,Win32,60,,,space,0.31849,1,1,0.81212,,0,164,164,329,1,2a,101,2,4,
,,,,,,,,,,,,,,,,,,,,,,,,,,images/exp1b_trial_69_colour3_distractors4_l.png,l,1,029,001,2021-04-23_18h46.39.705,searchDisc4,2020.2.10,Win32,60,,,space,0.344805,1,1,0.810695,,0,165,165,183,1,1b,69,3,4,
,,,,,,,,,,,,,,,,,,,,,,,,,,images/exp2b_trial_82_colour2_distractors1_r.png,r,2,029,001,2021-04-23_18h46.39.705,searchDisc4,2020.2.10,Win32,60,,,space,0.318905,2,1,0.578205,,0,166,166,424,1,2b,82,2,1,
,,,,,,,,,,,,,,,,,,,,,,,,,,images/exp2a_trial_41_colour1_distractors19_r.png,r,2,029,001,2021-04-23_18h46.39.705,searchDisc4,2020.2.10,Win32,60,,,space,0.38519,2,1,0.76892,,0,167,167,269,1,2a,41,1,19,
,,,,,,,,,,,,,,,,,,,,,,,,,,images/exp2b_trial_93_colour3_distractors43_r.png,r,2,029,001,2021-04-23_18h46.39.705,searchDisc4,2020.2.10,Win32,60,,,space,0.32738,2,1,0.97622,,0,168,168,435,1,2b,93,3,43,
,,,,,,,,,,,,,,,,,,,,,,,,,,images/exp2b_trial_25_colour2_distractors4_l.png,l,1,029,001,2021-04-23_18h46.39.705,searchDisc4,2020.2.10,Win32,60,,,space,0.349975,1,1,0.741405,,0,169,169,367,1,2b,25,2,4,
,,,,,,,,,,,,,,,,,,,,,,,,,,images/exp2a_trial_15_colour3_distractors19_r.png,r,2,029,001,2021-04-23_18h46.39.705,searchDisc4,2020.2.10,Win32,60,,,space,0.51363,2,1,0.607245,,0,170,170,243,1,2a,15,3,19,
,,,,,,,,,,,,,,,,,,,,,,,,,,images/exp2c_trial_44_colour2_distractors1_r.png,r,2,029,001,2021-04-23_18h46.39.705,searchDisc4,2020.2.10,Win32,60,,,space,0.32387,2,1,0.686985,,0,171,171,500,1,2c,44,2,1,
,,,,,,,,,,,,,,,,,,,,,,,,,,images/exp1a_trial_57_colour1_distractors4_l.png,l,1,029,001,2021-04-23_18h46.39.705,searchDisc4,2020.2.10,Win32,60,,,space,0.47069,1,1,0.75052,,0,172,172,57,1,1a,57,1,4,
,,,,,,,,,,,,,,,,,,,,,,,,,,images/exp2a_trial_17_colour3_distractors43_r.png,r,2,029,001,2021-04-23_18h46.39.705,searchDisc4,2020.2.10,Win32,60,,,space,0.444835,2,1,0.802795,,0,173,173,245,1,2a,17,3,43,
,,,,,,,,,,,,,,,,,,,,,,,,,,images/exp2a_trial_32_colour3_distractors9_l.png,l,1,029,001,2021-04-23_18h46.39.705,searchDisc4,2020.2.10,Win32,60,,,space,0.577015,1,1,0.64741,,0,174,174,260,1,2a,32,3,9,
,,,,,,,,,,,,,,,,,,,,,,,,,,images/exp1b_trial_99_colour1_distractors43_l.png,l,1,029,001,2021-04-23_18h46.39.705,searchDisc4,2020.2.10,Win32,60,,,space,0.511275,1,1,1.31374,,0,175,175,213,1,1b,99,1,43,
,,,,,,,,,,,,,,,,,,,,,,,,,,images/exp2b_trial_37_colour0_distractors0_l.png,l,1,029,001,2021-04-23_18h46.39.705,searchDisc4,2020.2.10,Win32,60,,,space,0.379865,1,1,0.786085,,0,176,176,379,1,2b,37,0,0,
,,,,,,,,,,,,,,,,,,,,,,,,,,images/exp1b_trial_25_colour2_distractors4_l.png,l,1,029,001,2021-04-23_18h46.39.705,searchDisc4,2020.2.10,Win32,60,,,space,0.5292,1,1,0.90201,,0,177,177,139,1,1b,25,2,4,
,,,,,,,,,,,,,,,,,,,,,,,,,,images/exp2b_trial_85_colour2_distractors19_r.png,r,2,029,001,2021-04-23_18h46.39.705,searchDisc4,2020.2.10,Win32,60,,,space,0.3837,2,1,0.69621,,0,178,178,427,1,2b,85,2,19,
,,,,,,,,,,,,,,,,,,,,,,,,,,images/exp2b_trial_78_colour1_distractors9_r.png,r,2,029,001,2021-04-23_18h46.39.705,searchDisc4,2020.2.10,Win32,60,,,space,0.359845,2,1,0.77399,space,0,179,179,420,1,2b,78,1,9,6.2976
,,,,,,,,,,,,,,,,,,,,,,,,,,images/exp2a_trial_14_colour3_distractors9_r.png,r,2,029,001,2021-04-23_18h46.39.705,searchDisc4,2020.2.10,Win32,60,,,space,1.10355,2,1,0.527745,,0,180,180,242,1,2a,14,3,9,
,,,,,,,,,,,,,,,,,,,,,,,,,,images/exp1b_trial_82_colour2_distractors1_r.png,r,2,029,001,2021-04-23_18h46.39.705,searchDisc4,2020.2.10,Win32,60,,,space,0.35696,2,1,0.88384,,0,181,181,196,1,1b,82,2,1,
,,,,,,,,,,,,,,,,,,,,,,,,,,images/exp1b_trial_110_colour3_distractors31_l.png,l,1,029,001,2021-04-23_18h46.39.705,searchDisc4,2020.2.10,Win32,60,,,space,0.364925,1,1,2.29301,,0,182,182,224,1,1b,110,3,31,
,,,,,,,,,,,,,,,,,,,,,,,,,,images/exp2c_trial_40_colour1_distractors9_r.png,r,2,029,001,2021-04-23_18h46.39.705,searchDisc4,2020.2.10,Win32,60,,,space,0.306525,2,1,0.58901,,0,183,183,496,1,2c,40,1,9,
,,,,,,,,,,,,,,,,,,,,,,,,,,images/exp2c_trial_93_colour3_distractors43_r.png,r,2,029,001,2021-04-23_18h46.39.705,searchDisc4,2020.2.10,Win32,60,,,space,0.28932,2,1,0.616005,,0,184,184,549,1,2c,93,3,43,
,,,,,,,,,,,,,,,,,,,,,,,,,,images/exp1b_trial_57_colour1_distractors4_l.png,l,1,029,001,2021-04-23_18h46.39.705,searchDisc4,2020.2.10,Win32,60,,,space,0.40103,1,1,1.002115,,0,185,185,171,1,1b,57,1,4,
,,,,,,,,,,,,,,,,,,,,,,,,,,images/exp2b_trial_66_colour2_distractors31_l.png,l,1,029,001,2021-04-23_18h46.39.705,searchDisc4,2020.2.10,Win32,60,,,space,0.23222,1,1,0.652925,,0,186,186,408,1,2b,66,2,31,
,,,,,,,,,,,,,,,,,,,,,,,,,,images/exp1b_trial_21_colour1_distractors19_l.png,l,1,029,001,2021-04-23_18h46.39.705,searchDisc4,2020.2.10,Win32,60,,,space,0.28804,1,1,0.69009,,0,187,187,135,1,1b,21,1,19,
,,,,,,,,,,,,,,,,,,,,,,,,,,images/exp1b_trial_60_colour1_distractors31_l.png,l,1,029,001,2021-04-23_18h46.39.705,searchDisc4,2020.2.10,Win32,60,,,space,0.334755,1,1,1.19123,,0,188,188,174,1,1b,60,1,31,
,,,,,,,,,,,,,,,,,,,,,,,,,,images/exp2a_trial_105_colour2_distractors43_l.png,l,1,029,001,2021-04-23_18h46.39.705,searchDisc4,2020.2.10,Win32,60,,,space,0.34666,1,1,0.707505,,0,189,189,333,1,2a,105,2,43,
,,,,,,,,,,,,,,,,,,,,,,,,,,images/exp2b_trial_14_colour3_distractors9_r.png,r,2,029,001,2021-04-23_18h46.39.705,searchDisc4,2020.2.10,Win32,60,,,space,0.279865,2,1,0.639305,,0,190,190,356,1,2b,14,3,9,
,,,,,,,,,,,,,,,,,,,,,,,,,,images/exp1b_trial_22_colour1_distractors31_l.png,l,1,029,001,2021-04-23_18h46.39.705,searchDisc4,2020.2.10,Win32,60,,,space,0.302985,1,1,0.82705,,0,191,191,136,1,1b,22,1,31,
,,,,,,,,,,,,,,,,,,,,,,,,,,images/exp1b_trial_47_colour2_distractors19_r.png,r,2,029,001,2021-04-23_18h46.39.705,searchDisc4,2020.2.10,Win32,60,,,space,0.3116,2,1,0.69675,,0,192,192,161,1,1b,47,2,19,
,,,,,,,,,,,,,,,,,,,,,,,,,,images/exp1a_trial_86_colour2_distractors31_r.png,r,2,029,001,2021-04-23_18h46.39.705,searchDisc4,2020.2.10,Win32,60,,,space,0.288435,2,1,0.89427,,0,193,193,86,1,1a,86,2,31,
,,,,,,,,,,,,,,,,,,,,,,,,,,images/exp1a_trial_52_colour3_distractors9_r.png,r,2,029,001,2021-04-23_18h46.39.705,searchDisc4,2020.2.10,Win32,60,,,space,0.253795,2,1,0.701085,,0,194,194,52,1,1a,52,3,9,
,,,,,,,,,,,,,,,,,,,,,,,,,,images/exp2b_trial_92_colour3_distractors31_r.png,r,2,029,001,2021-04-23_18h46.39.705,searchDisc4,2020.2.10,Win32,60,,,space,0.30677,2,1,0.682845,,0,195,195,434,1,2b,92,3,31,
,,,,,,,,,,,,,,,,,,,,,,,,,,images/exp2a_trial_65_colour2_distractors19_l.png,l,1,029,001,2021-04-23_18h46.39.705,searchDisc4,2020.2.10,Win32,60,,,space,0.306315,1,1,0.61689,,0,196,196,293,1,2a,65,2,19,
,,,,,,,,,,,,,,,,,,,,,,,,,,images/exp2c_trial_39_colour1_distractors4_r.png,r,2,029,001,2021-04-23_18h46.39.705,searchDisc4,2020.2.10,Win32,60,,,space,0.301445,2,1,0.798965,,0,197,197,495,1,2c,39,1,4,
,,,,,,,,,,,,,,,,,,,,,,,,,,images/exp2b_trial_30_colour3_distractors1_l.png,l,1,029,001,2021-04-23_18h46.39.705,searchDisc4,2020.2.10,Win32,60,,,space,0.308365,1,1,0.85878,,0,198,198,372,1,2b,30,3,1,
,,,,,,,,,,,,,,,,,,,,,,,,,,images/exp2b_trial_57_colour1_distractors4_l.png,l,1,029,001,2021-04-23_18h46.39.705,searchDisc4,2020.2.10,Win32,60,,,space,0.250025,1,1,0.640335,,0,199,199,399,1,2b,57,1,4,
,,,,,,,,,,,,,,,,,,,,,,,,,,images/exp2c_trial_26_colour2_distractors9_l.png,l,1,029,001,2021-04-23_18h46.39.705,searchDisc4,2020.2.10,Win32,60,,,space,0.26315,1,1,0.66668,,0,200,200,482,1,2c,26,2,9,
,,,,,,,,,,,,,,,,,,,,,,,,,,images/exp2c_trial_112_colour0_distractors0_r.png,r,2,029,001,2021-04-23_18h46.39.705,searchDisc4,2020.2.10,Win32,60,,,space,0.299275,2,1,0.60078,,0,201,201,568,1,2c,112,0,0,
,,,,,,,,,,,,,,,,,,,,,,,,,,images/exp1a_trial_55_colour3_distractors43_r.png,r,2,029,001,2021-04-23_18h46.39.705,searchDisc4,2020.2.10,Win32,60,,,space,0.390285,2,1,0.704425,,0,202,202,55,1,1a,55,3,43,
,,,,,,,,,,,,,,,,,,,,,,,,,,images/exp2a_trial_59_colour1_distractors19_l.png,l,1,029,001,2021-04-23_18h46.39.705,searchDisc4,2020.2.10,Win32,60,,,space,0.26913,1,1,0.665955,,0,203,203,287,1,2a,59,1,19,
,,,,,,,,,,,,,,,,,,,,,,,,,,images/exp2c_trial_60_colour1_distractors31_l.png,l,1,029,001,2021-04-23_18h46.39.705,searchDisc4,2020.2.10,Win32,60,,,space,0.282395,1,1,0.66536,,0,204,204,516,1,2c,60,1,31,
,,,,,,,,,,,,,,,,,,,,,,,,,,images/exp2b_trial_63_colour2_distractors4_l.png,l,1,029,001,2021-04-23_18h46.39.705,searchDisc4,2020.2.10,Win32,60,,,space,0.27241,1,1,0.714785,,0,205,205,405,1,2b,63,2,4,
,,,,,,,,,,,,,,,,,,,,,,,,,,images/exp1a_trial_109_colour3_distractors19_l.png,l,1,029,001,2021-04-23_18h46.39.705,searchDisc4,2020.2.10,Win32,60,,,space,0.24347,1,1,0.598175,,0,206,206,109,1,1a,109,3,19,
,,,,,,,,,,,,,,,,,,,,,,,,,,images/exp2b_trial_20_colour1_distractors9_l.png,l,1,029,001,2021-04-23_18h46.39.705,searchDisc4,2020.2.10,Win32,60,,,space,5.710655,1,1,0.549295,,0,207,207,362,1,2b,20,1,9,
,,,,,,,,,,,,,,,,,,,,,,,,,,images/exp2a_trial_111_colour3_distractors43_l.png,l,1,029,001,2021-04-23_18h46.39.705,searchDisc4,2020.2.10,Win32,60,,,space,0.3326,1,1,0.561785,,0,208,208,339,1,2a,111,3,43,
,,,,,,,,,,,,,,,,,,,,,,,,,,images/exp2c_trial_23_colour1_distractors43_l.png,l,1,029,001,2021-04-23_18h46.39.705,searchDisc4,2020.2.10,Win32,60,,,space,0.28509,1,1,0.64548,,0,209,209,479,1,2c,23,1,43,
,,,,,,,,,,,,,,,,,,,,,,,,,,images/exp2b_trial_16_colour3_distractors31_r.png,r,2,029,001,2021-04-23_18h46.39.705,searchDisc4,2020.2.10,Win32,60,,,space,0.253645,2,1,0.857415,,0,210,210,358,1,2b,16,3,31,
,,,,,,,,,,,,,,,,,,,,,,,,,,images/exp2b_trial_40_colour1_distractors9_r.png,r,2,029,001,2021-04-23_18h46.39.705,searchDisc4,2020.2.10,Win32,60,,,space,0.24607,2,1,0.65697,,0,211,211,382,1,2b,40,1,9,
,,,,,,,,,,,,,,,,,,,,,,,,,,images/exp2a_trial_46_colour2_distractors9_r.png,r,2,029,001,2021-04-23_18h46.39.705,searchDisc4,2020.2.10,Win32,60,,,space,0.25884,2,1,0.759615,,0,212,212,274,1,2a,46,2,9,
,,,,,,,,,,,,,,,,,,,,,,,,,,images/exp2b_trial_80_colour1_distractors31_r.png,r,2,029,001,2021-04-23_18h46.39.705,searchDisc4,2020.2.10,Win32,60,,,space,0.25813,2,1,0.617395,,0,213,213,422,1,2b,80,1,31,
,,,,,,,,,,,,,,,,,,,,,,,,,,images/exp2b_trial_3_colour1_distractors19_r.png,r,2,029,001,2021-04-23_18h46.39.705,searchDisc4,2020.2.10,Win32,60,,,space,0.25918,2,1,0.61775,,0,214,214,345,1,2b,3,1,19,
,,,,,,,,,,,,,,,,,,,,,,,,,,images/exp2c_trial_53_colour3_distractors19_r.png,r,2,029,001,2021-04-23_18h46.39.705,searchDisc4,2020.2.10,Win32,60,,,space,0.28488,2,1,0.76212,,0,215,215,509,1,2c,53,3,19,
,,,,,,,,,,,,,,,,,,,,,,,,,,images/exp2a_trial_11_colour2_distractors43_r.png,r,2,029,001,2021-04-23_18h46.39.705,searchDisc4,2020.2.10,Win32,60,,,space,0.27145,2,1,0.595845,,0,216,216,239,1,2a,11,2,43,
,,,,,,,,,,,,,,,,,,,,,,,,,,images/exp2a_trial_60_colour1_distractors31_l.png,l,1,029,001,2021-04-23_18h46.39.705,searchDisc4,2020.2.10,Win32,60,,,space,0.26902,1,1,0.804655,,0,217,217,288,1,2a,60,1,31,
,,,,,,,,,,,,,,,,,,,,,,,,,,images/exp1a_trial_70_colour3_distractors9_l.png,l,1,029,001,2021-04-23_18h46.39.705,searchDisc4,2020.2.10,Win32,60,,,space,0.26068,1,1,0.75918,,0,218,218,70,1,1a,70,3,9,
,,,,,,,,,,,,,,,,,,,,,,,,,,images/exp2c_trial_54_colour3_distractors31_r.png,r,2,029,001,2021-04-23_18h46.39.705,searchDisc4,2020.2.10,Win32,60,,,space,0.230335,2,1,0.634925,,0,219,219,510,1,2c,54,3,31,
,,,,,,,,,,,,,,,,,,,,,,,,,,images/exp2c_trial_8_colour2_distractors9_r.png,r,2,029,001,2021-04-23_18h46.39.705,searchDisc4,2020.2.10,Win32,60,,,space,0.278475,2,1,0.72345,,0,220,220,464,1,2c,8,2,9,
,,,,,,,,,,,,,,,,,,,,,,,,,,images/exp2b_trial_102_colour2_distractors9_l.png,l,1,029,001,2021-04-23_18h46.39.705,searchDisc4,2020.2.10,Win32,60,,,space,0.20477,1,1,0.67623,,0,221,221,444,1,2b,102,2,9,
,,,,,,,,,,,,,,,,,,,,,,,,,,images/exp2a_trial_27_colour2_distractors19_l.png,l,1,029,001,2021-04-23_18h46.39.705,searchDisc4,2020.2.10,Win32,60,,,space,0.323915,1,1,0.78378,,0,222,222,255,1,2a,27,2,19,
,,,,,,,,,,,,,,,,,,,,,,,,,,images/exp2a_trial_25_colour2_distractors4_l.png,l,1,029,001,2021-04-23_18h46.39.705,searchDisc4,2020.2.10,Win32,60,,,space,0.24169,1,1,0.762455,,0,223,223,253,1,2a,25,2,4,
,,,,,,,,,,,,,,,,,,,,,,,,,,images/exp2b_trial_17_colour3_distractors43_r.png,r,2,029,001,2021-04-23_18h46.39.705,searchDisc4,2020.2.10,Win32,60,,,space,0.416435,2,1,0.6199,,0,224,224,359,1,2b,17,3,43,
,,,,,,,,,,,,,,,,,,,,,,,,,,images/exp1a_trial_14_colour3_distractors9_r.png,r,2,029,001,2021-04-23_18h46.39.705,searchDisc4,2020.2.10,Win32,60,,,space,0.467455,2,1,0.650015,,0,225,225,14,1,1a,14,3,9,
,,,,,,,,,,,,,,,,,,,,,,,,,,images/exp2b_trial_64_colour2_distractors9_l.png,l,1,029,001,2021-04-23_18h46.39.705,searchDisc4,2020.2.10,Win32,60,,,space,0.435625,1,1,0.64198,,0,226,226,406,1,2b,64,2,9,
,,,,,,,,,,,,,,,,,,,,,,,,,,images/exp1b_trial_10_colour2_distractors31_r.png,r,2,029,001,2021-04-23_18h46.39.705,searchDisc4,2020.2.10,Win32,60,,,space,0.307195,2,1,0.80815,,0,227,227,124,1,1b,10,2,31,
,,,,,,,,,,,,,,,,,,,,,,,,,,images/exp2b_trial_44_colour2_distractors1_r.png,r,2,029,001,2021-04-23_18h46.39.705,searchDisc4,2020.2.10,Win32,60,,,space,0.23194,2,1,0.84089,,0,228,228,386,1,2b,44,2,1,
,,,,,,,,,,,,,,,,,,,,,,,,,,images/exp1a_trial_29_colour2_distractors43_l.png,l,1,029,001,2021-04-23_18h46.39.705,searchDisc4,2020.2.10,Win32,60,,,space,1.067865,1,1,0.802475,,0,229,229,29,1,1a,29,2,43,
,,,,,,,,,,,,,,,,,,,,,,,,,,images/exp1a_trial_21_colour1_distractors19_l.png,l,1,029,001,2021-04-23_18h46.39.705,searchDisc4,2020.2.10,Win32,60,,,space,0.380885,1,1,0.713305,,0,230,230,21,1,1a,21,1,19,
,,,,,,,,,,,,,,,,,,,,,,,,,,images/exp2a_trial_5_colour1_distractors43_r.png,r,2,029,001,2021-04-23_18h46.39.705,searchDisc4,2020.2.10,Win32,60,,,space,0.31604,2,1,0.785285,,0,231,231,233,1,2a,5,1,43,
,,,,,,,,,,,,,,,,,,,,,,,,,,images/exp2c_trial_14_colour3_distractors9_r.png,r,2,029,001,2021-04-23_18h46.39.705,searchDisc4,2020.2.10,Win32,60,,,space,0.21421,2,1,0.68869,,0,232,232,470,1,2c,14,3,9,
,,,,,,,,,,,,,,,,,,,,,,,,,,images/exp2c_trial_31_colour3_distractors4_l.png,l,1,029,001,2021-04-23_18h46.39.705,searchDisc4,2020.2.10,Win32,60,,,space,0.24803,1,1,0.65242,,0,233,233,487,1,2c,31,3,4,
,,,,,,,,,,,,,,,,,,,,,,,,,,images/exp2a_trial_79_colour1_distractors19_r.png,r,2,029,001,2021-04-23_18h46.39.705,searchDisc4,2020.2.10,Win32,60,,,space,0.29708,2,1,0.652655,,0,234,234,307,1,2a,79,1,19,
,,,,,,,,,,,,,,,,,,,,,,,,,,images/exp2b_trial_1_colour1_distractors4_r.png,r,2,029,001,2021-04-23_18h46.39.705,searchDisc4,2020.2.10,Win32,60,,,space,0.25986,2,1,0.67122,,0,235,235,343,1,2b,1,1,4,
,,,,,,,,,,,,,,,,,,,,,,,,,,images/exp1b_trial_83_colour2_distractors4_r.png,r,2,029,001,2021-04-23_18h46.39.705,searchDisc4,2020.2.10,Win32,60,,,space,0.291795,2,1,0.66158,,0,236,236,197,1,1b,83,2,4,
,,,,,,,,,,,,,,,,,,,,,,,,,,images/exp1a_trial_50_colour3_distractors1_r.png,r,2,029,001,2021-04-23_18h46.39.705,searchDisc4,2020.2.10,Win32,60,,,space,0.262855,2,1,0.73882,,0,237,237,50,1,1a,50,3,1,
,,,,,,,,,,,,,,,,,,,,,,,,,,images/exp2c_trial_79_colour1_distractors19_r.png,r,2,029,001,2021-04-23_18h46.39.705,searchDisc4,2020.2.10,Win32,60,,,space,0.47706,2,1,0.608125,,0,238,238,535,1,2c,79,1,19,
,,,,,,,,,,,,,,,,,,,,,,,,,,images/exp1a_trial_73_colour3_distractors43_l.png,l,1,029,001,2021-04-23_18h46.39.705,searchDisc4,2020.2.10,Win32,60,,,space,0.322905,1,1,0.702275,space,0,239,239,73,1,1a,73,3,43,0.26784
,,,,,,,,,,,,,,,,,,,,,,,,,,images/exp2c_trial_94_colour1_distractors1_l.png,l,1,029,001,2021-04-23_18h46.39.705,searchDisc4,2020.2.10,Win32,60,,,space,7.76634,1,1,0.611965,,0,240,240,550,1,2c,94,1,1,
,,,,,,,,,,,,,,,,,,,,,,,,,,images/exp2c_trial_99_colour1_distractors43_l.png,l,1,029,001,2021-04-23_18h46.39.705,searchDisc4,2020.2.10,Win32,60,,,space,0.62336,1,1,0.647255,,0,241,241,555,1,2c,99,1,43,
,,,,,,,,,,,,,,,,,,,,,,,,,,images/exp2c_trial_38_colour1_distractors1_r.png,r,2,029,001,2021-04-23_18h46.39.705,searchDisc4,2020.2.10,Win32,60,,,space,0.356035,2,1,0.60799,,0,242,242,494,1,2c,38,1,1,
,,,,,,,,,,,,,,,,,,,,,,,,,,images/exp1a_trial_98_colour1_distractors31_l.png,l,1,029,001,2021-04-23_18h46.39.705,searchDisc4,2020.2.10,Win32,60,,,space,0.36733,1,1,1.037145,,0,243,243,98,1,1a,98,1,31,
,,,,,,,,,,,,,,,,,,,,,,,,,,images/exp1b_trial_70_colour3_distractors9_l.png,l,1,029,001,2021-04-23_18h46.39.705,searchDisc4,2020.2.10,Win32,60,,,space,0.26588,1,1,0.798645,,0,244,244,184,1,1b,70,3,9,
,,,,,,,,,,,,,,,,,,,,,,,,,,images/exp2a_trial_96_colour1_distractors9_l.png,l,1,029,001,2021-04-23_18h46.39.705,searchDisc4,2020.2.10,Win32,60,,,space,0.31024,1,1,0.68692,,0,245,245,324,1,2a,96,1,9,
,,,,,,,,,,,,,,,,,,,,,,,,,,images/exp2c_trial_55_colour3_distractors43_r.png,r,2,029,001,2021-04-23_18h46.39.705,searchDisc4,2020.2.10,Win32,60,,,space,0.30609,2,1,0.660015,,0,246,246,511,1,2c,55,3,43,
,,,,,,,,,,,,,,,,,,,,,,,,,,images/exp1a_trial_43_colour1_distractors43_r.png,r,2,029,001,2021-04-23_18h46.39.705,searchDisc4,2020.2.10,Win32,60,,,space,0.325165,2,1,0.79426,,0,247,247,43,1,1a,43,1,43,
,,,,,,,,,,,,,,,,,,,,,,,,,,images/exp2c_trial_19_colour1_distractors4_l.png,l,1,029,001,2021-04-23_18h46.39.705,searchDisc4,2020.2.10,Win32,60,,,space,0.32136,1,1,0.735695,,0,248,248,475,1,2c,19,1,4,
,,,,,,,,,,,,,,,,,,,,,,,,,,images/exp2a_trial_61_colour1_distractors43_l.png,l,1,029,001,2021-04-23_18h46.39.705,searchDisc4,2020.2.10,Win32,60,,,space,0.403555,1,1,0.76662,,0,249,249,289,1,2a,61,1,43,
,,,,,,,,,,,,,,,,,,,,,,,,,,images/exp2a_trial_12_colour3_distractors1_r.png,r,2,029,001,2021-04-23_18h46.39.705,searchDisc4,2020.2.10,Win32,60,,,space,0.350445,2,1,0.581465,,0,250,250,240,1,2a,12,3,1,
,,,,,,,,,,,,,,,,,,,,,,,,,,images/exp1b_trial_68_colour3_distractors1_l.png,l,1,029,001,2021-04-23_18h46.39.705,searchDisc4,2020.2.10,Win32,60,,,space,0.431965,1,1,0.667875,,0,251,251,182,1,1b,68,3,1,
,,,,,,,,,,,,,,,,,,,,,,,,,,images/exp2a_trial_95_colour1_distractors4_l.png,l,1,029,001,2021-04-23_18h46.39.705,searchDisc4,2020.2.10,Win32,60,,,space,0.389035,1,1,0.67526,,0,252,252,323,1,2a,95,1,4,
,,,,,,,,,,,,,,,,,,,,,,,,,,images/exp2a_trial_44_colour2_distractors1_r.png,r,2,029,001,2021-04-23_18h46.39.705,searchDisc4,2020.2.10,Win32,60,,,space,0.34011,2,1,0.5691,,0,253,253,272,1,2a,44,2,1,
,,,,,,,,,,,,,,,,,,,,,,,,,,images/exp1a_trial_46_colour2_distractors9_r.png,r,2,029,001,2021-04-23_18h46.39.705,searchDisc4,2020.2.10,Win32,60,,,space,0.493345,2,1,0.755595,,0,254,254,46,1,1a,46,2,9,
,,,,,,,,,,,,,,,,,,,,,,,,,,images/exp2c_trial_20_colour1_distractors9_l.png,l,1,029,001,2021-04-23_18h46.39.705,searchDisc4,2020.2.10,Win32,60,,,space,0.33974,1,1,0.6234,,0,255,255,476,1,2c,20,1,9,
,,,,,,,,,,,,,,,,,,,,,,,,,,images/exp2b_trial_58_colour1_distractors9_l.png,l,1,029,001,2021-04-23_18h46.39.705,searchDisc4,2020.2.10,Win32,60,,,space,0.76544,1,1,0.51076,,0,256,256,400,1,2b,58,1,9,
,,,,,,,,,,,,,,,,,,,,,,,,,,images/exp2c_trial_81_colour1_distractors43_r.png,r,2,029,001,2021-04-23_18h46.39.705,searchDisc4,2020.2.10,Win32,60,,,space,0.51711,2,1,0.49713,,0,257,257,537,1,2c,81,1,43,
,,,,,,,,,,,,,,,,,,,,,,,,,,images/exp1a_trial_44_colour2_distractors1_r.png,r,2,029,001,2021-04-23_18h46.39.705,searchDisc4,2020.2.10,Win32,60,,,space,0.783575,2,1,1.560985,,0,258,258,44,1,1a,44,2,1,
,,,,,,,,,,,,,,,,,,,,,,,,,,images/exp2a_trial_58_colour1_distractors9_l.png,l,1,029,001,2021-04-23_18h46.39.705,searchDisc4,2020.2.10,Win32,60,,,space,0.54052,1,1,0.579655,,0,259,259,286,1,2a,58,1,9,
,,,,,,,,,,,,,,,,,,,,,,,,,,images/exp1a_trial_37_colour0_distractors0_l.png,l,1,029,001,2021-04-23_18h46.39.705,searchDisc4,2020.2.10,Win32,60,,,space,0.497165,1,1,0.58771,,0,260,260,37,1,1a,37,0,0,
,,,,,,,,,,,,,,,,,,,,,,,,,,images/exp2a_trial_10_colour2_distractors31_r.png,r,2,029,001,2021-04-23_18h46.39.705,searchDisc4,2020.2.10,Win32,60,,,space,0.57267,2,1,0.697955,,0,261,261,238,1,2a,10,2,31,
,,,,,,,,,,,,,,,,,,,,,,,,,,images/exp2c_trial_51_colour3_distractors4_r.png,r,2,029,001,2021-04-23_18h46.39.705,searchDisc4,2020.2.10,Win32,60,,,space,0.501675,2,1,0.585835,,0,262,262,507,1,2c,51,3,4,
,,,,,,,,,,,,,,,,,,,,,,,,,,images/exp1b_trial_108_colour3_distractors9_l.png,l,1,029,001,2021-04-23_18h46.39.705,searchDisc4,2020.2.10,Win32,60,,,space,0.572935,1,1,0.698805,,0,263,263,222,1,1b,108,3,9,
,,,,,,,,,,,,,,,,,,,,,,,,,,images/exp2a_trial_66_colour2_distractors31_l.png,l,1,029,001,2021-04-23_18h46.39.705,searchDisc4,2020.2.10,Win32,60,,,space,0.515715,1,1,0.70908,,0,264,264,294,1,2a,66,2,31,
,,,,,,,,,,,,,,,,,,,,,,,,,,images/exp2b_trial_83_colour2_distractors4_r.png,r,2,029,001,2021-04-23_18h46.39.705,searchDisc4,2020.2.10,Win32,60,,,space,0.52697,2,1,0.588885,,0,265,265,425,1,2b,83,2,4,
,,,,,,,,,,,,,,,,,,,,,,,,,,images/exp2a_trial_81_colour1_distractors43_r.png,r,2,029,001,2021-04-23_18h46.39.705,searchDisc4,2020.2.10,Win32,60,,,space,0.523105,2,1,0.56658,,0,266,266,309,1,2a,81,1,43,
,,,,,,,,,,,,,,,,,,,,,,,,,,images/exp2a_trial_31_colour3_distractors4_l.png,l,1,029,001,2021-04-23_18h46.39.705,searchDisc4,2020.2.10,Win32,60,,,space,1.11039,1,1,0.44667,,0,267,267,259,1,2a,31,3,4,
,,,,,,,,,,,,,,,,,,,,,,,,,,images/exp1a_trial_110_colour3_distractors31_l.png,l,1,029,001,2021-04-23_18h46.39.705,searchDisc4,2020.2.10,Win32,60,,,space,0.58399,1,1,0.75184,,0,268,268,110,1,1a,110,3,31,
,,,,,,,,,,,,,,,,,,,,,,,,,,images/exp2a_trial_88_colour3_distractors1_r.png,r,2,029,001,2021-04-23_18h46.39.705,searchDisc4,2020.2.10,Win32,60,,,space,0.788575,2,1,0.53917,,0,269,269,316,1,2a,88,3,1,
,,,,,,,,,,,,,,,,,,,,,,,,,,images/exp2c_trial_35_colour3_distractors43_l.png,l,1,029,001,2021-04-23_18h46.39.705,searchDisc4,2020.2.10,Win32,60,,,space,0.622685,1,1,0.75161,,0,270,270,491,1,2c,35,3,43,
,,,,,,,,,,,,,,,,,,,,,,,,,,images/exp1a_trial_112_colour0_distractors0_r.png,r,2,029,001,2021-04-23_18h46.39.705,searchDisc4,2020.2.10,Win32,60,,,space,0.491765,2,1,0.5873,,0,271,271,112,1,1a,112,0,0,
,,,,,,,,,,,,,,,,,,,,,,,,,,images/exp2c_trial_15_colour3_distractors19_r.png,r,2,029,001,2021-04-23_18h46.39.705,searchDisc4,2020.2.10,Win32,60,,,space,0.57497,2,1,0.587905,,0,272,272,471,1,2c,15,3,19,
,,,,,,,,,,,,,,,,,,,,,,,,,,images/exp1b_trial_34_colour3_distractors31_l.png,l,1,029,001,2021-04-23_18h46.39.705,searchDisc4,2020.2.10,Win32,60,,,space,0.65421,1,1,0.76852,,0,273,273,148,1,1b,34,3,31,
,,,,,,,,,,,,,,,,,,,,,,,,,,images/exp2a_trial_80_colour1_distractors31_r.png,r,2,029,001,2021-04-23_18h46.39.705,searchDisc4,2020.2.10,Win32,60,,,space,0.64424,2,1,0.679705,,0,274,274,308,1,2a,80,1,31,
,,,,,,,,,,,,,,,,,,,,,,,,,,images/exp2a_trial_4_colour1_distractors31_r.png,r,2,029,001,2021-04-23_18h46.39.705,searchDisc4,2020.2.10,Win32,60,,,space,0.583575,2,1,0.776055,,0,275,275,232,1,2a,4,1,31,
,,,,,,,,,,,,,,,,,,,,,,,,,,images/exp2c_trial_6_colour2_distractors1_r.png,r,2,029,001,2021-04-23_18h46.39.705,searchDisc4,2020.2.10,Win32,60,,,space,0.49098,2,1,0.61272,,0,276,276,462,1,2c,6,2,1,
,,,,,,,,,,,,,,,,,,,,,,,,,,images/exp1b_trial_33_colour3_distractors19_l.png,l,1,029,001,2021-04-23_18h46.39.705,searchDisc4,2020.2.10,Win32,60,,,space,0.50311,1,1,0.931525,,0,277,277,147,1,1b,33,3,19,
,,,,,,,,,,,,,,,,,,,,,,,,,,images/exp1a_trial_88_colour3_distractors1_r.png,r,2,029,001,2021-04-23_18h46.39.705,searchDisc4,2020.2.10,Win32,60,,,space,0.357005,2,1,0.6425,,0,278,278,88,1,1a,88,3,1,
,,,,,,,,,,,,,,,,,,,,,,,,,,images/exp1b_trial_18_colour1_distractors1_l.png,l,1,029,001,2021-04-23_18h46.39.705,searchDisc4,2020.2.10,Win32,60,,,space,0.477815,1,1,1.47766,,0,279,279,132,1,1b,18,1,1,
,,,,,,,,,,,,,,,,,,,,,,,,,,images/exp2a_trial_108_colour3_distractors9_l.png,l,1,029,001,2021-04-23_18h46.39.705,searchDisc4,2020.2.10,Win32,60,,,space,0.84303,1,1,0.57075,,0,280,280,336,1,2a,108,3,9,
,,,,,,,,,,,,,,,,,,,,,,,,,,images/exp2b_trial_97_colour1_distractors19_l.png,l,1,029,001,2021-04-23_18h46.39.705,searchDisc4,2020.2.10,Win32,60,,,space,0.456,1,1,0.542105,,0,281,281,439,1,2b,97,1,19,
,,,,,,,,,,,,,,,,,,,,,,,,,,images/exp2b_trial_39_colour1_distractors4_r.png,r,2,029,001,2021-04-23_18h46.39.705,searchDisc4,2020.2.10,Win32,60,,,space,0.475435,2,1,0.540415,,0,282,282,381,1,2b,39,1,4,
,,,,,,,,,,,,,,,,,,,,,,,,,,images/exp2c_trial_104_colour2_distractors31_l.png,l,1,029,001,2021-04-23_18h46.39.705,searchDisc4,2020.2.10,Win32,60,,,space,0.537565,1,1,0.57106,,0,283,283,560,1,2c,104,2,31,
,,,,,,,,,,,,,,,,,,,,,,,,,,images/exp2c_trial_18_colour1_distractors1_l.png,l,1,029,001,2021-04-23_18h46.39.705,searchDisc4,2020.2.10,Win32,60,,,space,0.49634,1,1,0.54891,,0,284,284,474,1,2c,18,1,1,
,,,,,,,,,,,,,,,,,,,,,,,,,,images/exp1a_trial_51_colour3_distractors4_r.png,r,2,029,001,2021-04-23_18h46.39.705,searchDisc4,2020.2.10,Win32,60,,,space,6.842275,2,1,0.53967,,0,285,285,51,1,1a,51,3,4,
,,,,,,,,,,,,,,,,,,,,,,,,,,images/exp1b_trial_36_colour0_distractors0_r.png,r,2,029,001,2021-04-23_18h46.39.705,searchDisc4,2020.2.10,Win32,60,,,space,0.41236,2,1,0.537095,,0,286,286,150,1,1b,36,0,0,
,,,,,,,,,,,,,,,,,,,,,,,,,,images/exp2a_trial_91_colour3_distractors19_r.png,r,2,029,001,2021-04-23_18h46.39.705,searchDisc4,2020.2.10,Win32,60,,,space,0.555895,2,1,0.576915,,0,287,287,319,1,2a,91,3,19,
,,,,,,,,,,,,,,,,,,,,,,,,,,images/exp2b_trial_36_colour0_distractors0_r.png,r,2,029,001,2021-04-23_18h46.39.705,searchDisc4,2020.2.10,Win32,60,,,space,0.399865,2,1,0.497315,,0,288,288,378,1,2b,36,0,0,
,,,,,,,,,,,,,,,,,,,,,,,,,,images/exp2b_trial_24_colour2_distractors1_l.png,l,1,029,001,2021-04-23_18h46.39.705,searchDisc4,2020.2.10,Win32,60,,,space,0.64804,1,1,0.5811,,0,289,289,366,1,2b,24,2,1,
,,,,,,,,,,,,,,,,,,,,,,,,,,images/exp2b_trial_62_colour2_distractors1_l.png,l,1,029,001,2021-04-23_18h46.39.705,searchDisc4,2020.2.10,Win32,60,,,space,0.56835,1,1,0.644515,,0,290,290,404,1,2b,62,2,1,
,,,,,,,,,,,,,,,,,,,,,,,,,,images/exp1a_trial_83_colour2_distractors4_r.png,r,2,029,001,2021-04-23_18h46.39.705,searchDisc4,2020.2.10,Win32,60,,,space,0.617065,2,1,0.60943,,0,291,291,83,1,1a,83,2,4,
,,,,,,,,,,,,,,,,,,,,,,,,,,images/exp2b_trial_27_colour2_distractors19_l.png,l,1,029,001,2021-04-23_18h46.39.705,searchDisc4,2020.2.10,Win32,60,,,space,0.47282,1,1,0.642865,,0,292,292,369,1,2b,27,2,19,
,,,,,,,,,,,,,,,,,,,,,,,,,,images/exp1b_trial_95_colour1_distractors4_l.png,l,1,029,001,2021-04-23_18h46.39.705,searchDisc4,2020.2.10,Win32,60,,,space,0.502385,1,1,0.59419,,0,293,293,209,1,1b,95,1,4,
,,,,,,,,,,,,,,,,,,,,,,,,,,images/exp2c_trial_101_colour2_distractors4_l.png,l,1,029,001,2021-04-23_18h46.39.705,searchDisc4,2020.2.10,Win32,60,,,space,0.459385,1,1,0.58404,,0,294,294,557,1,2c,101,2,4,
,,,,,,,,,,,,,,,,,,,,,,,,,,images/exp1b_trial_28_colour2_distractors31_l.png,l,1,029,001,2021-04-23_18h46.39.705,searchDisc4,2020.2.10,Win32,60,,,space,0.58395,1,1,1.00314,,0,295,295,142,1,1b,28,2,31,
,,,,,,,,,,,,,,,,,,,,,,,,,,images/exp2a_trial_51_colour3_distractors4_r.png,r,2,029,001,2021-04-23_18h46.39.705,searchDisc4,2020.2.10,Win32,60,,,space,0.42381,2,1,0.912805,,0,296,296,279,1,2a,51,3,4,
,,,,,,,,,,,,,,,,,,,,,,,,,,images/exp2c_trial_87_colour2_distractors43_r.png,r,2,029,001,2021-04-23_18h46.39.705,searchDisc4,2020.2.10,Win32,60,,,space,0.38843,2,1,0.60822,,0,297,297,543,1,2c,87,2,43,
,,,,,,,,,,,,,,,,,,,,,,,,,,images/exp1b_trial_86_colour2_distractors31_r.png,r,2,029,001,2021-04-23_18h46.39.705,searchDisc4,2020.2.10,Win32,60,,,space,0.50732,2,1,0.912615,,0,298,298,200,1,1b,86,2,31,
,,,,,,,,,,,,,,,,,,,,,,,,,,images/exp2c_trial_4_colour1_distractors31_r.png,r,2,029,001,2021-04-23_18h46.39.705,searchDisc4,2020.2.10,Win32,60,,,space,0.37543,2,1,1.563505,space,0,299,299,460,1,2c,4,1,31,4.722365
,,,,,,,,,,,,,,,,,,,,,,,,,,images/exp2c_trial_84_colour2_distractors9_r.png,r,2,029,001,2021-04-23_18h46.39.705,searchDisc4,2020.2.10,Win32,60,,,space,0.586385,2,1,0.846825,,0,300,300,540,1,2c,84,2,9,
,,,,,,,,,,,,,,,,,,,,,,,,,,images/exp2b_trial_34_colour3_distractors31_l.png,l,1,029,001,2021-04-23_18h46.39.705,searchDisc4,2020.2.10,Win32,60,,,space,0.3723,1,1,0.58249,,0,301,301,376,1,2b,34,3,31,
,,,,,,,,,,,,,,,,,,,,,,,,,,images/exp2c_trial_69_colour3_distractors4_l.png,l,1,029,001,2021-04-23_18h46.39.705,searchDisc4,2020.2.10,Win32,60,,,space,0.40959,1,1,0.588555,,0,302,302,525,1,2c,69,3,4,
,,,,,,,,,,,,,,,,,,,,,,,,,,images/exp2b_trial_91_colour3_distractors19_r.png,r,2,029,001,2021-04-23_18h46.39.705,searchDisc4,2020.2.10,Win32,60,,,space,0.47715,2,1,0.616705,,0,303,303,433,1,2b,91,3,19,
,,,,,,,,,,,,,,,,,,,,,,,,,,images/exp2b_trial_53_colour3_distractors19_r.png,r,2,029,001,2021-04-23_18h46.39.705,searchDisc4,2020.2.10,Win32,60,,,space,0.459975,2,1,0.642935,,0,304,304,395,1,2b,53,3,19,
,,,,,,,,,,,,,,,,,,,,,,,,,,images/exp1a_trial_79_colour1_distractors19_r.png,r,2,029,001,2021-04-23_18h46.39.705,searchDisc4,2020.2.10,Win32,60,,,space,0.44933,1,0,0.627875,,0,305,305,79,1,1a,79,1,19,
,,,,,,,,,,,,,,,,,,,,,,,,,,images/exp1b_trial_94_colour1_distractors1_l.png,l,1,029,001,2021-04-23_18h46.39.705,searchDisc4,2020.2.10,Win32,60,,,space,0.676405,1,1,0.62547,,0,306,306,208,1,1b,94,1,1,
,,,,,,,,,,,,,,,,,,,,,,,,,,images/exp2b_trial_106_colour3_distractors1_l.png,l,1,029,001,2021-04-23_18h46.39.705,searchDisc4,2020.2.10,Win32,60,,,space,0.38073,1,1,0.60065,,0,307,307,448,1,2b,106,3,1,
,,,,,,,,,,,,,,,,,,,,,,,,,,images/exp2c_trial_67_colour2_distractors43_l.png,l,1,029,001,2021-04-23_18h46.39.705,searchDisc4,2020.2.10,Win32,60,,,space,0.486735,1,1,0.68934,,0,308,308,523,1,2c,67,2,43,
,,,,,,,,,,,,,,,,,,,,,,,,,,images/exp1a_trial_111_colour3_distractors43_l.png,l,1,029,001,2021-04-23_18h46.39.705,searchDisc4,2020.2.10,Win32,60,,,space,0.80972,1,1,0.777865,,0,309,309,111,1,1a,111,3,43,
,,,,,,,,,,,,,,,,,,,,,,,,,,images/exp2c_trial_48_colour2_distractors31_r.png,r,2,029,001,2021-04-23_18h46.39.705,searchDisc4,2020.2.10,Win32,60,,,space,0.36338,2,1,0.619925,,0,310,310,504,1,2c,48,2,31,
,,,,,,,,,,,,,,,,,,,,,,,,,,images/exp2c_trial_46_colour2_distractors9_r.png,r,2,029,001,2021-04-23_18h46.39.705,searchDisc4,2020.2.10,Win32,60,,,space,0.462195,2,1,0.64746,,0,311,311,502,1,2c,46,2,9,
,,,,,,,,,,,,,,,,,,,,,,,,,,images/exp2b_trial_84_colour2_distractors9_r.png,r,2,029,001,2021-04-23_18h46.39.705,searchDisc4,2020.2.10,Win32,60,,,space,0.3758,2,1,0.579455,,0,312,312,426,1,2b,84,2,9,
,,,,,,,,,,,,,,,,,,,,,,,,,,images/exp2c_trial_9_colour2_distractors19_r.png,r,2,029,001,2021-04-23_18h46.39.705,searchDisc4,2020.2.10,Win32,60,,,space,0.50055,2,1,0.493415,,0,313,313,465,1,2c,9,2,19,
,,,,,,,,,,,,,,,,,,,,,,,,,,images/exp2c_trial_66_colour2_distractors31_l.png,l,1,029,001,2021-04-23_18h46.39.705,searchDisc4,2020.2.10,Win32,60,,,space,0.566685,1,1,0.62858,,0,314,314,522,1,2c,66,2,31,
,,,,,,,,,,,,,,,,,,,,,,,,,,images/exp1b_trial_11_colour2_distractors43_r.png,r,2,029,001,2021-04-23_18h46.39.705,searchDisc4,2020.2.10,Win32,60,,,space,0.46933,2,1,2.63918,,0,315,315,125,1,1b,11,2,43,
,,,,,,,,,,,,,,,,,,,,,,,,,,images/exp2b_trial_32_colour3_distractors9_l.png,l,1,029,001,2021-04-23_18h46.39.705,searchDisc4,2020.2.10,Win32,60,,,space,0.30123,1,1,0.83191,,0,316,316,374,1,2b,32,3,9,
,,,,,,,,,,,,,,,,,,,,,,,,,,images/exp2a_trial_68_colour3_distractors1_l.png,l,1,029,001,2021-04-23_18h46.39.705,searchDisc4,2020.2.10,Win32,60,,,space,0.42682,1,1,0.61433,,0,317,317,296,1,2a,68,3,1,
,,,,,,,,,,,,,,,,,,,,,,,,,,images/exp2a_trial_6_colour2_distractors1_r.png,r,2,029,001,2021-04-23_18h46.39.705,searchDisc4,2020.2.10,Win32,60,,,space,0.462315,2,1,0.590175,,0,318,318,234,1,2a,6,2,1,
,,,,,,,,,,,,,,,,,,,,,,,,,,images/exp2a_trial_92_colour3_distractors31_r.png,r,2,029,001,2021-04-23_18h46.39.705,searchDisc4,2020.2.10,Win32,60,,,space,0.539125,2,1,0.593075,,0,319,319,320,1,2a,92,3,31,
,,,,,,,,,,,,,,,,,,,,,,,,,,images/exp2b_trial_60_colour1_distractors31_l.png,l,1,029,001,2021-04-23_18h46.39.705,searchDisc4,2020.2.10,Win32,60,,,space,0.45487,1,1,0.647975,,0,320,320,402,1,2b,60,1,31,
,,,,,,,,,,,,,,,,,,,,,,,,,,images/exp2b_trial_109_colour3_distractors19_l.png,l,1,029,001,2021-04-23_18h46.39.705,searchDisc4,2020.2.10,Win32,60,,,space,0.434155,1,1,0.54894,,0,321,321,451,1,2b,109,3,19,
,,,,,,,,,,,,,,,,,,,,,,,,,,images/exp2c_trial_62_colour2_distractors1_l.png,l,1,029,001,2021-04-23_18h46.39.705,searchDisc4,2020.2.10,Win32,60,,,space,0.40279,1,1,0.55089,,0,322,322,518,1,2c,62,2,1,
,,,,,,,,,,,,,,,,,,,,,,,,,,images/exp1a_trial_41_colour1_distractors19_r.png,r,2,029,001,2021-04-23_18h46.39.705,searchDisc4,2020.2.10,Win32,60,,,space,0.509615,2,1,0.498385,,0,323,323,41,1,1a,41,1,19,
,,,,,,,,,,,,,,,,,,,,,,,,,,images/exp2c_trial_36_colour0_distractors0_r.png,r,2,029,001,2021-04-23_18h46.39.705,searchDisc4,2020.2.10,Win32,60,,,space,0.550695,2,1,0.509545,,0,324,324,492,1,2c,36,0,0,
,,,,,,,,,,,,,,,,,,,,,,,,,,images/exp1b_trial_1_colour1_distractors4_r.png,r,2,029,001,2021-04-23_18h46.39.705,searchDisc4,2020.2.10,Win32,60,,,space,0.546495,2,1,0.70712,,0,325,325,115,1,1b,1,1,4,
,,,,,,,,,,,,,,,,,,,,,,,,,,images/exp1a_trial_54_colour3_distractors31_r.png,r,2,029,001,2021-04-23_18h46.39.705,searchDisc4,2020.2.10,Win32,60,,,space,0.465835,2,1,0.840495,,0,326,326,54,1,1a,54,3,31,
,,,,,,,,,,,,,,,,,,,,,,,,,,images/exp2c_trial_92_colour3_distractors31_r.png,r,2,029,001,2021-04-23_18h46.39.705,searchDisc4,2020.2.10,Win32,60,,,space,0.505635,2,1,0.61263,,0,327,327,548,1,2c,92,3,31,
,,,,,,,,,,,,,,,,,,,,,,,,,,images/exp2c_trial_56_colour1_distractors1_l.png,l,1,029,001,2021-04-23_18h46.39.705,searchDisc4,2020.2.10,Win32,60,,,space,0.45193,1,1,0.670115,,0,328,328,512,1,2c,56,1,1,
,,,,,,,,,,,,,,,,,,,,,,,,,,images/exp1a_trial_62_colour2_distractors1_l.png,l,1,029,001,2021-04-23_18h46.39.705,searchDisc4,2020.2.10,Win32,60,,,space,0.561175,1,1,0.65845,,0,329,329,62,1,1a,62,2,1,
,,,,,,,,,,,,,,,,,,,,,,,,,,images/exp2b_trial_35_colour3_distractors43_l.png,l,1,029,001,2021-04-23_18h46.39.705,searchDisc4,2020.2.10,Win32,60,,,space,0.649425,1,1,0.64717,,0,330,330,377,1,2b,35,3,43,
,,,,,,,,,,,,,,,,,,,,,,,,,,images/exp2a_trial_2_colour1_distractors9_r.png,r,2,029,001,2021-04-23_18h46.39.705,searchDisc4,2020.2.10,Win32,60,,,space,0.54123,2,1,0.65597,,0,331,331,230,1,2a,2,1,9,
,,,,,,,,,,,,,,,,,,,,,,,,,,images/exp1b_trial_12_colour3_distractors1_r.png,r,2,029,001,2021-04-23_18h46.39.705,searchDisc4,2020.2.10,Win32,60,,,space,0.50074,2,1,0.664415,,0,332,332,126,1,1b,12,3,1,
,,,,,,,,,,,,,,,,,,,,,,,,,,images/exp2a_trial_70_colour3_distractors9_l.png,l,1,029,001,2021-04-23_18h46.39.705,searchDisc4,2020.2.10,Win32,60,,,space,0.394275,1,1,0.57937,,0,333,333,298,1,2a,70,3,9,
,,,,,,,,,,,,,,,,,,,,,,,,,,images/exp1a_trial_2_colour1_distractors9_r.png,r,2,029,001,2021-04-23_18h46.39.705,searchDisc4,2020.2.10,Win32,60,,,space,0.43167,2,1,0.569615,,0,334,334,2,1,1a,2,1,9,
,,,,,,,,,,,,,,,,,,,,,,,,,,images/exp1a_trial_19_colour1_distractors4_l.png,l,1,029,001,2021-04-23_18h46.39.705,searchDisc4,2020.2.10,Win32,60,,,space,0.63947,1,1,0.621005,,0,335,335,19,1,1a,19,1,4,
,,,,,,,,,,,,,,,,,,,,,,,,,,images/exp1a_trial_89_colour3_distractors4_r.png,r,2,029,001,2021-04-23_18h46.39.705,searchDisc4,2020.2.10,Win32,60,,,space,0.39886,2,1,0.619585,,0,336,336,89,1,1a,89,3,4,
,,,,,,,,,,,,,,,,,,,,,,,,,,images/exp2b_trial_13_colour3_distractors4_r.png,r,2,029,001,2021-04-23_18h46.39.705,searchDisc4,2020.2.10,Win32,60,,,space,0.467505,2,1,0.60963,,0,337,337,355,1,2b,13,3,4,
,,,,,,,,,,,,,,,,,,,,,,,,,,images/exp1b_trial_17_colour3_distractors43_r.png,r,2,029,001,2021-04-23_18h46.39.705,searchDisc4,2020.2.10,Win32,60,,,space,0.442255,2,1,2.559505,,0,338,338,131,1,1b,17,3,43,
,,,,,,,,,,,,,,,,,,,,,,,,,,images/exp2a_trial_67_colour2_distractors43_l.png,l,1,029,001,2021-04-23_18h46.39.705,searchDisc4,2020.2.10,Win32,60,,,space,0.310335,1,1,0.678545,,0,339,339,295,1,2a,67,2,43,
,,,,,,,,,,,,,,,,,,,,,,,,,,images/exp2a_trial_72_colour3_distractors31_l.png,l,1,029,001,2021-04-23_18h46.39.705,searchDisc4,2020.2.10,Win32,60,,,space,0.45009,1,1,0.577255,,0,340,340,300,1,2a,72,3,31,
,,,,,,,,,,,,,,,,,,,,,,,,,,images/exp2c_trial_10_colour2_distractors31_r.png,r,2,029,001,2021-04-23_18h46.39.705,searchDisc4,2020.2.10,Win32,60,,,space,0.39817,2,1,0.64138,,0,341,341,466,1,2c,10,2,31,
,,,,,,,,,,,,,,,,,,,,,,,,,,images/exp2b_trial_54_colour3_distractors31_r.png,r,2,029,001,2021-04-23_18h46.39.705,searchDisc4,2020.2.10,Win32,60,,,space,0.426825,2,1,0.90101,,0,342,342,396,1,2b,54,3,31,
,,,,,,,,,,,,,,,,,,,,,,,,,,images/exp1b_trial_98_colour1_distractors31_l.png,l,1,029,001,2021-04-23_18h46.39.705,searchDisc4,2020.2.10,Win32,60,,,space,0.47158,1,1,0.9503,,0,343,343,212,1,1b,98,1,31,
,,,,,,,,,,,,,,,,,,,,,,,,,,images/exp1a_trial_68_colour3_distractors1_l.png,l,1,029,001,2021-04-23_18h46.39.705,searchDisc4,2020.2.10,Win32,60,,,space,0.440715,1,1,0.6123,,0,344,344,68,1,1a,68,3,1,
,,,,,,,,,,,,,,,,,,,,,,,,,,images/exp2a_trial_7_colour2_distractors4_r.png,r,2,029,001,2021-04-23_18h46.39.705,searchDisc4,2020.2.10,Win32,60,,,space,0.37002,2,1,0.542095,,0,345,345,235,1,2a,7,2,4,
,,,,,,,,,,,,,,,,,,,,,,,,,,images/exp1a_trial_97_colour1_distractors19_l.png,l,1,029,001,2021-04-23_18h46.39.705,searchDisc4,2020.2.10,Win32,60,,,space,0.438615,1,1,0.77446,,0,346,346,97,1,1a,97,1,19,
,,,,,,,,,,,,,,,,,,,,,,,,,,images/exp2b_trial_23_colour1_distractors43_l.png,l,1,029,001,2021-04-23_18h46.39.705,searchDisc4,2020.2.10,Win32,60,,,space,0.41964,1,1,0.58692,,0,347,347,365,1,2b,23,1,43,
,,,,,,,,,,,,,,,,,,,,,,,,,,images/exp2c_trial_98_colour1_distractors31_l.png,l,1,029,001,2021-04-23_18h46.39.705,searchDisc4,2020.2.10,Win32,60,,,space,0.38694,1,1,0.642885,,0,348,348,554,1,2c,98,1,31,
,,,,,,,,,,,,,,,,,,,,,,,,,,images/exp1b_trial_76_colour1_distractors1_r.png,r,2,029,001,2021-04-23_18h46.39.705,searchDisc4,2020.2.10,Win32,60,,,space,0.347865,2,1,0.77635,,0,349,349,190,1,1b,76,1,1,
,,,,,,,,,,,,,,,,,,,,,,,,,,images/exp2b_trial_87_colour2_distractors43_r.png,r,2,029,001,2021-04-23_18h46.39.705,searchDisc4,2020.2.10,Win32,60,,,space,0.351575,2,1,0.672285,,0,350,350,429,1,2b,87,2,43,
,,,,,,,,,,,,,,,,,,,,,,,,,,images/exp2a_trial_90_colour3_distractors9_r.png,r,2,029,001,2021-04-23_18h46.39.705,searchDisc4,2020.2.10,Win32,60,,,space,0.366255,2,1,0.712315,,0,351,351,318,1,2a,90,3,9,
,,,,,,,,,,,,,,,,,,,,,,,,,,images/exp2a_trial_107_colour3_distractors4_l.png,l,1,029,001,2021-04-23_18h46.39.705,searchDisc4,2020.2.10,Win32,60,,,space,0.30732,1,1,0.6673,,0,352,352,335,1,2a,107,3,4,
,,,,,,,,,,,,,,,,,,,,,,,,,,images/exp2b_trial_110_colour3_distractors31_l.png,l,1,029,001,2021-04-23_18h46.39.705,searchDisc4,2020.2.10,Win32,60,,,space,0.32622,1,1,0.61827,,0,353,353,452,1,2b,110,3,31,
,,,,,,,,,,,,,,,,,,,,,,,,,,images/exp1a_trial_69_colour3_distractors4_l.png,l,1,029,001,2021-04-23_18h46.39.705,searchDisc4,2020.2.10,Win32,60,,,space,0.38475,1,1,0.583445,,0,354,354,69,1,1a,69,3,4,
,,,,,,,,,,,,,,,,,,,,,,,,,,images/exp2b_trial_61_colour1_distractors43_l.png,l,1,029,001,2021-04-23_18h46.39.705,searchDisc4,2020.2.10,Win32,60,,,space,0.302715,1,1,0.672575,,0,355,355,403,1,2b,61,1,43,
,,,,,,,,,,,,,,,,,,,,,,,,,,images/exp1a_trial_81_colour1_distractors43_r.png,r,2,029,001,2021-04-23_18h46.39.705,searchDisc4,2020.2.10,Win32,60,,,space,0.33938,2,1,0.624765,,0,356,356,81,1,1a,81,1,43,
,,,,,,,,,,,,,,,,,,,,,,,,,,images/exp2b_trial_71_colour3_distractors19_l.png,l,1,029,001,2021-04-23_18h46.39.705,searchDisc4,2020.2.10,Win32,60,,,space,0.36466,1,1,0.6728,,0,357,357,413,1,2b,71,3,19,
,,,,,,,,,,,,,,,,,,,,,,,,,,images/exp2a_trial_21_colour1_distractors19_l.png,l,1,029,001,2021-04-23_18h46.39.705,searchDisc4,2020.2.10,Win32,60,,,space,0.34357,1,1,0.77606,,0,358,358,249,1,2a,21,1,19,
,,,,,,,,,,,,,,,,,,,,,,,,,,images/exp2c_trial_106_colour3_distractors1_l.png,l,1,029,001,2021-04-23_18h46.39.705,searchDisc4,2020.2.10,Win32,60,,,space,0.336165,1,1,0.696305,space,0,359,359,562,1,2c,106,3,1,4.119225
,,,,,,,,,,,,,,,,,,,,,,,,,,images/exp2b_trial_8_colour2_distractors9_r.png,r,2,029,001,2021-04-23_18h46.39.705,searchDisc4,2020.2.10,Win32,60,,,space,0.79056,2,1,0.563025,,0,360,360,350,1,2b,8,2,9,
,,,,,,,,,,,,,,,,,,,,,,,,,,images/exp1a_trial_85_colour2_distractors19_r.png,r,2,029,001,2021-04-23_18h46.39.705,searchDisc4,2020.2.10,Win32,60,,,space,0.51855,2,1,0.738135,,0,361,361,85,1,1a,85,2,19,
,,,,,,,,,,,,,,,,,,,,,,,,,,images/exp2b_trial_105_colour2_distractors43_l.png,l,1,029,001,2021-04-23_18h46.39.705,searchDisc4,2020.2.10,Win32,60,,,space,0.31724,1,1,0.65034,,0,362,362,447,1,2b,105,2,43,
,,,,,,,,,,,,,,,,,,,,,,,,,,images/exp1b_trial_79_colour1_distractors19_r.png,r,2,029,001,2021-04-23_18h46.39.705,searchDisc4,2020.2.10,Win32,60,,,space,0.35689,2,1,0.53759,,0,363,363,193,1,1b,79,1,19,
,,,,,,,,,,,,,,,,,,,,,,,,,,images/exp2b_trial_96_colour1_distractors9_l.png,l,1,029,001,2021-04-23_18h46.39.705,searchDisc4,2020.2.10,Win32,60,,,space,0.445255,1,1,0.582975,,0,364,364,438,1,2b,96,1,9,
,,,,,,,,,,,,,,,,,,,,,,,,,,images/exp2a_trial_78_colour1_distractors9_r.png,r,2,029,001,2021-04-23_18h46.39.705,searchDisc4,2020.2.10,Win32,60,,,space,0.41317,2,1,0.57756,,0,365,365,306,1,2a,78,1,9,
,,,,,,,,,,,,,,,,,,,,,,,,,,images/exp2c_trial_96_colour1_distractors9_l.png,l,1,029,001,2021-04-23_18h46.39.705,searchDisc4,2020.2.10,Win32,60,,,space,0.4706,1,1,0.648335,,0,366,366,552,1,2c,96,1,9,
,,,,,,,,,,,,,,,,,,,,,,,,,,images/exp2a_trial_54_colour3_distractors31_r.png,r,2,029,001,2021-04-23_18h46.39.705,searchDisc4,2020.2.10,Win32,60,,,space,0.39674,2,1,0.58898,,0,367,367,282,1,2a,54,3,31,
,,,,,,,,,,,,,,,,,,,,,,,,,,images/exp2b_trial_72_colour3_distractors31_l.png,l,1,029,001,2021-04-23_18h46.39.705,searchDisc4,2020.2.10,Win32,60,,,space,0.51794,1,1,0.75999,,0,368,368,414,1,2b,72,3,31,
,,,,,,,,,,,,,,,,,,,,,,,,,,images/exp1b_trial_88_colour3_distractors1_r.png,r,2,029,001,2021-04-23_18h46.39.705,searchDisc4,2020.2.10,Win32,60,,,space,0.71914,2,1,1.151555,,0,369,369,202,1,1b,88,3,1,
,,,,,,,,,,,,,,,,,,,,,,,,,,images/exp2a_trial_52_colour3_distractors9_r.png,r,2,029,001,2021-04-23_18h46.39.705,searchDisc4,2020.2.10,Win32,60,,,space,0.36086,2,1,0.584965,,0,370,370,280,1,2a,52,3,9,
,,,,,,,,,,,,,,,,,,,,,,,,,,images/exp2c_trial_83_colour2_distractors4_r.png,r,2,029,001,2021-04-23_18h46.39.705,searchDisc4,2020.2.10,Win32,60,,,space,0.483625,2,1,0.566485,,0,371,371,539,1,2c,83,2,4,
,,,,,,,,,,,,,,,,,,,,,,,,,,images/exp1b_trial_102_colour2_distractors9_l.png,l,1,029,001,2021-04-23_18h46.39.705,searchDisc4,2020.2.10,Win32,60,,,space,0.48055,1,1,0.58859,,0,372,372,216,1,1b,102,2,9,
,,,,,,,,,,,,,,,,,,,,,,,,,,images/exp2b_trial_107_colour3_distractors4_l.png,l,1,029,001,2021-04-23_18h46.39.705,searchDisc4,2020.2.10,Win32,60,,,space,0.515235,1,1,0.540275,,0,373,373,449,1,2b,107,3,4,
,,,,,,,,,,,,,,,,,,,,,,,,,,images/exp2c_trial_90_colour3_distractors9_r.png,r,2,029,001,2021-04-23_18h46.39.705,searchDisc4,2020.2.10,Win32,60,,,space,0.43015,2,1,0.61078,,0,374,374,546,1,2c,90,3,9,
,,,,,,,,,,,,,,,,,,,,,,,,,,images/exp1a_trial_87_colour2_distractors43_r.png,r,2,029,001,2021-04-23_18h46.39.705,searchDisc4,2020.2.10,Win32,60,,,space,0.450395,2,1,0.79031,,0,375,375,87,1,1a,87,2,43,
,,,,,,,,,,,,,,,,,,,,,,,,,,images/exp1a_trial_106_colour3_distractors1_l.png,l,1,029,001,2021-04-23_18h46.39.705,searchDisc4,2020.2.10,Win32,60,,,space,0.36705,1,1,0.81909,,0,376,376,106,1,1a,106,3,1,
,,,,,,,,,,,,,,,,,,,,,,,,,,images/exp2c_trial_2_colour1_distractors9_r.png,r,2,029,001,2021-04-23_18h46.39.705,searchDisc4,2020.2.10,Win32,60,,,space,0.42507,2,1,0.68187,,0,377,377,458,1,2c,2,1,9,
,,,,,,,,,,,,,,,,,,,,,,,,,,images/exp2b_trial_31_colour3_distractors4_l.png,l,1,029,001,2021-04-23_18h46.39.705,searchDisc4,2020.2.10,Win32,60,,,space,0.45795,1,1,0.75894,,0,378,378,373,1,2b,31,3,4,
,,,,,,,,,,,,,,,,,,,,,,,,,,images/exp2a_trial_73_colour3_distractors43_l.png,l,1,029,001,2021-04-23_18h46.39.705,searchDisc4,2020.2.10,Win32,60,,,space,0.62069,1,1,0.68341,,0,379,379,301,1,2a,73,3,43,
,,,,,,,,,,,,,,,,,,,,,,,,,,images/exp2c_trial_64_colour2_distractors9_l.png,l,1,029,001,2021-04-23_18h46.39.705,searchDisc4,2020.2.10,Win32,60,,,space,0.39363,1,1,0.75152,,0,380,380,520,1,2c,64,2,9,
,,,,,,,,,,,,,,,,,,,,,,,,,,images/exp1b_trial_73_colour3_distractors43_l.png,l,1,029,001,2021-04-23_18h46.39.705,searchDisc4,2020.2.10,Win32,60,,,space,0.3306,1,1,3.46795,,0,381,381,187,1,1b,73,3,43,
,,,,,,,,,,,,,,,,,,,,,,,,,,images/exp2a_trial_45_colour2_distractors4_r.png,r,2,029,001,2021-04-23_18h46.39.705,searchDisc4,2020.2.10,Win32,60,,,space,0.314745,2,1,0.50006,,0,382,382,273,1,2a,45,2,4,
,,,,,,,,,,,,,,,,,,,,,,,,,,images/exp1b_trial_42_colour1_distractors31_r.png,r,2,029,001,2021-04-23_18h46.39.705,searchDisc4,2020.2.10,Win32,60,,,space,0.42721,2,1,0.5876,,0,383,383,156,1,1b,42,1,31,
,,,,,,,,,,,,,,,,,,,,,,,,,,images/exp2c_trial_7_colour2_distractors4_r.png,r,2,029,001,2021-04-23_18h46.39.705,searchDisc4,2020.2.10,Win32,60,,,space,0.425525,2,1,0.725805,,0,384,384,463,1,2c,7,2,4,
,,,,,,,,,,,,,,,,,,,,,,,,,,images/exp2c_trial_42_colour1_distractors31_r.png,r,2,029,001,2021-04-23_18h46.39.705,searchDisc4,2020.2.10,Win32,60,,,space,0.416325,2,1,0.576445,,0,385,385,498,1,2c,42,1,31,
,,,,,,,,,,,,,,,,,,,,,,,,,,images/exp2a_trial_28_colour2_distractors31_l.png,l,1,029,001,2021-04-23_18h46.39.705,searchDisc4,2020.2.10,Win32,60,,,space,0.407965,1,1,0.57111,,0,386,386,256,1,2a,28,2,31,
,,,,,,,,,,,,,,,,,,,,,,,,,,images/exp2c_trial_50_colour3_distractors1_r.png,r,2,029,001,2021-04-23_18h46.39.705,searchDisc4,2020.2.10,Win32,60,,,space,1.101545,2,1,0.48471,,0,387,387,506,1,2c,50,3,1,
,,,,,,,,,,,,,,,,,,,,,,,,,,images/exp1a_trial_66_colour2_distractors31_l.png,l,1,029,001,2021-04-23_18h46.39.705,searchDisc4,2020.2.10,Win32,60,,,space,0.44942,1,1,0.68045,,0,388,388,66,1,1a,66,2,31,
,,,,,,,,,,,,,,,,,,,,,,,,,,images/exp2a_trial_0_colour1_distractors1_r.png,r,2,029,001,2021-04-23_18h46.39.705,searchDisc4,2020.2.10,Win32,60,,,space,0.39647,2,1,0.58521,,0,389,389,228,1,2a,0,1,1,
,,,,,,,,,,,,,,,,,,,,,,,,,,images/exp2a_trial_19_colour1_distractors4_l.png,l,1,029,001,2021-04-23_18h46.39.705,searchDisc4,2020.2.10,Win32,60,,,space,0.419715,1,1,0.537635,,0,390,390,247,1,2a,19,1,4,
,,,,,,,,,,,,,,,,,,,,,,,,,,images/exp1b_trial_91_colour3_distractors19_r.png,r,2,029,001,2021-04-23_18h46.39.705,searchDisc4,2020.2.10,Win32,60,,,space,0.426675,2,1,1.17861,,0,391,391,205,1,1b,91,3,19,
,,,,,,,,,,,,,,,,,,,,,,,,,,images/exp1a_trial_31_colour3_distractors4_l.png,l,1,029,001,2021-04-23_18h46.39.705,searchDisc4,2020.2.10,Win32,60,,,space,0.414205,1,1,0.59686,,0,392,392,31,1,1a,31,3,4,
,,,,,,,,,,,,,,,,,,,,,,,,,,images/exp2a_trial_55_colour3_distractors43_r.png,r,2,029,001,2021-04-23_18h46.39.705,searchDisc4,2020.2.10,Win32,60,,,space,0.429545,2,1,0.86754,,0,393,393,283,1,2a,55,3,43,
,,,,,,,,,,,,,,,,,,,,,,,,,,images/exp1a_trial_84_colour2_distractors9_r.png,r,2,029,001,2021-04-23_18h46.39.705,searchDisc4,2020.2.10,Win32,60,,,space,0.56641,2,1,0.648815,,0,394,394,84,1,1a,84,2,9,
,,,,,,,,,,,,,,,,,,,,,,,,,,images/exp1b_trial_27_colour2_distractors19_l.png,l,1,029,001,2021-04-23_18h46.39.705,searchDisc4,2020.2.10,Win32,60,,,space,0.442135,1,1,0.96623,,0,395,395,141,1,1b,27,2,19,
,,,,,,,,,,,,,,,,,,,,,,,,,,images/exp1a_trial_10_colour2_distractors31_r.png,r,2,029,001,2021-04-23_18h46.39.705,searchDisc4,2020.2.10,Win32,60,,,space,0.37591,2,1,0.704695,,0,396,396,10,1,1a,10,2,31,
,,,,,,,,,,,,,,,,,,,,,,,,,,images/exp2b_trial_59_colour1_distractors19_l.png,l,1,029,001,2021-04-23_18h46.39.705,searchDisc4,2020.2.10,Win32,60,,,space,0.49171,1,1,0.612645,,0,397,397,401,1,2b,59,1,19,
,,,,,,,,,,,,,,,,,,,,,,,,,,images/exp2a_trial_84_colour2_distractors9_r.png,r,2,029,001,2021-04-23_18h46.39.705,searchDisc4,2020.2.10,Win32,60,,,space,1.92046,2,1,0.50109,,0,398,398,312,1,2a,84,2,9,
,,,,,,,,,,,,,,,,,,,,,,,,,,images/exp1a_trial_96_colour1_distractors9_l.png,l,1,029,001,2021-04-23_18h46.39.705,searchDisc4,2020.2.10,Win32,60,,,space,0.623345,1,1,0.605655,,0,399,399,96,1,1a,96,1,9,
,,,,,,,,,,,,,,,,,,,,,,,,,,images/exp1b_trial_77_colour1_distractors4_r.png,r,2,029,001,2021-04-23_18h46.39.705,searchDisc4,2020.2.10,Win32,60,,,space,0.47356,2,1,0.625425,,0,400,400,191,1,1b,77,1,4,
,,,,,,,,,,,,,,,,,,,,,,,,,,images/exp2b_trial_4_colour1_distractors31_r.png,r,2,029,001,2021-04-23_18h46.39.705,searchDisc4,2020.2.10,Win32,60,,,space,0.477505,2,1,0.58713,,0,401,401,346,1,2b,4,1,31,
,,,,,,,,,,,,,,,,,,,,,,,,,,images/exp1b_trial_41_colour1_distractors19_r.png,r,2,029,001,2021-04-23_18h46.39.705,searchDisc4,2020.2.10,Win32,60,,,space,0.468975,2,1,0.703225,,0,402,402,155,1,1b,41,1,19,
,,,,,,,,,,,,,,,,,,,,,,,,,,images/exp1b_trial_103_colour2_distractors19_l.png,l,1,029,001,2021-04-23_18h46.39.705,searchDisc4,2020.2.10,Win32,60,,,space,0.48771,1,1,0.83862,,0,403,403,217,1,1b,103,2,19,
,,,,,,,,,,,,,,,,,,,,,,,,,,images/exp1b_trial_113_colour0_distractors0_l.png,l,1,029,001,2021-04-23_18h46.39.705,searchDisc4,2020.2.10,Win32,60,,,space,0.406625,1,1,0.54609,,0,404,404,227,1,1b,113,0,0,
,,,,,,,,,,,,,,,,,,,,,,,,,,images/exp1b_trial_52_colour3_distractors9_r.png,r,2,029,001,2021-04-23_18h46.39.705,searchDisc4,2020.2.10,Win32,60,,,space,0.66217,2,1,0.56732,,0,405,405,166,1,1b,52,3,9,
,,,,,,,,,,,,,,,,,,,,,,,,,,images/exp2b_trial_42_colour1_distractors31_r.png,r,2,029,001,2021-04-23_18h46.39.705,searchDisc4,2020.2.10,Win32,60,,,space,0.602075,2,1,0.65322,,0,406,406,384,1,2b,42,1,31,
,,,,,,,,,,,,,,,,,,,,,,,,,,images/exp1b_trial_23_colour1_distractors43_l.png,l,1,029,001,2021-04-23_18h46.39.705,searchDisc4,2020.2.10,Win32,60,,,space,0.72891,1,1,0.711905,,0,407,407,137,1,1b,23,1,43,
,,,,,,,,,,,,,,,,,,,,,,,,,,images/exp1b_trial_62_colour2_distractors1_l.png,l,1,029,001,2021-04-23_18h46.39.705,searchDisc4,2020.2.10,Win32,60,,,space,0.53572,1,1,0.61242,,0,408,408,176,1,1b,62,2,1,
,,,,,,,,,,,,,,,,,,,,,,,,,,images/exp2c_trial_109_colour3_distractors19_l.png,l,1,029,001,2021-04-23_18h46.39.705,searchDisc4,2020.2.10,Win32,60,,,space,0.91838,1,1,0.559175,,0,409,409,565,1,2c,109,3,19,
,,,,,,,,,,,,,,,,,,,,,,,,,,images/exp2b_trial_90_colour3_distractors9_r.png,r,2,029,001,2021-04-23_18h46.39.705,searchDisc4,2020.2.10,Win32,60,,,space,0.581115,2,1,0.694605,,0,410,410,432,1,2b,90,3,9,
,,,,,,,,,,,,,,,,,,,,,,,,,,images/exp1a_trial_53_colour3_distractors19_r.png,r,2,029,001,2021-04-23_18h46.39.705,searchDisc4,2020.2.10,Win32,60,,,space,0.47155,2,1,0.520275,,0,411,411,53,1,1a,53,3,19,
,,,,,,,,,,,,,,,,,,,,,,,,,,images/exp1b_trial_45_colour2_distractors4_r.png,r,2,029,001,2021-04-23_18h46.39.705,searchDisc4,2020.2.10,Win32,60,,,space,0.64501,2,1,0.716265,,0,412,412,159,1,1b,45,2,4,
,,,,,,,,,,,,,,,,,,,,,,,,,,images/exp1b_trial_15_colour3_distractors19_r.png,r,2,029,001,2021-04-23_18h46.39.705,searchDisc4,2020.2.10,Win32,60,,,space,0.58236,2,1,0.69027,,0,413,413,129,1,1b,15,3,19,
,,,,,,,,,,,,,,,,,,,,,,,,,,images/exp2b_trial_28_colour2_distractors31_l.png,l,1,029,001,2021-04-23_18h46.39.705,searchDisc4,2020.2.10,Win32,60,,,space,0.55131,1,1,0.632945,,0,414,414,370,1,2b,28,2,31,
,,,,,,,,,,,,,,,,,,,,,,,,,,images/exp2a_trial_22_colour1_distractors31_l.png,l,1,029,001,2021-04-23_18h46.39.705,searchDisc4,2020.2.10,Win32,60,,,space,0.418515,1,1,0.60284,,0,415,415,250,1,2a,22,1,31,
,,,,,,,,,,,,,,,,,,,,,,,,,,images/exp1b_trial_90_colour3_distractors9_r.png,r,2,029,001,2021-04-23_18h46.39.705,searchDisc4,2020.2.10,Win32,60,,,space,0.616735,2,1,0.56202,,0,416,416,204,1,1b,90,3,9,
,,,,,,,,,,,,,,,,,,,,,,,,,,images/exp1b_trial_49_colour2_distractors43_r.png,r,2,029,001,2021-04-23_18h46.39.705,searchDisc4,2020.2.10,Win32,60,,,space,0.52714,2,1,0.96763,,0,417,417,163,1,1b,49,2,43,
,,,,,,,,,,,,,,,,,,,,,,,,,,images/exp1b_trial_84_colour2_distractors9_r.png,r,2,029,001,2021-04-23_18h46.39.705,searchDisc4,2020.2.10,Win32,60,,,space,0.41937,2,1,0.95749,,0,418,418,198,1,1b,84,2,9,
,,,,,,,,,,,,,,,,,,,,,,,,,,images/exp2a_trial_8_colour2_distractors9_r.png,r,2,029,001,2021-04-23_18h46.39.705,searchDisc4,2020.2.10,Win32,60,,,space,0.383915,2,1,0.715315,space,0,419,419,236,1,2a,8,2,9,4.8069
,,,,,,,,,,,,,,,,,,,,,,,,,,images/exp2b_trial_9_colour2_distractors19_r.png,r,2,029,001,2021-04-23_18h46.39.705,searchDisc4,2020.2.10,Win32,60,,,space,0.784795,2,1,0.55754,,0,420,420,351,1,2b,9,2,19,
,,,,,,,,,,,,,,,,,,,,,,,,,,images/exp2b_trial_11_colour2_distractors43_r.png,r,2,029,001,2021-04-23_18h46.39.705,searchDisc4,2020.2.10,Win32,60,,,space,0.464265,2,1,0.52932,,0,421,421,353,1,2b,11,2,43,
,,,,,,,,,,,,,,,,,,,,,,,,,,images/exp1a_trial_36_colour0_distractors0_r.png,r,2,029,001,2021-04-23_18h46.39.705,searchDisc4,2020.2.10,Win32,60,,,space,0.348865,2,1,0.442675,,0,422,422,36,1,1a,36,0,0,
,,,,,,,,,,,,,,,,,,,,,,,,,,images/exp2c_trial_5_colour1_distractors43_r.png,r,2,029,001,2021-04-23_18h46.39.705,searchDisc4,2020.2.10,Win32,60,,,space,0.38017,2,1,0.53834,,0,423,423,461,1,2c,5,1,43,
,,,,,,,,,,,,,,,,,,,,,,,,,,images/exp2b_trial_67_colour2_distractors43_l.png,l,1,029,001,2021-04-23_18h46.39.705,searchDisc4,2020.2.10,Win32,60,,,space,0.343145,1,1,0.623795,,0,424,424,409,1,2b,67,2,43,
,,,,,,,,,,,,,,,,,,,,,,,,,,images/exp1b_trial_87_colour2_distractors43_r.png,r,2,029,001,2021-04-23_18h46.39.705,searchDisc4,2020.2.10,Win32,60,,,space,0.29309,2,1,2.424865,,0,425,425,201,1,1b,87,2,43,
,,,,,,,,,,,,,,,,,,,,,,,,,,images/exp1b_trial_100_colour2_distractors1_l.png,l,1,029,001,2021-04-23_18h46.39.705,searchDisc4,2020.2.10,Win32,60,,,space,0.37856,1,1,0.540645,,0,426,426,214,1,1b,100,2,1,
,,,,,,,,,,,,,,,,,,,,,,,,,,images/exp1b_trial_53_colour3_distractors19_r.png,r,2,029,001,2021-04-23_18h46.39.705,searchDisc4,2020.2.10,Win32,60,,,space,0.301585,2,1,1.18898,,0,427,427,167,1,1b,53,3,19,
,,,,,,,,,,,,,,,,,,,,,,,,,,images/exp1b_trial_50_colour3_distractors1_r.png,r,2,029,001,2021-04-23_18h46.39.705,searchDisc4,2020.2.10,Win32,60,,,space,0.34286,2,1,0.534195,,0,428,428,164,1,1b,50,3,1,
,,,,,,,,,,,,,,,,,,,,,,,,,,images/exp2a_trial_40_colour1_distractors9_r.png,r,2,029,001,2021-04-23_18h46.39.705,searchDisc4,2020.2.10,Win32,60,,,space,0.37734,2,1,0.71516,,0,429,429,268,1,2a,40,1,9,
,,,,,,,,,,,,,,,,,,,,,,,,,,images/exp2a_trial_56_colour1_distractors1_l.png,l,1,029,001,2021-04-23_18h46.39.705,searchDisc4,2020.2.10,Win32,60,,,space,0.24739,2,0,0.004925,,0,430,430,284,1,2a,56,1,1,
,,,,,,,,,,,,,,,,,,,,,,,,,,images/exp1a_trial_32_colour3_distractors9_l.png,l,1,029,001,2021-04-23_18h46.39.705,searchDisc4,2020.2.10,Win32,60,,,space,1.448595,1,1,0.57109,,0,431,431,32,1,1a,32,3,9,
,,,,,,,,,,,,,,,,,,,,,,,,,,images/exp2b_trial_52_colour3_distractors9_r.png,r,2,029,001,2021-04-23_18h46.39.705,searchDisc4,2020.2.10,Win32,60,,,space,0.33915,2,1,0.698445,,0,432,432,394,1,2b,52,3,9,
,,,,,,,,,,,,,,,,,,,,,,,,,,images/exp2b_trial_113_colour0_distractors0_l.png,l,1,029,001,2021-04-23_18h46.39.705,searchDisc4,2020.2.10,Win32,60,,,space,0.22799,1,1,0.637605,,0,433,433,455,1,2b,113,0,0,
,,,,,,,,,,,,,,,,,,,,,,,,,,images/exp1b_trial_5_colour1_distractors43_r.png,r,2,029,001,2021-04-23_18h46.39.705,searchDisc4,2020.2.10,Win32,60,,,space,0.28018,2,1,0.800605,,0,434,434,119,1,1b,5,1,43,
,,,,,,,,,,,,,,,,,,,,,,,,,,images/exp1b_trial_16_colour3_distractors31_r.png,r,2,029,001,2021-04-23_18h46.39.705,searchDisc4,2020.2.10,Win32,60,,,space,0.28595,2,1,1.37461,,0,435,435,130,1,1b,16,3,31,
,,,,,,,,,,,,,,,,,,,,,,,,,,images/exp1b_trial_89_colour3_distractors4_r.png,r,2,029,001,2021-04-23_18h46.39.705,searchDisc4,2020.2.10,Win32,60,,,space,0.28658,2,1,0.696305,,0,436,436,203,1,1b,89,3,4,
,,,,,,,,,,,,,,,,,,,,,,,,,,images/exp1a_trial_33_colour3_distractors19_l.png,l,1,029,001,2021-04-23_18h46.39.705,searchDisc4,2020.2.10,Win32,60,,,space,0.192045,1,1,0.654585,,0,437,437,33,1,1a,33,3,19,
,,,,,,,,,,,,,,,,,,,,,,,,,,images/exp2b_trial_76_colour1_distractors1_r.png,r,2,029,001,2021-04-23_18h46.39.705,searchDisc4,2020.2.10,Win32,60,,,space,0.26798,2,1,0.576995,,0,438,438,418,1,2b,76,1,1,
,,,,,,,,,,,,,,,,,,,,,,,,,,images/exp2b_trial_43_colour1_distractors43_r.png,r,2,029,001,2021-04-23_18h46.39.705,searchDisc4,2020.2.10,Win32,60,,,space,0.293425,2,1,0.639525,,0,439,439,385,1,2b,43,1,43,
,,,,,,,,,,,,,,,,,,,,,,,,,,images/exp1a_trial_39_colour1_distractors4_r.png,r,2,029,001,2021-04-23_18h46.39.705,searchDisc4,2020.2.10,Win32,60,,,space,0.29768,2,1,0.630245,,0,440,440,39,1,1a,39,1,4,
,,,,,,,,,,,,,,,,,,,,,,,,,,images/exp1a_trial_27_colour2_distractors19_l.png,l,1,029,001,2021-04-23_18h46.39.705,searchDisc4,2020.2.10,Win32,60,,,space,0.342345,1,1,0.655365,,0,441,441,27,1,1a,27,2,19,
,,,,,,,,,,,,,,,,,,,,,,,,,,images/exp2a_trial_97_colour1_distractors19_l.png,l,1,029,001,2021-04-23_18h46.39.705,searchDisc4,2020.2.10,Win32,60,,,space,0.329675,1,1,0.614135,,0,442,442,325,1,2a,97,1,19,
,,,,,,,,,,,,,,,,,,,,,,,,,,images/exp1a_trial_78_colour1_distractors9_r.png,r,2,029,001,2021-04-23_18h46.39.705,searchDisc4,2020.2.10,Win32,60,,,space,0.327085,2,1,0.5769,,0,443,443,78,1,1a,78,1,9,
,,,,,,,,,,,,,,,,,,,,,,,,,,images/exp1b_trial_37_colour0_distractors0_l.png,l,1,029,001,2021-04-23_18h46.39.705,searchDisc4,2020.2.10,Win32,60,,,space,0.333835,1,1,0.57215,,0,444,444,151,1,1b,37,0,0,
,,,,,,,,,,,,,,,,,,,,,,,,,,images/exp2a_trial_16_colour3_distractors31_r.png,r,2,029,001,2021-04-23_18h46.39.705,searchDisc4,2020.2.10,Win32,60,,,space,0.320035,2,1,0.65901,,0,445,445,244,1,2a,16,3,31,
,,,,,,,,,,,,,,,,,,,,,,,,,,images/exp2a_trial_26_colour2_distractors9_l.png,l,1,029,001,2021-04-23_18h46.39.705,searchDisc4,2020.2.10,Win32,60,,,space,0.302765,1,1,0.65168,,0,446,446,254,1,2a,26,2,9,
,,,,,,,,,,,,,,,,,,,,,,,,,,images/exp2a_trial_89_colour3_distractors4_r.png,r,2,029,001,2021-04-23_18h46.39.705,searchDisc4,2020.2.10,Win32,60,,,space,0.3121,2,1,0.67671,,0,447,447,317,1,2a,89,3,4,
,,,,,,,,,,,,,,,,,,,,,,,,,,images/exp2b_trial_12_colour3_distractors1_r.png,r,2,029,001,2021-04-23_18h46.39.705,searchDisc4,2020.2.10,Win32,60,,,space,0.262215,2,1,0.63633,,0,448,448,354,1,2b,12,3,1,
,,,,,,,,,,,,,,,,,,,,,,,,,,images/exp2a_trial_49_colour2_distractors43_r.png,r,2,029,001,2021-04-23_18h46.39.705,searchDisc4,2020.2.10,Win32,60,,,space,0.28978,2,1,0.59521,,0,449,449,277,1,2a,49,2,43,
,,,,,,,,,,,,,,,,,,,,,,,,,,images/exp1a_trial_13_colour3_distractors4_r.png,r,2,029,001,2021-04-23_18h46.39.705,searchDisc4,2020.2.10,Win32,60,,,space,0.275855,2,1,0.499925,,0,450,450,13,1,1a,13,3,4,
,,,,,,,,,,,,,,,,,,,,,,,,,,images/exp1a_trial_74_colour0_distractors0_r.png,r,2,029,001,2021-04-23_18h46.39.705,searchDisc4,2020.2.10,Win32,60,,,space,0.3083,2,1,0.64837,,0,451,451,74,1,1a,74,0,0,
,,,,,,,,,,,,,,,,,,,,,,,,,,images/exp2c_trial_24_colour2_distractors1_l.png,l,1,029,001,2021-04-23_18h46.39.705,searchDisc4,2020.2.10,Win32,60,,,space,0.427155,1,1,0.87934,,0,452,452,480,1,2c,24,2,1,
,,,,,,,,,,,,,,,,,,,,,,,,,,images/exp1a_trial_47_colour2_distractors19_r.png,r,2,029,001,2021-04-23_18h46.39.705,searchDisc4,2020.2.10,Win32,60,,,space,0.25521,2,1,0.892255,,0,453,453,47,1,1a,47,2,19,
,,,,,,,,,,,,,,,,,,,,,,,,,,images/exp2c_trial_70_colour3_distractors9_l.png,l,1,029,001,2021-04-23_18h46.39.705,searchDisc4,2020.2.10,Win32,60,,,space,0.294675,1,1,0.62205,,0,454,454,526,1,2c,70,3,9,
,,,,,,,,,,,,,,,,,,,,,,,,,,images/exp2a_trial_38_colour1_distractors1_r.png,r,2,029,001,2021-04-23_18h46.39.705,searchDisc4,2020.2.10,Win32,60,,,space,0.257335,2,1,0.61269,,0,455,455,266,1,2a,38,1,1,
,,,,,,,,,,,,,,,,,,,,,,,,,,images/exp2c_trial_73_colour3_distractors43_l.png,l,1,029,001,2021-04-23_18h46.39.705,searchDisc4,2020.2.10,Win32,60,,,space,0.276065,1,1,0.68843,,0,456,456,529,1,2c,73,3,43,
,,,,,,,,,,,,,,,,,,,,,,,,,,images/exp2b_trial_10_colour2_distractors31_r.png,r,2,029,001,2021-04-23_18h46.39.705,searchDisc4,2020.2.10,Win32,60,,,space,0.298845,2,1,0.65452,,0,457,457,352,1,2b,10,2,31,
,,,,,,,,,,,,,,,,,,,,,,,,,,images/exp2a_trial_57_colour1_distractors4_l.png,l,1,029,001,2021-04-23_18h46.39.705,searchDisc4,2020.2.10,Win32,60,,,space,0.300225,1,1,0.74048,,0,458,458,285,1,2a,57,1,4,
,,,,,,,,,,,,,,,,,,,,,,,,,,images/exp1b_trial_55_colour3_distractors43_r.png,r,2,029,001,2021-04-23_18h46.39.705,searchDisc4,2020.2.10,Win32,60,,,space,0.30895,,0,,,0,459,459,169,1,1b,55,3,43,
,,,,,,,,,,,,,,,,,,,,,,,,,,images/exp1b_trial_59_colour1_distractors19_l.png,l,1,029,001,2021-04-23_18h46.39.705,searchDisc4,2020.2.10,Win32,60,,,space,1.85024,1,1,0.703765,,0,460,460,173,1,1b,59,1,19,
,,,,,,,,,,,,,,,,,,,,,,,,,,images/exp2a_trial_93_colour3_distractors43_r.png,r,2,029,001,2021-04-23_18h46.39.705,searchDisc4,2020.2.10,Win32,60,,,space,0.321155,2,1,0.70241,,0,461,461,321,1,2a,93,3,43,
,,,,,,,,,,,,,,,,,,,,,,,,,,images/exp2a_trial_94_colour1_distractors1_l.png,l,1,029,001,2021-04-23_18h46.39.705,searchDisc4,2020.2.10,Win32,60,,,space,0.2993,1,1,0.638145,,0,462,462,322,1,2a,94,1,1,
,,,,,,,,,,,,,,,,,,,,,,,,,,images/exp2c_trial_76_colour1_distractors1_r.png,r,2,029,001,2021-04-23_18h46.39.705,searchDisc4,2020.2.10,Win32,60,,,space,0.31139,2,1,0.76152,,0,463,463,532,1,2c,76,1,1,
,,,,,,,,,,,,,,,,,,,,,,,,,,images/exp1a_trial_93_colour3_distractors43_r.png,r,2,029,001,2021-04-23_18h46.39.705,searchDisc4,2020.2.10,Win32,60,,,space,0.393795,2,1,0.67668,,0,464,464,93,1,1a,93,3,43,
,,,,,,,,,,,,,,,,,,,,,,,,,,images/exp2c_trial_0_colour1_distractors1_r.png,r,2,029,001,2021-04-23_18h46.39.705,searchDisc4,2020.2.10,Win32,60,,,space,0.34524,2,1,0.607115,,0,465,465,456,1,2c,0,1,1,
,,,,,,,,,,,,,,,,,,,,,,,,,,images/exp2a_trial_69_colour3_distractors4_l.png,l,1,029,001,2021-04-23_18h46.39.705,searchDisc4,2020.2.10,Win32,60,,,space,0.35416,1,1,0.61204,,0,466,466,297,1,2a,69,3,4,
,,,,,,,,,,,,,,,,,,,,,,,,,,images/exp1b_trial_31_colour3_distractors4_l.png,l,1,029,001,2021-04-23_18h46.39.705,searchDisc4,2020.2.10,Win32,60,,,space,0.333705,1,1,0.973795,,0,467,467,145,1,1b,31,3,4,
,,,,,,,,,,,,,,,,,,,,,,,,,,images/exp2a_trial_18_colour1_distractors1_l.png,l,1,029,001,2021-04-23_18h46.39.705,searchDisc4,2020.2.10,Win32,60,,,space,0.32871,1,1,0.58344,,0,468,468,246,1,2a,18,1,1,
,,,,,,,,,,,,,,,,,,,,,,,,,,images/exp2b_trial_6_colour2_distractors1_r.png,r,2,029,001,2021-04-23_18h46.39.705,searchDisc4,2020.2.10,Win32,60,,,space,0.31638,2,1,0.557405,,0,469,469,348,1,2b,6,2,1,
,,,,,,,,,,,,,,,,,,,,,,,,,,images/exp1b_trial_106_colour3_distractors1_l.png,l,1,029,001,2021-04-23_18h46.39.705,searchDisc4,2020.2.10,Win32,60,,,space,0.32423,2,0,1.329255,,0,470,470,220,1,1b,106,3,1,
,,,,,,,,,,,,,,,,,,,,,,,,,,images/exp2a_trial_82_colour2_distractors1_r.png,r,2,029,001,2021-04-23_18h46.39.705,searchDisc4,2020.2.10,Win32,60,,,space,0.55021,1,0,0.912275,,0,471,471,310,1,2a,82,2,1,
,,,,,,,,,,,,,,,,,,,,,,,,,,images/exp1a_trial_38_colour1_distractors1_r.png,r,2,029,001,2021-04-23_18h46.39.705,searchDisc4,2020.2.10,Win32,60,,,space,0.302835,2,1,0.9832,,0,472,472,38,1,1a,38,1,1,
,,,,,,,,,,,,,,,,,,,,,,,,,,images/exp2b_trial_41_colour1_distractors19_r.png,r,2,029,001,2021-04-23_18h46.39.705,searchDisc4,2020.2.10,Win32,60,,,space,0.29009,2,1,0.680145,,0,473,473,383,1,2b,41,1,19,
,,,,,,,,,,,,,,,,,,,,,,,,,,images/exp1a_trial_60_colour1_distractors31_l.png,l,1,029,001,2021-04-23_18h46.39.705,searchDisc4,2020.2.10,Win32,60,,,space,0.25543,1,1,0.672075,,0,474,474,60,1,1a,60,1,31,
,,,,,,,,,,,,,,,,,,,,,,,,,,images/exp2c_trial_77_colour1_distractors4_r.png,r,2,029,001,2021-04-23_18h46.39.705,searchDisc4,2020.2.10,Win32,60,,,space,0.307185,2,1,0.61633,,0,475,475,533,1,2c,77,1,4,
,,,,,,,,,,,,,,,,,,,,,,,,,,images/exp1a_trial_101_colour2_distractors4_l.png,l,1,029,001,2021-04-23_18h46.39.705,searchDisc4,2020.2.10,Win32,60,,,space,0.38243,1,1,0.582645,,0,476,476,101,1,1a,101,2,4,
