X Scale,Y Scale,key_resp_10.keys,key_resp_10.rt,key_resp_11.keys,key_resp_11.rt,key_resp_12.keys,key_resp_12.rt,key_resp_13.keys,key_resp_13.rt,key_resp_5.keys,key_resp_5.rt,key_resp_8.keys,key_resp_8.rt,key_resp_6.keys,key_resp_6.rt,key_resp_7.keys,key_resp_7.rt,key_resp_4.keys,key_resp_4.corr,key_resp_4.rt,trials_2.thisRepN,trials_2.thisTrialN,trials_2.thisN,trials_2.thisIndex,trials_2.ran,ImageFile,targ_side,correctAnswer,participant,session,date,expName,psychopyVersion,OS,frameRate,key_resp_3.keys,key_resp_3.rt,key_resp_9.keys,key_resp_9.rt,key_resp_2.keys,key_resp_2.corr,key_resp_2.rt,key_resp.keys,trials.thisRepN,trials.thisTrialN,trials.thisN,trials.thisIndex,trials.ran,exp,trial,colour,distNo,key_resp.rt
17.4,18,space,7.281465,space,45.21229,space,26.96906,space,12.091045,space,28.575585,space,46.199,space,6.88273,space,11.227605,1,1,3.25514,0,0,0,15,1,Practice arrays/exp1a_trial_32_colour3_distractors9_l.png,l,1,030,001,2021-04-24_15h49.27.553,searchDisc4,2020.2.10,Win32,60,,,,,,,,,,,,,,,,,,
,,,,,,,,,,,,,,,,space,33.033355,2,1,0.74721,0,1,1,4,1,Practice arrays/exp1a_trial_8_colour2_distractors9_r.png,r,2,030,001,2021-04-24_15h49.27.553,searchDisc4,2020.2.10,Win32,60,,,,,,,,,,,,,,,,,,
,,,,,,,,,,,,,,,,space,0.442915,2,1,0.637525,0,2,2,18,1,Practice arrays/exp1a_trial_36_colour0_distractors0_r.png,r,2,030,001,2021-04-24_15h49.27.553,searchDisc4,2020.2.10,Win32,60,,,,,,,,,,,,,,,,,,
,,,,,,,,,,,,,,,,space,0.310505,1,1,0.565925,0,3,3,10,1,Practice arrays/exp1a_trial_20_colour1_distractors9_l.png,l,1,030,001,2021-04-24_15h49.27.553,searchDisc4,2020.2.10,Win32,60,,,,,,,,,,,,,,,,,,
,,,,,,,,,,,,,,,,space,0.566,2,1,0.56597,0,4,4,7,1,Practice arrays/exp1a_trial_13_colour3_distractors4_r.png,r,2,030,001,2021-04-24_15h49.27.553,searchDisc4,2020.2.10,Win32,60,,,,,,,,,,,,,,,,,,
,,,,,,,,,,,,,,,,space,0.338325,2,1,0.50306,0,5,5,1,1,Practice arrays/exp1a_trial_3_colour1_distractors19_r.png,r,2,030,001,2021-04-24_15h49.27.553,searchDisc4,2020.2.10,Win32,60,,,,,,,,,,,,,,,,,,
,,,,,,,,,,,,,,,,space,0.303975,1,0,0.637555,0,6,6,5,1,Practice arrays/exp1a_trial_10_colour2_distractors31_r.png,r,2,030,001,2021-04-24_15h49.27.553,searchDisc4,2020.2.10,Win32,60,,,,,,,,,,,,,,,,,,
,,,,,,,,,,,,,,,,space,0.050315,1,1,0.87769,0,7,7,17,1,Practice arrays/exp1a_trial_35_colour3_distractors43_l.png,l,1,030,001,2021-04-24_15h49.27.553,searchDisc4,2020.2.10,Win32,60,,,,,,,,,,,,,,,,,,
,,,,,,,,,,,,,,,,space,0.416935,2,1,0.609545,0,8,8,2,1,Practice arrays/exp1a_trial_5_colour1_distractors43_r.png,r,2,030,001,2021-04-24_15h49.27.553,searchDisc4,2020.2.10,Win32,60,,,,,,,,,,,,,,,,,,
,,,,,,,,,,,,,,,,space,0.32499,1,1,0.483865,0,9,9,19,1,Practice arrays/exp1a_trial_37_colour0_distractors0_l.png,l,1,030,001,2021-04-24_15h49.27.553,searchDisc4,2020.2.10,Win32,60,,,,,,,,,,,,,,,,,,
,,,,,,,,,,,,,,,,space,0.332725,2,1,0.497295,0,10,10,3,1,Practice arrays/exp1a_trial_7_colour2_distractors4_r.png,r,2,030,001,2021-04-24_15h49.27.553,searchDisc4,2020.2.10,Win32,60,,,,,,,,,,,,,,,,,,
,,,,,,,,,,,,,,,,space,0.367465,1,1,0.765405,0,11,11,12,1,Practice arrays/exp1a_trial_25_colour2_distractors4_l.png,l,1,030,001,2021-04-24_15h49.27.553,searchDisc4,2020.2.10,Win32,60,,,,,,,,,,,,,,,,,,
,,,,,,,,,,,,,,,,space,0.083475,1,1,0.49279,0,12,12,14,1,Practice arrays/exp1a_trial_29_colour2_distractors43_l.png,l,1,030,001,2021-04-24_15h49.27.553,searchDisc4,2020.2.10,Win32,60,,,,,,,,,,,,,,,,,,
,,,,,,,,,,,,,,,,space,0.56708,1,1,0.51444,0,13,13,13,1,Practice arrays/exp1a_trial_28_colour2_distractors31_l.png,l,1,030,001,2021-04-24_15h49.27.553,searchDisc4,2020.2.10,Win32,60,,,,,,,,,,,,,,,,,,
,,,,,,,,,,,,,,,,space,0.24176,2,1,0.46731,0,14,14,0,1,Practice arrays/exp1a_trial_0_colour1_distractors1_r.png,r,2,030,001,2021-04-24_15h49.27.553,searchDisc4,2020.2.10,Win32,60,,,,,,,,,,,,,,,,,,
,,,,,,,,,,,,,,,,space,0.267725,1,1,0.395295,0,15,15,16,1,Practice arrays/exp1a_trial_33_colour3_distractors19_l.png,l,1,030,001,2021-04-24_15h49.27.553,searchDisc4,2020.2.10,Win32,60,,,,,,,,,,,,,,,,,,
,,,,,,,,,,,,,,,,space,0.23936,2,1,0.416365,0,16,16,6,1,Practice arrays/exp1a_trial_12_colour3_distractors1_r.png,r,2,030,001,2021-04-24_15h49.27.553,searchDisc4,2020.2.10,Win32,60,,,,,,,,,,,,,,,,,,
,,,,,,,,,,,,,,,,space,0.32303,1,1,0.416185,0,17,17,11,1,Practice arrays/exp1a_trial_21_colour1_distractors19_l.png,l,1,030,001,2021-04-24_15h49.27.553,searchDisc4,2020.2.10,Win32,60,,,,,,,,,,,,,,,,,,
,,,,,,,,,,,,,,,,space,0.20393,1,1,0.43976,0,18,18,9,1,Practice arrays/exp1a_trial_19_colour1_distractors4_l.png,l,1,030,001,2021-04-24_15h49.27.553,searchDisc4,2020.2.10,Win32,60,,,,,,,,,,,,,,,,,,
,,,,,,,,,,,,,,,,space,0.21616,2,1,0.428,0,19,19,8,1,Practice arrays/exp1a_trial_16_colour3_distractors31_r.png,r,2,030,001,2021-04-24_15h49.27.553,searchDisc4,2020.2.10,Win32,60,,,,,,,,,,,,,,,,,,
,,,,,,,,,,,,,,,,,,,,,,,,,,images/exp2a_trial_106_colour3_distractors1_l.png,l,1,030,001,2021-04-24_15h49.27.553,searchDisc4,2020.2.10,Win32,60,space,31.62058,space,1.32829,1,1,0.462235,,0,0,0,334,1,2a,106,3,1,
,,,,,,,,,,,,,,,,,,,,,,,,,,images/exp2a_trial_30_colour3_distractors1_l.png,l,1,030,001,2021-04-24_15h49.27.553,searchDisc4,2020.2.10,Win32,60,,,space,1.07754,1,1,0.62101,,0,1,1,258,1,2a,30,3,1,
,,,,,,,,,,,,,,,,,,,,,,,,,,images/exp2c_trial_88_colour3_distractors1_r.png,r,2,030,001,2021-04-24_15h49.27.553,searchDisc4,2020.2.10,Win32,60,,,space,0.682155,2,1,0.62473,,0,2,2,544,1,2c,88,3,1,
,,,,,,,,,,,,,,,,,,,,,,,,,,images/exp2a_trial_13_colour3_distractors4_r.png,r,2,030,001,2021-04-24_15h49.27.553,searchDisc4,2020.2.10,Win32,60,,,space,0.617725,2,1,0.55629,,0,3,3,241,1,2a,13,3,4,
,,,,,,,,,,,,,,,,,,,,,,,,,,images/exp2c_trial_21_colour1_distractors19_l.png,l,1,030,001,2021-04-24_15h49.27.553,searchDisc4,2020.2.10,Win32,60,,,space,0.60915,1,1,0.605535,,0,4,4,477,1,2c,21,1,19,
,,,,,,,,,,,,,,,,,,,,,,,,,,images/exp2a_trial_92_colour3_distractors31_r.png,r,2,030,001,2021-04-24_15h49.27.553,searchDisc4,2020.2.10,Win32,60,,,space,0.47135,2,1,0.486025,,0,5,5,320,1,2a,92,3,31,
,,,,,,,,,,,,,,,,,,,,,,,,,,images/exp2a_trial_85_colour2_distractors19_r.png,r,2,030,001,2021-04-24_15h49.27.553,searchDisc4,2020.2.10,Win32,60,,,space,0.559315,2,1,0.556615,,0,6,6,313,1,2a,85,2,19,
,,,,,,,,,,,,,,,,,,,,,,,,,,images/exp2b_trial_58_colour1_distractors9_l.png,l,1,030,001,2021-04-24_15h49.27.553,searchDisc4,2020.2.10,Win32,60,,,space,0.52141,1,1,0.504615,,0,7,7,400,1,2b,58,1,9,
,,,,,,,,,,,,,,,,,,,,,,,,,,images/exp1b_trial_77_colour1_distractors4_r.png,r,2,030,001,2021-04-24_15h49.27.553,searchDisc4,2020.2.10,Win32,60,,,space,0.5106,2,1,0.79085,,0,8,8,191,1,1b,77,1,4,
,,,,,,,,,,,,,,,,,,,,,,,,,,images/exp2b_trial_6_colour2_distractors1_r.png,r,2,030,001,2021-04-24_15h49.27.553,searchDisc4,2020.2.10,Win32,60,,,space,0.47318,2,1,0.506055,,0,9,9,348,1,2b,6,2,1,
,,,,,,,,,,,,,,,,,,,,,,,,,,images/exp2b_trial_54_colour3_distractors31_r.png,r,2,030,001,2021-04-24_15h49.27.553,searchDisc4,2020.2.10,Win32,60,,,space,0.48865,2,1,0.745145,,0,10,10,396,1,2b,54,3,31,
,,,,,,,,,,,,,,,,,,,,,,,,,,images/exp2a_trial_4_colour1_distractors31_r.png,r,2,030,001,2021-04-24_15h49.27.553,searchDisc4,2020.2.10,Win32,60,,,space,0.30121,2,1,0.53952,,0,11,11,232,1,2a,4,1,31,
,,,,,,,,,,,,,,,,,,,,,,,,,,images/exp2c_trial_48_colour2_distractors31_r.png,r,2,030,001,2021-04-24_15h49.27.553,searchDisc4,2020.2.10,Win32,60,,,space,0.409995,2,1,0.74196,,0,12,12,504,1,2c,48,2,31,
,,,,,,,,,,,,,,,,,,,,,,,,,,images/exp1a_trial_12_colour3_distractors1_r.png,r,2,030,001,2021-04-24_15h49.27.553,searchDisc4,2020.2.10,Win32,60,,,space,0.299255,2,1,0.48273,,0,13,13,12,1,1a,12,3,1,
,,,,,,,,,,,,,,,,,,,,,,,,,,images/exp1a_trial_21_colour1_distractors19_l.png,l,1,030,001,2021-04-24_15h49.27.553,searchDisc4,2020.2.10,Win32,60,,,space,0.43289,1,1,0.538155,,0,14,14,21,1,1a,21,1,19,
,,,,,,,,,,,,,,,,,,,,,,,,,,images/exp1b_trial_28_colour2_distractors31_l.png,l,1,030,001,2021-04-24_15h49.27.553,searchDisc4,2020.2.10,Win32,60,,,space,0.37661,1,1,0.62157,,0,15,15,142,1,1b,28,2,31,
,,,,,,,,,,,,,,,,,,,,,,,,,,images/exp1a_trial_112_colour0_distractors0_r.png,r,2,030,001,2021-04-24_15h49.27.553,searchDisc4,2020.2.10,Win32,60,,,space,0.359515,2,1,0.517865,,0,16,16,112,1,1a,112,0,0,
,,,,,,,,,,,,,,,,,,,,,,,,,,images/exp1b_trial_58_colour1_distractors9_l.png,l,1,030,001,2021-04-24_15h49.27.553,searchDisc4,2020.2.10,Win32,60,,,space,0.41057,1,1,0.76219,,0,17,17,172,1,1b,58,1,9,
,,,,,,,,,,,,,,,,,,,,,,,,,,images/exp1b_trial_32_colour3_distractors9_l.png,l,1,030,001,2021-04-24_15h49.27.553,searchDisc4,2020.2.10,Win32,60,,,space,0.290205,1,1,0.830135,,0,18,18,146,1,1b,32,3,9,
,,,,,,,,,,,,,,,,,,,,,,,,,,images/exp1a_trial_108_colour3_distractors9_l.png,l,1,030,001,2021-04-24_15h49.27.553,searchDisc4,2020.2.10,Win32,60,,,space,0.30708,1,1,0.52225,,0,19,19,108,1,1a,108,3,9,
,,,,,,,,,,,,,,,,,,,,,,,,,,images/exp2c_trial_49_colour2_distractors43_r.png,r,2,030,001,2021-04-24_15h49.27.553,searchDisc4,2020.2.10,Win32,60,,,space,0.408925,2,1,0.596845,,0,20,20,505,1,2c,49,2,43,
,,,,,,,,,,,,,,,,,,,,,,,,,,images/exp2c_trial_111_colour3_distractors43_l.png,l,1,030,001,2021-04-24_15h49.27.553,searchDisc4,2020.2.10,Win32,60,,,space,0.42275,1,1,0.616595,,0,21,21,567,1,2c,111,3,43,
,,,,,,,,,,,,,,,,,,,,,,,,,,images/exp2a_trial_23_colour1_distractors43_l.png,l,1,030,001,2021-04-24_15h49.27.553,searchDisc4,2020.2.10,Win32,60,,,space,0.315935,1,1,0.62747,,0,22,22,251,1,2a,23,1,43,
,,,,,,,,,,,,,,,,,,,,,,,,,,images/exp2b_trial_63_colour2_distractors4_l.png,l,1,030,001,2021-04-24_15h49.27.553,searchDisc4,2020.2.10,Win32,60,,,space,0.267335,1,1,0.53267,,0,23,23,405,1,2b,63,2,4,
,,,,,,,,,,,,,,,,,,,,,,,,,,images/exp2c_trial_98_colour1_distractors31_l.png,l,1,030,001,2021-04-24_15h49.27.553,searchDisc4,2020.2.10,Win32,60,,,space,0.249555,1,1,0.49146,,0,24,24,554,1,2c,98,1,31,
,,,,,,,,,,,,,,,,,,,,,,,,,,images/exp2b_trial_11_colour2_distractors43_r.png,r,2,030,001,2021-04-24_15h49.27.553,searchDisc4,2020.2.10,Win32,60,,,space,0.290465,2,1,0.539015,,0,25,25,353,1,2b,11,2,43,
,,,,,,,,,,,,,,,,,,,,,,,,,,images/exp2b_trial_73_colour3_distractors43_l.png,l,1,030,001,2021-04-24_15h49.27.553,searchDisc4,2020.2.10,Win32,60,,,space,0.317255,1,1,0.678675,,0,26,26,415,1,2b,73,3,43,
,,,,,,,,,,,,,,,,,,,,,,,,,,images/exp2a_trial_111_colour3_distractors43_l.png,l,1,030,001,2021-04-24_15h49.27.553,searchDisc4,2020.2.10,Win32,60,,,space,0.26675,1,1,0.53337,,0,27,27,339,1,2a,111,3,43,
,,,,,,,,,,,,,,,,,,,,,,,,,,images/exp2c_trial_7_colour2_distractors4_r.png,r,2,030,001,2021-04-24_15h49.27.553,searchDisc4,2020.2.10,Win32,60,,,space,0.29151,2,1,0.57239,,0,28,28,463,1,2c,7,2,4,
,,,,,,,,,,,,,,,,,,,,,,,,,,images/exp2b_trial_71_colour3_distractors19_l.png,l,1,030,001,2021-04-24_15h49.27.553,searchDisc4,2020.2.10,Win32,60,,,space,0.30338,1,1,0.75075,,0,29,29,413,1,2b,71,3,19,
,,,,,,,,,,,,,,,,,,,,,,,,,,images/exp2b_trial_42_colour1_distractors31_r.png,r,2,030,001,2021-04-24_15h49.27.553,searchDisc4,2020.2.10,Win32,60,,,space,0.2431,2,1,0.627685,,0,30,30,384,1,2b,42,1,31,
,,,,,,,,,,,,,,,,,,,,,,,,,,images/exp1b_trial_5_colour1_distractors43_r.png,r,2,030,001,2021-04-24_15h49.27.553,searchDisc4,2020.2.10,Win32,60,,,space,0.30267,2,1,0.895555,,0,31,31,119,1,1b,5,1,43,
,,,,,,,,,,,,,,,,,,,,,,,,,,images/exp2c_trial_73_colour3_distractors43_l.png,l,1,030,001,2021-04-24_15h49.27.553,searchDisc4,2020.2.10,Win32,60,,,space,0.21671,1,1,0.594755,,0,32,32,529,1,2c,73,3,43,
,,,,,,,,,,,,,,,,,,,,,,,,,,images/exp2a_trial_44_colour2_distractors1_r.png,r,2,030,001,2021-04-24_15h49.27.553,searchDisc4,2020.2.10,Win32,60,,,space,0.273915,2,1,0.51558,,0,33,33,272,1,2a,44,2,1,
,,,,,,,,,,,,,,,,,,,,,,,,,,images/exp2b_trial_101_colour2_distractors4_l.png,l,1,030,001,2021-04-24_15h49.27.553,searchDisc4,2020.2.10,Win32,60,,,space,0.22457,1,1,0.613395,,0,34,34,443,1,2b,101,2,4,
,,,,,,,,,,,,,,,,,,,,,,,,,,images/exp1a_trial_104_colour2_distractors31_l.png,l,1,030,001,2021-04-24_15h49.27.553,searchDisc4,2020.2.10,Win32,60,,,space,0.165865,1,1,0.57973,,0,35,35,104,1,1a,104,2,31,
,,,,,,,,,,,,,,,,,,,,,,,,,,images/exp2c_trial_103_colour2_distractors19_l.png,l,1,030,001,2021-04-24_15h49.27.553,searchDisc4,2020.2.10,Win32,60,,,space,0.141465,1,1,0.61955,,0,36,36,559,1,2c,103,2,19,
,,,,,,,,,,,,,,,,,,,,,,,,,,images/exp2b_trial_69_colour3_distractors4_l.png,l,1,030,001,2021-04-24_15h49.27.553,searchDisc4,2020.2.10,Win32,60,,,space,0.1734,1,1,0.64672,,0,37,37,411,1,2b,69,3,4,
,,,,,,,,,,,,,,,,,,,,,,,,,,images/exp2c_trial_84_colour2_distractors9_r.png,r,2,030,001,2021-04-24_15h49.27.553,searchDisc4,2020.2.10,Win32,60,,,space,0.15408,2,1,0.649185,,0,38,38,540,1,2c,84,2,9,
,,,,,,,,,,,,,,,,,,,,,,,,,,images/exp1b_trial_13_colour3_distractors4_r.png,r,2,030,001,2021-04-24_15h49.27.553,searchDisc4,2020.2.10,Win32,60,,,space,0.17668,2,1,0.749565,,0,39,39,127,1,1b,13,3,4,
,,,,,,,,,,,,,,,,,,,,,,,,,,images/exp2b_trial_99_colour1_distractors43_l.png,l,1,030,001,2021-04-24_15h49.27.553,searchDisc4,2020.2.10,Win32,60,,,space,0.09012,1,1,0.57864,,0,40,40,441,1,2b,99,1,43,
,,,,,,,,,,,,,,,,,,,,,,,,,,images/exp1a_trial_110_colour3_distractors31_l.png,l,1,030,001,2021-04-24_15h49.27.553,searchDisc4,2020.2.10,Win32,60,,,space,0.18963,1,1,0.616245,,0,41,41,110,1,1a,110,3,31,
,,,,,,,,,,,,,,,,,,,,,,,,,,images/exp1b_trial_43_colour1_distractors43_r.png,r,2,030,001,2021-04-24_15h49.27.553,searchDisc4,2020.2.10,Win32,60,,,space,0.115785,2,1,0.79987,,0,42,42,157,1,1b,43,1,43,
,,,,,,,,,,,,,,,,,,,,,,,,,,images/exp2c_trial_62_colour2_distractors1_l.png,l,1,030,001,2021-04-24_15h49.27.553,searchDisc4,2020.2.10,Win32,60,,,space,0.14916,1,1,0.529775,,0,43,43,518,1,2c,62,2,1,
,,,,,,,,,,,,,,,,,,,,,,,,,,images/exp2a_trial_81_colour1_distractors43_r.png,r,2,030,001,2021-04-24_15h49.27.553,searchDisc4,2020.2.10,Win32,60,,,space,0.119995,2,1,0.844845,,0,44,44,309,1,2a,81,1,43,
,,,,,,,,,,,,,,,,,,,,,,,,,,images/exp1b_trial_87_colour2_distractors43_r.png,r,2,030,001,2021-04-24_15h49.27.553,searchDisc4,2020.2.10,Win32,60,,,space,0.118925,2,1,1.044455,,0,45,45,201,1,1b,87,2,43,
,,,,,,,,,,,,,,,,,,,,,,,,,,images/exp1b_trial_105_colour2_distractors43_l.png,l,1,030,001,2021-04-24_15h49.27.553,searchDisc4,2020.2.10,Win32,60,,,space,0.11019,1,1,0.93205,,0,46,46,219,1,1b,105,2,43,
,,,,,,,,,,,,,,,,,,,,,,,,,,images/exp2c_trial_19_colour1_distractors4_l.png,l,1,030,001,2021-04-24_15h49.27.553,searchDisc4,2020.2.10,Win32,60,,,space,0.1227,1,1,0.57953,,0,47,47,475,1,2c,19,1,4,
,,,,,,,,,,,,,,,,,,,,,,,,,,images/exp2a_trial_28_colour2_distractors31_l.png,l,1,030,001,2021-04-24_15h49.27.553,searchDisc4,2020.2.10,Win32,60,,,space,0.09358,1,1,0.594555,,0,48,48,256,1,2a,28,2,31,
,,,,,,,,,,,,,,,,,,,,,,,,,,images/exp2c_trial_45_colour2_distractors4_r.png,r,2,030,001,2021-04-24_15h49.27.553,searchDisc4,2020.2.10,Win32,60,,,space,0.087515,2,1,0.58237,,0,49,49,501,1,2c,45,2,4,
,,,,,,,,,,,,,,,,,,,,,,,,,,images/exp1a_trial_94_colour1_distractors1_l.png,l,1,030,001,2021-04-24_15h49.27.553,searchDisc4,2020.2.10,Win32,60,,,space,0.133555,1,1,0.696595,,0,50,50,94,1,1a,94,1,1,
,,,,,,,,,,,,,,,,,,,,,,,,,,images/exp1a_trial_52_colour3_distractors9_r.png,r,2,030,001,2021-04-24_15h49.27.553,searchDisc4,2020.2.10,Win32,60,,,space,0.183435,2,1,0.678525,,0,51,51,52,1,1a,52,3,9,
,,,,,,,,,,,,,,,,,,,,,,,,,,images/exp2b_trial_84_colour2_distractors9_r.png,r,2,030,001,2021-04-24_15h49.27.553,searchDisc4,2020.2.10,Win32,60,,,space,0.04292,2,1,0.64453,,0,52,52,426,1,2b,84,2,9,
,,,,,,,,,,,,,,,,,,,,,,,,,,images/exp2b_trial_18_colour1_distractors1_l.png,l,1,030,001,2021-04-24_15h49.27.553,searchDisc4,2020.2.10,Win32,60,,,space,0.09364,1,1,0.4834,,0,53,53,360,1,2b,18,1,1,
,,,,,,,,,,,,,,,,,,,,,,,,,,images/exp1b_trial_103_colour2_distractors19_l.png,l,1,030,001,2021-04-24_15h49.27.553,searchDisc4,2020.2.10,Win32,60,,,space,0.12506,1,1,0.6179,,0,54,54,217,1,1b,103,2,19,
,,,,,,,,,,,,,,,,,,,,,,,,,,images/exp1b_trial_62_colour2_distractors1_l.png,l,1,030,001,2021-04-24_15h49.27.553,searchDisc4,2020.2.10,Win32,60,,,space,0.141185,1,1,0.554635,,0,55,55,176,1,1b,62,2,1,
,,,,,,,,,,,,,,,,,,,,,,,,,,images/exp2b_trial_81_colour1_distractors43_r.png,r,2,030,001,2021-04-24_15h49.27.553,searchDisc4,2020.2.10,Win32,60,,,space,0.10451,2,1,0.59663,,0,56,56,423,1,2b,81,1,43,
,,,,,,,,,,,,,,,,,,,,,,,,,,images/exp2c_trial_67_colour2_distractors43_l.png,l,1,030,001,2021-04-24_15h49.27.553,searchDisc4,2020.2.10,Win32,60,,,space,0.132765,1,1,0.96747,,0,57,57,523,1,2c,67,2,43,
,,,,,,,,,,,,,,,,,,,,,,,,,,images/exp1b_trial_101_colour2_distractors4_l.png,l,1,030,001,2021-04-24_15h49.27.553,searchDisc4,2020.2.10,Win32,60,,,space,0.1083,1,1,0.715065,,0,58,58,215,1,1b,101,2,4,
,,,,,,,,,,,,,,,,,,,,,,,,,,images/exp2a_trial_88_colour3_distractors1_r.png,r,2,030,001,2021-04-24_15h49.27.553,searchDisc4,2020.2.10,Win32,60,,,space,0.08954,2,1,0.600935,space,0,59,59,316,1,2a,88,3,1,0.10815
,,,,,,,,,,,,,,,,,,,,,,,,,,images/exp2b_trial_5_colour1_distractors43_r.png,r,2,030,001,2021-04-24_15h49.27.553,searchDisc4,2020.2.10,Win32,60,,,space,36.920045,2,1,0.59399,,0,60,60,347,1,2b,5,1,43,
,,,,,,,,,,,,,,,,,,,,,,,,,,images/exp2a_trial_112_colour0_distractors0_r.png,r,2,030,001,2021-04-24_15h49.27.553,searchDisc4,2020.2.10,Win32,60,,,space,0.417315,2,1,0.41857,,0,61,61,340,1,2a,112,0,0,
,,,,,,,,,,,,,,,,,,,,,,,,,,images/exp2a_trial_46_colour2_distractors9_r.png,r,2,030,001,2021-04-24_15h49.27.553,searchDisc4,2020.2.10,Win32,60,,,space,0.18991,2,1,0.51776,,0,62,62,274,1,2a,46,2,9,
,,,,,,,,,,,,,,,,,,,,,,,,,,images/exp1b_trial_26_colour2_distractors9_l.png,l,1,030,001,2021-04-24_15h49.27.553,searchDisc4,2020.2.10,Win32,60,,,space,0.20023,1,1,0.74644,,0,63,63,140,1,1b,26,2,9,
,,,,,,,,,,,,,,,,,,,,,,,,,,images/exp1b_trial_90_colour3_distractors9_r.png,r,2,030,001,2021-04-24_15h49.27.553,searchDisc4,2020.2.10,Win32,60,,,space,0.160055,2,1,0.78036,,0,64,64,204,1,1b,90,3,9,
,,,,,,,,,,,,,,,,,,,,,,,,,,images/exp2c_trial_75_colour0_distractors0_l.png,l,1,030,001,2021-04-24_15h49.27.553,searchDisc4,2020.2.10,Win32,60,,,space,0.15251,1,1,0.48502,,0,65,65,531,1,2c,75,0,0,
,,,,,,,,,,,,,,,,,,,,,,,,,,images/exp2b_trial_87_colour2_distractors43_r.png,r,2,030,001,2021-04-24_15h49.27.553,searchDisc4,2020.2.10,Win32,60,,,space,0.148725,2,1,0.612145,,0,66,66,429,1,2b,87,2,43,
,,,,,,,,,,,,,,,,,,,,,,,,,,images/exp2c_trial_95_colour1_distractors4_l.png,l,1,030,001,2021-04-24_15h49.27.553,searchDisc4,2020.2.10,Win32,60,,,space,0.12439,1,1,0.483135,,0,67,67,551,1,2c,95,1,4,
,,,,,,,,,,,,,,,,,,,,,,,,,,images/exp2c_trial_31_colour3_distractors4_l.png,l,1,030,001,2021-04-24_15h49.27.553,searchDisc4,2020.2.10,Win32,60,,,space,0.13235,1,1,0.53504,,0,68,68,487,1,2c,31,3,4,
,,,,,,,,,,,,,,,,,,,,,,,,,,images/exp1a_trial_90_colour3_distractors9_r.png,r,2,030,001,2021-04-24_15h49.27.553,searchDisc4,2020.2.10,Win32,60,,,space,0.109775,2,1,0.57147,,0,69,69,90,1,1a,90,3,9,
,,,,,,,,,,,,,,,,,,,,,,,,,,images/exp2c_trial_104_colour2_distractors31_l.png,l,1,030,001,2021-04-24_15h49.27.553,searchDisc4,2020.2.10,Win32,60,,,space,0.132575,1,1,0.461515,,0,70,70,560,1,2c,104,2,31,
,,,,,,,,,,,,,,,,,,,,,,,,,,images/exp1a_trial_82_colour2_distractors1_r.png,r,2,030,001,2021-04-24_15h49.27.553,searchDisc4,2020.2.10,Win32,60,,,space,0.126815,2,1,0.485825,,0,71,71,82,1,1a,82,2,1,
,,,,,,,,,,,,,,,,,,,,,,,,,,images/exp1a_trial_10_colour2_distractors31_r.png,r,2,030,001,2021-04-24_15h49.27.553,searchDisc4,2020.2.10,Win32,60,,,space,0.12575,1,0,0.520585,,0,72,72,10,1,1a,10,2,31,
,,,,,,,,,,,,,,,,,,,,,,,,,,images/exp2b_trial_91_colour3_distractors19_r.png,r,2,030,001,2021-04-24_15h49.27.553,searchDisc4,2020.2.10,Win32,60,,,space,1.001835,2,1,0.50928,,0,73,73,433,1,2b,91,3,19,
,,,,,,,,,,,,,,,,,,,,,,,,,,images/exp2c_trial_20_colour1_distractors9_l.png,l,1,030,001,2021-04-24_15h49.27.553,searchDisc4,2020.2.10,Win32,60,,,space,0.117375,1,1,0.462435,,0,74,74,476,1,2c,20,1,9,
,,,,,,,,,,,,,,,,,,,,,,,,,,images/exp2c_trial_28_colour2_distractors31_l.png,l,1,030,001,2021-04-24_15h49.27.553,searchDisc4,2020.2.10,Win32,60,,,space,0.10589,1,1,0.52849,,0,75,75,484,1,2c,28,2,31,
,,,,,,,,,,,,,,,,,,,,,,,,,,images/exp1b_trial_91_colour3_distractors19_r.png,r,2,030,001,2021-04-24_15h49.27.553,searchDisc4,2020.2.10,Win32,60,,,space,0.085945,2,1,4.1323,,0,76,76,205,1,1b,91,3,19,
,,,,,,,,,,,,,,,,,,,,,,,,,,images/exp1a_trial_97_colour1_distractors19_l.png,l,1,030,001,2021-04-24_15h49.27.553,searchDisc4,2020.2.10,Win32,60,,,space,0.060135,1,1,0.61842,,0,77,77,97,1,1a,97,1,19,
,,,,,,,,,,,,,,,,,,,,,,,,,,images/exp2c_trial_100_colour2_distractors1_l.png,l,1,030,001,2021-04-24_15h49.27.553,searchDisc4,2020.2.10,Win32,60,,,space,0.099415,1,1,0.495085,,0,78,78,556,1,2c,100,2,1,
,,,,,,,,,,,,,,,,,,,,,,,,,,images/exp2b_trial_43_colour1_distractors43_r.png,r,2,030,001,2021-04-24_15h49.27.553,searchDisc4,2020.2.10,Win32,60,,,space,0.069195,2,1,0.588495,,0,79,79,385,1,2b,43,1,43,
,,,,,,,,,,,,,,,,,,,,,,,,,,images/exp1a_trial_26_colour2_distractors9_l.png,l,1,030,001,2021-04-24_15h49.27.553,searchDisc4,2020.2.10,Win32,60,,,space,0.089345,1,1,0.55257,,0,80,80,26,1,1a,26,2,9,
,,,,,,,,,,,,,,,,,,,,,,,,,,images/exp1b_trial_31_colour3_distractors4_l.png,l,1,030,001,2021-04-24_15h49.27.553,searchDisc4,2020.2.10,Win32,60,,,space,0.22187,1,1,1.228435,,0,81,81,145,1,1b,31,3,4,
,,,,,,,,,,,,,,,,,,,,,,,,,,images/exp2b_trial_83_colour2_distractors4_r.png,r,2,030,001,2021-04-24_15h49.27.553,searchDisc4,2020.2.10,Win32,60,,,space,0.073955,2,1,0.619115,,0,82,82,425,1,2b,83,2,4,
,,,,,,,,,,,,,,,,,,,,,,,,,,images/exp1b_trial_52_colour3_distractors9_r.png,r,2,030,001,2021-04-24_15h49.27.553,searchDisc4,2020.2.10,Win32,60,,,space,0.108915,2,1,2.711695,,0,83,83,166,1,1b,52,3,9,
,,,,,,,,,,,,,,,,,,,,,,,,,,images/exp2c_trial_11_colour2_distractors43_r.png,r,2,030,001,2021-04-24_15h49.27.553,searchDisc4,2020.2.10,Win32,60,,,space,3.49015,2,1,0.494965,,0,84,84,467,1,2c,11,2,43,
,,,,,,,,,,,,,,,,,,,,,,,,,,images/exp1b_trial_56_colour1_distractors1_l.png,l,1,030,001,2021-04-24_15h49.27.553,searchDisc4,2020.2.10,Win32,60,,,space,0.14928,1,1,0.61142,,0,85,85,170,1,1b,56,1,1,
,,,,,,,,,,,,,,,,,,,,,,,,,,images/exp1b_trial_107_colour3_distractors4_l.png,l,1,030,001,2021-04-24_15h49.27.553,searchDisc4,2020.2.10,Win32,60,,,space,0.088385,1,1,1.318645,,0,86,86,221,1,1b,107,3,4,
,,,,,,,,,,,,,,,,,,,,,,,,,,images/exp2b_trial_70_colour3_distractors9_l.png,l,1,030,001,2021-04-24_15h49.27.553,searchDisc4,2020.2.10,Win32,60,,,space,0.07013,1,1,0.729155,,0,87,87,412,1,2b,70,3,9,
,,,,,,,,,,,,,,,,,,,,,,,,,,images/exp2b_trial_113_colour0_distractors0_l.png,l,1,030,001,2021-04-24_15h49.27.553,searchDisc4,2020.2.10,Win32,60,,,space,0.124285,1,1,0.466575,,0,88,88,455,1,2b,113,0,0,
,,,,,,,,,,,,,,,,,,,,,,,,,,images/exp1b_trial_25_colour2_distractors4_l.png,l,1,030,001,2021-04-24_15h49.27.553,searchDisc4,2020.2.10,Win32,60,,,space,0.18351,1,1,0.614815,,0,89,89,139,1,1b,25,2,4,
,,,,,,,,,,,,,,,,,,,,,,,,,,images/exp2a_trial_62_colour2_distractors1_l.png,l,1,030,001,2021-04-24_15h49.27.553,searchDisc4,2020.2.10,Win32,60,,,space,0.14845,1,1,0.53375,,0,90,90,290,1,2a,62,2,1,
,,,,,,,,,,,,,,,,,,,,,,,,,,images/exp2b_trial_47_colour2_distractors19_r.png,r,2,030,001,2021-04-24_15h49.27.553,searchDisc4,2020.2.10,Win32,60,,,space,0.12337,2,1,0.569895,,0,91,91,389,1,2b,47,2,19,
,,,,,,,,,,,,,,,,,,,,,,,,,,images/exp2a_trial_19_colour1_distractors4_l.png,l,1,030,001,2021-04-24_15h49.27.553,searchDisc4,2020.2.10,Win32,60,,,space,0.12584,1,1,0.50009,,0,92,92,247,1,2a,19,1,4,
,,,,,,,,,,,,,,,,,,,,,,,,,,images/exp2b_trial_4_colour1_distractors31_r.png,r,2,030,001,2021-04-24_15h49.27.553,searchDisc4,2020.2.10,Win32,60,,,space,0.09933,2,1,0.568905,,0,93,93,346,1,2b,4,1,31,
,,,,,,,,,,,,,,,,,,,,,,,,,,images/exp2a_trial_37_colour0_distractors0_l.png,l,1,030,001,2021-04-24_15h49.27.553,searchDisc4,2020.2.10,Win32,60,,,space,0.20683,1,1,0.49726,,0,94,94,265,1,2a,37,0,0,
,,,,,,,,,,,,,,,,,,,,,,,,,,images/exp2c_trial_109_colour3_distractors19_l.png,l,1,030,001,2021-04-24_15h49.27.553,searchDisc4,2020.2.10,Win32,60,,,space,0.18455,1,1,0.562905,,0,95,95,565,1,2c,109,3,19,
,,,,,,,,,,,,,,,,,,,,,,,,,,images/exp2b_trial_2_colour1_distractors9_r.png,r,2,030,001,2021-04-24_15h49.27.553,searchDisc4,2020.2.10,Win32,60,,,space,0.209225,2,1,0.699345,,0,96,96,344,1,2b,2,1,9,
,,,,,,,,,,,,,,,,,,,,,,,,,,images/exp2c_trial_46_colour2_distractors9_r.png,r,2,030,001,2021-04-24_15h49.27.553,searchDisc4,2020.2.10,Win32,60,,,space,0.15449,2,1,0.63812,,0,97,97,502,1,2c,46,2,9,
,,,,,,,,,,,,,,,,,,,,,,,,,,images/exp1a_trial_49_colour2_distractors43_r.png,r,2,030,001,2021-04-24_15h49.27.553,searchDisc4,2020.2.10,Win32,60,,,space,0.209555,2,1,0.585445,,0,98,98,49,1,1a,49,2,43,
,,,,,,,,,,,,,,,,,,,,,,,,,,images/exp2b_trial_3_colour1_distractors19_r.png,r,2,030,001,2021-04-24_15h49.27.553,searchDisc4,2020.2.10,Win32,60,,,space,0.2163,2,1,0.8272,,0,99,99,345,1,2b,3,1,19,
,,,,,,,,,,,,,,,,,,,,,,,,,,images/exp2b_trial_33_colour3_distractors19_l.png,l,1,030,001,2021-04-24_15h49.27.553,searchDisc4,2020.2.10,Win32,60,,,space,0.172135,1,1,0.60016,,0,100,100,375,1,2b,33,3,19,
,,,,,,,,,,,,,,,,,,,,,,,,,,images/exp1b_trial_2_colour1_distractors9_r.png,r,2,030,001,2021-04-24_15h49.27.553,searchDisc4,2020.2.10,Win32,60,,,space,0.14909,2,1,0.535765,,0,101,101,116,1,1b,2,1,9,
,,,,,,,,,,,,,,,,,,,,,,,,,,images/exp2c_trial_23_colour1_distractors43_l.png,l,1,030,001,2021-04-24_15h49.27.553,searchDisc4,2020.2.10,Win32,60,,,space,0.12593,1,1,0.57198,,0,102,102,479,1,2c,23,1,43,
,,,,,,,,,,,,,,,,,,,,,,,,,,images/exp2b_trial_68_colour3_distractors1_l.png,l,1,030,001,2021-04-24_15h49.27.553,searchDisc4,2020.2.10,Win32,60,,,space,0.1493,1,1,0.628715,,0,103,103,410,1,2b,68,3,1,
,,,,,,,,,,,,,,,,,,,,,,,,,,images/exp2c_trial_94_colour1_distractors1_l.png,l,1,030,001,2021-04-24_15h49.27.553,searchDisc4,2020.2.10,Win32,60,,,space,0.08273,1,1,0.56534,,0,104,104,550,1,2c,94,1,1,
,,,,,,,,,,,,,,,,,,,,,,,,,,images/exp2b_trial_78_colour1_distractors9_r.png,r,2,030,001,2021-04-24_15h49.27.553,searchDisc4,2020.2.10,Win32,60,,,space,0.19901,2,1,0.66942,,0,105,105,420,1,2b,78,1,9,
,,,,,,,,,,,,,,,,,,,,,,,,,,images/exp1b_trial_71_colour3_distractors19_l.png,l,1,030,001,2021-04-24_15h49.27.553,searchDisc4,2020.2.10,Win32,60,,,space,0.142955,1,1,3.36393,,0,106,106,185,1,1b,71,3,19,
,,,,,,,,,,,,,,,,,,,,,,,,,,images/exp2c_trial_3_colour1_distractors19_r.png,r,2,030,001,2021-04-24_15h49.27.553,searchDisc4,2020.2.10,Win32,60,,,space,0.13272,2,1,0.73474,,0,107,107,459,1,2c,3,1,19,
,,,,,,,,,,,,,,,,,,,,,,,,,,images/exp1b_trial_24_colour2_distractors1_l.png,l,1,030,001,2021-04-24_15h49.27.553,searchDisc4,2020.2.10,Win32,60,,,space,0.692375,1,1,0.899105,,0,108,108,138,1,1b,24,2,1,
,,,,,,,,,,,,,,,,,,,,,,,,,,images/exp1a_trial_68_colour3_distractors1_l.png,l,1,030,001,2021-04-24_15h49.27.553,searchDisc4,2020.2.10,Win32,60,,,space,0.450265,1,1,0.54779,,0,109,109,68,1,1a,68,3,1,
,,,,,,,,,,,,,,,,,,,,,,,,,,images/exp2b_trial_103_colour2_distractors19_l.png,l,1,030,001,2021-04-24_15h49.27.553,searchDisc4,2020.2.10,Win32,60,,,space,0.46578,1,1,0.56942,,0,110,110,445,1,2b,103,2,19,
,,,,,,,,,,,,,,,,,,,,,,,,,,images/exp2b_trial_10_colour2_distractors31_r.png,r,2,030,001,2021-04-24_15h49.27.553,searchDisc4,2020.2.10,Win32,60,,,space,0.91753,2,1,0.636355,,0,111,111,352,1,2b,10,2,31,
,,,,,,,,,,,,,,,,,,,,,,,,,,images/exp2a_trial_66_colour2_distractors31_l.png,l,1,030,001,2021-04-24_15h49.27.553,searchDisc4,2020.2.10,Win32,60,,,space,0.415765,1,1,0.526415,,0,112,112,294,1,2a,66,2,31,
,,,,,,,,,,,,,,,,,,,,,,,,,,images/exp2b_trial_86_colour2_distractors31_r.png,r,2,030,001,2021-04-24_15h49.27.553,searchDisc4,2020.2.10,Win32,60,,,space,0.35767,2,1,0.51546,,0,113,113,428,1,2b,86,2,31,
,,,,,,,,,,,,,,,,,,,,,,,,,,images/exp1a_trial_29_colour2_distractors43_l.png,l,1,030,001,2021-04-24_15h49.27.553,searchDisc4,2020.2.10,Win32,60,,,space,0.392275,1,1,0.555375,,0,114,114,29,1,1a,29,2,43,
,,,,,,,,,,,,,,,,,,,,,,,,,,images/exp2c_trial_9_colour2_distractors19_r.png,r,2,030,001,2021-04-24_15h49.27.553,searchDisc4,2020.2.10,Win32,60,,,space,0.29941,2,1,0.53724,,0,115,115,465,1,2c,9,2,19,
,,,,,,,,,,,,,,,,,,,,,,,,,,images/exp1b_trial_48_colour2_distractors31_r.png,r,2,030,001,2021-04-24_15h49.27.553,searchDisc4,2020.2.10,Win32,60,,,space,0.158335,2,1,1.37927,,0,116,116,162,1,1b,48,2,31,
,,,,,,,,,,,,,,,,,,,,,,,,,,images/exp2c_trial_16_colour3_distractors31_r.png,r,2,030,001,2021-04-24_15h49.27.553,searchDisc4,2020.2.10,Win32,60,,,space,0.087465,2,1,0.653795,,0,117,117,472,1,2c,16,3,31,
,,,,,,,,,,,,,,,,,,,,,,,,,,images/exp2a_trial_2_colour1_distractors9_r.png,r,2,030,001,2021-04-24_15h49.27.553,searchDisc4,2020.2.10,Win32,60,,,space,0.42404,2,1,0.60236,,0,118,118,230,1,2a,2,1,9,
,,,,,,,,,,,,,,,,,,,,,,,,,,images/exp1b_trial_59_colour1_distractors19_l.png,l,1,030,001,2021-04-24_15h49.27.553,searchDisc4,2020.2.10,Win32,60,,,space,0.16674,1,1,0.68893,space,0,119,119,173,1,1b,59,1,19,0.133175
,,,,,,,,,,,,,,,,,,,,,,,,,,images/exp1b_trial_93_colour3_distractors43_r.png,r,2,030,001,2021-04-24_15h49.27.553,searchDisc4,2020.2.10,Win32,60,,,space,11.955195,,0,,,0,120,120,207,1,1b,93,3,43,
,,,,,,,,,,,,,,,,,,,,,,,,,,images/exp2c_trial_55_colour3_distractors43_r.png,r,2,030,001,2021-04-24_15h49.27.553,searchDisc4,2020.2.10,Win32,60,,,space,8.76601,2,1,0.492655,,0,121,121,511,1,2c,55,3,43,
,,,,,,,,,,,,,,,,,,,,,,,,,,images/exp1b_trial_100_colour2_distractors1_l.png,l,1,030,001,2021-04-24_15h49.27.553,searchDisc4,2020.2.10,Win32,60,,,space,0.423895,1,1,0.736585,,0,122,122,214,1,1b,100,2,1,
,,,,,,,,,,,,,,,,,,,,,,,,,,images/exp2b_trial_31_colour3_distractors4_l.png,l,1,030,001,2021-04-24_15h49.27.553,searchDisc4,2020.2.10,Win32,60,,,space,0.37567,1,1,0.54916,,0,123,123,373,1,2b,31,3,4,
,,,,,,,,,,,,,,,,,,,,,,,,,,images/exp2a_trial_79_colour1_distractors19_r.png,r,2,030,001,2021-04-24_15h49.27.553,searchDisc4,2020.2.10,Win32,60,,,space,0.369315,2,1,0.557015,,0,124,124,307,1,2a,79,1,19,
,,,,,,,,,,,,,,,,,,,,,,,,,,images/exp1b_trial_8_colour2_distractors9_r.png,r,2,030,001,2021-04-24_15h49.27.553,searchDisc4,2020.2.10,Win32,60,,,space,0.382605,2,1,0.65382,,0,125,125,122,1,1b,8,2,9,
,,,,,,,,,,,,,,,,,,,,,,,,,,images/exp2b_trial_28_colour2_distractors31_l.png,l,1,030,001,2021-04-24_15h49.27.553,searchDisc4,2020.2.10,Win32,60,,,space,0.319415,1,1,0.5502,,0,126,126,370,1,2b,28,2,31,
,,,,,,,,,,,,,,,,,,,,,,,,,,images/exp1b_trial_1_colour1_distractors4_r.png,r,2,030,001,2021-04-24_15h49.27.553,searchDisc4,2020.2.10,Win32,60,,,space,0.41034,2,1,0.773675,,0,127,127,115,1,1b,1,1,4,
,,,,,,,,,,,,,,,,,,,,,,,,,,images/exp2b_trial_23_colour1_distractors43_l.png,l,1,030,001,2021-04-24_15h49.27.553,searchDisc4,2020.2.10,Win32,60,,,space,0.300195,1,1,0.53502,,0,128,128,365,1,2b,23,1,43,
,,,,,,,,,,,,,,,,,,,,,,,,,,images/exp1b_trial_36_colour0_distractors0_r.png,r,2,030,001,2021-04-24_15h49.27.553,searchDisc4,2020.2.10,Win32,60,,,space,0.31885,2,1,0.596375,,0,129,129,150,1,1b,36,0,0,
,,,,,,,,,,,,,,,,,,,,,,,,,,images/exp2a_trial_58_colour1_distractors9_l.png,l,1,030,001,2021-04-24_15h49.27.553,searchDisc4,2020.2.10,Win32,60,,,space,0.34391,1,1,0.485535,,0,130,130,286,1,2a,58,1,9,
,,,,,,,,,,,,,,,,,,,,,,,,,,images/exp2a_trial_5_colour1_distractors43_r.png,r,2,030,001,2021-04-24_15h49.27.553,searchDisc4,2020.2.10,Win32,60,,,space,0.333405,2,1,0.60954,,0,131,131,233,1,2a,5,1,43,
,,,,,,,,,,,,,,,,,,,,,,,,,,images/exp1a_trial_8_colour2_distractors9_r.png,r,2,030,001,2021-04-24_15h49.27.553,searchDisc4,2020.2.10,Win32,60,,,space,0.269305,2,1,0.549215,,0,132,132,8,1,1a,8,2,9,
,,,,,,,,,,,,,,,,,,,,,,,,,,images/exp2b_trial_98_colour1_distractors31_l.png,l,1,030,001,2021-04-24_15h49.27.553,searchDisc4,2020.2.10,Win32,60,,,space,0.29913,1,1,0.4877,,0,133,133,440,1,2b,98,1,31,
,,,,,,,,,,,,,,,,,,,,,,,,,,images/exp2a_trial_76_colour1_distractors1_r.png,r,2,030,001,2021-04-24_15h49.27.553,searchDisc4,2020.2.10,Win32,60,,,space,0.350025,2,1,0.44602,,0,134,134,304,1,2a,76,1,1,
,,,,,,,,,,,,,,,,,,,,,,,,,,images/exp1b_trial_15_colour3_distractors19_r.png,r,2,030,001,2021-04-24_15h49.27.553,searchDisc4,2020.2.10,Win32,60,,,space,0.351325,2,1,1.38695,,0,135,135,129,1,1b,15,3,19,
,,,,,,,,,,,,,,,,,,,,,,,,,,images/exp1a_trial_18_colour1_distractors1_l.png,l,1,030,001,2021-04-24_15h49.27.553,searchDisc4,2020.2.10,Win32,60,,,space,0.249115,1,1,0.457225,,0,136,136,18,1,1a,18,1,1,
,,,,,,,,,,,,,,,,,,,,,,,,,,images/exp1b_trial_97_colour1_distractors19_l.png,l,1,030,001,2021-04-24_15h49.27.553,searchDisc4,2020.2.10,Win32,60,,,space,0.338335,1,1,0.56139,,0,137,137,211,1,1b,97,1,19,
,,,,,,,,,,,,,,,,,,,,,,,,,,images/exp1b_trial_73_colour3_distractors43_l.png,l,1,030,001,2021-04-24_15h49.27.553,searchDisc4,2020.2.10,Win32,60,,,space,0.23252,1,1,4.50032,,0,138,138,187,1,1b,73,3,43,
,,,,,,,,,,,,,,,,,,,,,,,,,,images/exp1a_trial_6_colour2_distractors1_r.png,r,2,030,001,2021-04-24_15h49.27.553,searchDisc4,2020.2.10,Win32,60,,,space,0.2528,2,1,0.61144,,0,139,139,6,1,1a,6,2,1,
,,,,,,,,,,,,,,,,,,,,,,,,,,images/exp1b_trial_85_colour2_distractors19_r.png,r,2,030,001,2021-04-24_15h49.27.553,searchDisc4,2020.2.10,Win32,60,,,space,0.42429,2,1,0.79611,,0,140,140,199,1,1b,85,2,19,
,,,,,,,,,,,,,,,,,,,,,,,,,,images/exp1b_trial_50_colour3_distractors1_r.png,r,2,030,001,2021-04-24_15h49.27.553,searchDisc4,2020.2.10,Win32,60,,,space,0.249355,2,1,0.56555,,0,141,141,164,1,1b,50,3,1,
,,,,,,,,,,,,,,,,,,,,,,,,,,images/exp2c_trial_108_colour3_distractors9_l.png,l,1,030,001,2021-04-24_15h49.27.553,searchDisc4,2020.2.10,Win32,60,,,space,0.474865,1,1,0.58673,,0,142,142,564,1,2c,108,3,9,
,,,,,,,,,,,,,,,,,,,,,,,,,,images/exp2b_trial_66_colour2_distractors31_l.png,l,1,030,001,2021-04-24_15h49.27.553,searchDisc4,2020.2.10,Win32,60,,,space,0.486725,1,1,0.535265,,0,143,143,408,1,2b,66,2,31,
,,,,,,,,,,,,,,,,,,,,,,,,,,images/exp2a_trial_51_colour3_distractors4_r.png,r,2,030,001,2021-04-24_15h49.27.553,searchDisc4,2020.2.10,Win32,60,,,space,0.267845,2,1,0.49989,,0,144,144,279,1,2a,51,3,4,
,,,,,,,,,,,,,,,,,,,,,,,,,,images/exp2a_trial_18_colour1_distractors1_l.png,l,1,030,001,2021-04-24_15h49.27.553,searchDisc4,2020.2.10,Win32,60,,,space,0.419195,1,1,0.5024,,0,145,145,246,1,2a,18,1,1,
,,,,,,,,,,,,,,,,,,,,,,,,,,images/exp2c_trial_80_colour1_distractors31_r.png,r,2,030,001,2021-04-24_15h49.27.553,searchDisc4,2020.2.10,Win32,60,,,space,0.460735,2,1,0.533755,,0,146,146,536,1,2c,80,1,31,
,,,,,,,,,,,,,,,,,,,,,,,,,,images/exp2c_trial_18_colour1_distractors1_l.png,l,1,030,001,2021-04-24_15h49.27.553,searchDisc4,2020.2.10,Win32,60,,,space,0.37153,1,1,0.44689,,0,147,147,474,1,2c,18,1,1,
,,,,,,,,,,,,,,,,,,,,,,,,,,images/exp2b_trial_46_colour2_distractors9_r.png,r,2,030,001,2021-04-24_15h49.27.553,searchDisc4,2020.2.10,Win32,60,,,space,0.353375,2,1,0.41295,,0,148,148,388,1,2b,46,2,9,
,,,,,,,,,,,,,,,,,,,,,,,,,,images/exp1a_trial_43_colour1_distractors43_r.png,r,2,030,001,2021-04-24_15h49.27.553,searchDisc4,2020.2.10,Win32,60,,,space,0.35248,2,1,0.508805,,0,149,149,43,1,1a,43,1,43,
,,,,,,,,,,,,,,,,,,,,,,,,,,images/exp2b_trial_61_colour1_distractors43_l.png,l,1,030,001,2021-04-24_15h49.27.553,searchDisc4,2020.2.10,Win32,60,,,space,0.31661,1,1,0.67112,,0,150,150,403,1,2b,61,1,43,
,,,,,,,,,,,,,,,,,,,,,,,,,,images/exp1a_trial_63_colour2_distractors4_l.png,l,1,030,001,2021-04-24_15h49.27.553,searchDisc4,2020.2.10,Win32,60,,,space,0.306295,2,0,0.488925,,0,151,151,63,1,1a,63,2,4,
,,,,,,,,,,,,,,,,,,,,,,,,,,images/exp1a_trial_91_colour3_distractors19_r.png,r,2,030,001,2021-04-24_15h49.27.553,searchDisc4,2020.2.10,Win32,60,,,space,0.53688,2,1,0.561915,,0,152,152,91,1,1a,91,3,19,
,,,,,,,,,,,,,,,,,,,,,,,,,,images/exp1a_trial_37_colour0_distractors0_l.png,l,1,030,001,2021-04-24_15h49.27.553,searchDisc4,2020.2.10,Win32,60,,,space,0.299215,1,1,0.53865,,0,153,153,37,1,1a,37,0,0,
,,,,,,,,,,,,,,,,,,,,,,,,,,images/exp2a_trial_109_colour3_distractors19_l.png,l,1,030,001,2021-04-24_15h49.27.553,searchDisc4,2020.2.10,Win32,60,,,space,0.327325,1,1,0.547795,,0,154,154,337,1,2a,109,3,19,
,,,,,,,,,,,,,,,,,,,,,,,,,,images/exp2a_trial_59_colour1_distractors19_l.png,l,1,030,001,2021-04-24_15h49.27.553,searchDisc4,2020.2.10,Win32,60,,,space,0.25087,1,1,0.51172,,0,155,155,287,1,2a,59,1,19,
,,,,,,,,,,,,,,,,,,,,,,,,,,images/exp1b_trial_75_colour0_distractors0_l.png,l,1,030,001,2021-04-24_15h49.27.553,searchDisc4,2020.2.10,Win32,60,,,space,0.28256,1,1,0.89049,,0,156,156,189,1,1b,75,0,0,
,,,,,,,,,,,,,,,,,,,,,,,,,,images/exp2b_trial_60_colour1_distractors31_l.png,l,1,030,001,2021-04-24_15h49.27.553,searchDisc4,2020.2.10,Win32,60,,,space,0.265815,1,1,0.473025,,0,157,157,402,1,2b,60,1,31,
,,,,,,,,,,,,,,,,,,,,,,,,,,images/exp2a_trial_52_colour3_distractors9_r.png,r,2,030,001,2021-04-24_15h49.27.553,searchDisc4,2020.2.10,Win32,60,,,space,0.29013,2,1,0.527675,,0,158,158,280,1,2a,52,3,9,
,,,,,,,,,,,,,,,,,,,,,,,,,,images/exp1a_trial_11_colour2_distractors43_r.png,r,2,030,001,2021-04-24_15h49.27.553,searchDisc4,2020.2.10,Win32,60,,,space,0.319485,2,1,0.572565,,0,159,159,11,1,1a,11,2,43,
,,,,,,,,,,,,,,,,,,,,,,,,,,images/exp1b_trial_27_colour2_distractors19_l.png,l,1,030,001,2021-04-24_15h49.27.553,searchDisc4,2020.2.10,Win32,60,,,space,0.266025,1,1,0.77022,,0,160,160,141,1,1b,27,2,19,
,,,,,,,,,,,,,,,,,,,,,,,,,,images/exp2b_trial_108_colour3_distractors9_l.png,l,1,030,001,2021-04-24_15h49.27.553,searchDisc4,2020.2.10,Win32,60,,,space,0.23873,1,1,0.57981,,0,161,161,450,1,2b,108,3,9,
,,,,,,,,,,,,,,,,,,,,,,,,,,images/exp2a_trial_100_colour2_distractors1_l.png,l,1,030,001,2021-04-24_15h49.27.553,searchDisc4,2020.2.10,Win32,60,,,space,0.284165,1,1,0.51633,,0,162,162,328,1,2a,100,2,1,
,,,,,,,,,,,,,,,,,,,,,,,,,,images/exp2a_trial_6_colour2_distractors1_r.png,r,2,030,001,2021-04-24_15h49.27.553,searchDisc4,2020.2.10,Win32,60,,,space,0.29053,2,1,0.490475,,0,163,163,234,1,2a,6,2,1,
,,,,,,,,,,,,,,,,,,,,,,,,,,images/exp2a_trial_71_colour3_distractors19_l.png,l,1,030,001,2021-04-24_15h49.27.553,searchDisc4,2020.2.10,Win32,60,,,space,0.30563,1,1,0.453925,,0,164,164,299,1,2a,71,3,19,
,,,,,,,,,,,,,,,,,,,,,,,,,,images/exp2a_trial_34_colour3_distractors31_l.png,l,1,030,001,2021-04-24_15h49.27.553,searchDisc4,2020.2.10,Win32,60,,,space,0.33255,1,1,0.50828,,0,165,165,262,1,2a,34,3,31,
,,,,,,,,,,,,,,,,,,,,,,,,,,images/exp2c_trial_74_colour0_distractors0_r.png,r,2,030,001,2021-04-24_15h49.27.553,searchDisc4,2020.2.10,Win32,60,,,space,0.24935,2,1,0.496285,,0,166,166,530,1,2c,74,0,0,
,,,,,,,,,,,,,,,,,,,,,,,,,,images/exp1a_trial_34_colour3_distractors31_l.png,l,1,030,001,2021-04-24_15h49.27.553,searchDisc4,2020.2.10,Win32,60,,,space,0.2215,1,1,0.461145,,0,167,167,34,1,1a,34,3,31,
,,,,,,,,,,,,,,,,,,,,,,,,,,images/exp1b_trial_112_colour0_distractors0_r.png,r,2,030,001,2021-04-24_15h49.27.553,searchDisc4,2020.2.10,Win32,60,,,space,0.299095,2,1,0.486745,,0,168,168,226,1,1b,112,0,0,
,,,,,,,,,,,,,,,,,,,,,,,,,,images/exp2b_trial_22_colour1_distractors31_l.png,l,1,030,001,2021-04-24_15h49.27.553,searchDisc4,2020.2.10,Win32,60,,,space,0.255165,1,1,0.429135,,0,169,169,364,1,2b,22,1,31,
,,,,,,,,,,,,,,,,,,,,,,,,,,images/exp1a_trial_78_colour1_distractors9_r.png,r,2,030,001,2021-04-24_15h49.27.553,searchDisc4,2020.2.10,Win32,60,,,space,0.30551,2,1,0.544875,,0,170,170,78,1,1a,78,1,9,
,,,,,,,,,,,,,,,,,,,,,,,,,,images/exp1b_trial_89_colour3_distractors4_r.png,r,2,030,001,2021-04-24_15h49.27.553,searchDisc4,2020.2.10,Win32,60,,,space,0.25349,2,1,1.406375,,0,171,171,203,1,1b,89,3,4,
,,,,,,,,,,,,,,,,,,,,,,,,,,images/exp2a_trial_12_colour3_distractors1_r.png,r,2,030,001,2021-04-24_15h49.27.553,searchDisc4,2020.2.10,Win32,60,,,space,0.385705,2,1,0.60583,,0,172,172,240,1,2a,12,3,1,
,,,,,,,,,,,,,,,,,,,,,,,,,,images/exp1a_trial_16_colour3_distractors31_r.png,r,2,030,001,2021-04-24_15h49.27.553,searchDisc4,2020.2.10,Win32,60,,,space,0.29971,2,1,0.77804,,0,173,173,16,1,1a,16,3,31,
,,,,,,,,,,,,,,,,,,,,,,,,,,images/exp1b_trial_38_colour1_distractors1_r.png,r,2,030,001,2021-04-24_15h49.27.553,searchDisc4,2020.2.10,Win32,60,,,space,0.165865,2,1,2.1517,,0,174,174,152,1,1b,38,1,1,
,,,,,,,,,,,,,,,,,,,,,,,,,,images/exp1a_trial_92_colour3_distractors31_r.png,r,2,030,001,2021-04-24_15h49.27.553,searchDisc4,2020.2.10,Win32,60,,,space,0.18848,2,1,0.892155,,0,175,175,92,1,1a,92,3,31,
,,,,,,,,,,,,,,,,,,,,,,,,,,images/exp2a_trial_54_colour3_distractors31_r.png,r,2,030,001,2021-04-24_15h49.27.553,searchDisc4,2020.2.10,Win32,60,,,space,0.110925,2,1,0.58708,,0,176,176,282,1,2a,54,3,31,
,,,,,,,,,,,,,,,,,,,,,,,,,,images/exp2a_trial_97_colour1_distractors19_l.png,l,1,030,001,2021-04-24_15h49.27.553,searchDisc4,2020.2.10,Win32,60,,,space,0.249965,1,1,0.585305,,0,177,177,325,1,2a,97,1,19,
,,,,,,,,,,,,,,,,,,,,,,,,,,images/exp2b_trial_35_colour3_distractors43_l.png,l,1,030,001,2021-04-24_15h49.27.553,searchDisc4,2020.2.10,Win32,60,,,space,0.286385,1,1,0.501455,,0,178,178,377,1,2b,35,3,43,
,,,,,,,,,,,,,,,,,,,,,,,,,,images/exp1a_trial_86_colour2_distractors31_r.png,r,2,030,001,2021-04-24_15h49.27.553,searchDisc4,2020.2.10,Win32,60,,,space,0.249425,2,1,0.468995,space,0,179,179,86,1,1a,86,2,31,0.334485
,,,,,,,,,,,,,,,,,,,,,,,,,,images/exp2c_trial_51_colour3_distractors4_r.png,r,2,030,001,2021-04-24_15h49.27.553,searchDisc4,2020.2.10,Win32,60,,,space,8.35273,2,1,0.450455,,0,180,180,507,1,2c,51,3,4,
,,,,,,,,,,,,,,,,,,,,,,,,,,images/exp2c_trial_69_colour3_distractors4_l.png,l,1,030,001,2021-04-24_15h49.27.553,searchDisc4,2020.2.10,Win32,60,,,space,0.27045,1,1,0.54454,,0,181,181,525,1,2c,69,3,4,
,,,,,,,,,,,,,,,,,,,,,,,,,,images/exp1a_trial_2_colour1_distractors9_r.png,r,2,030,001,2021-04-24_15h49.27.553,searchDisc4,2020.2.10,Win32,60,,,space,0.40386,2,1,0.388185,,0,182,182,2,1,1a,2,1,9,
,,,,,,,,,,,,,,,,,,,,,,,,,,images/exp1a_trial_24_colour2_distractors1_l.png,l,1,030,001,2021-04-24_15h49.27.553,searchDisc4,2020.2.10,Win32,60,,,space,0.370845,2,0,0.55024,,0,183,183,24,1,1a,24,2,1,
,,,,,,,,,,,,,,,,,,,,,,,,,,images/exp2c_trial_53_colour3_distractors19_r.png,r,2,030,001,2021-04-24_15h49.27.553,searchDisc4,2020.2.10,Win32,60,,,space,0.482815,2,1,0.55342,,0,184,184,509,1,2c,53,3,19,
,,,,,,,,,,,,,,,,,,,,,,,,,,images/exp1b_trial_11_colour2_distractors43_r.png,r,2,030,001,2021-04-24_15h49.27.553,searchDisc4,2020.2.10,Win32,60,,,space,0.265705,2,1,0.55222,,0,185,185,125,1,1b,11,2,43,
,,,,,,,,,,,,,,,,,,,,,,,,,,images/exp2c_trial_85_colour2_distractors19_r.png,r,2,030,001,2021-04-24_15h49.27.553,searchDisc4,2020.2.10,Win32,60,,,space,0.24919,2,1,1.67988,,0,186,186,541,1,2c,85,2,19,
,,,,,,,,,,,,,,,,,,,,,,,,,,images/exp2c_trial_17_colour3_distractors43_r.png,r,2,030,001,2021-04-24_15h49.27.553,searchDisc4,2020.2.10,Win32,60,,,space,0.182865,2,1,0.6484,,0,187,187,473,1,2c,17,3,43,
,,,,,,,,,,,,,,,,,,,,,,,,,,images/exp1b_trial_109_colour3_distractors19_l.png,l,1,030,001,2021-04-24_15h49.27.553,searchDisc4,2020.2.10,Win32,60,,,space,0.2271,1,1,2.18834,,0,188,188,223,1,1b,109,3,19,
,,,,,,,,,,,,,,,,,,,,,,,,,,images/exp1b_trial_12_colour3_distractors1_r.png,r,2,030,001,2021-04-24_15h49.27.553,searchDisc4,2020.2.10,Win32,60,,,space,0.209035,2,1,0.66328,,0,189,189,126,1,1b,12,3,1,
,,,,,,,,,,,,,,,,,,,,,,,,,,images/exp1a_trial_93_colour3_distractors43_r.png,r,2,030,001,2021-04-24_15h49.27.553,searchDisc4,2020.2.10,Win32,60,,,space,0.140665,2,1,0.642255,,0,190,190,93,1,1a,93,3,43,
,,,,,,,,,,,,,,,,,,,,,,,,,,images/exp1a_trial_100_colour2_distractors1_l.png,l,1,030,001,2021-04-24_15h49.27.553,searchDisc4,2020.2.10,Win32,60,,,space,0.171145,1,1,0.58079,,0,191,191,100,1,1a,100,2,1,
,,,,,,,,,,,,,,,,,,,,,,,,,,images/exp1a_trial_62_colour2_distractors1_l.png,l,1,030,001,2021-04-24_15h49.27.553,searchDisc4,2020.2.10,Win32,60,,,space,0.187165,1,1,0.513955,,0,192,192,62,1,1a,62,2,1,
,,,,,,,,,,,,,,,,,,,,,,,,,,images/exp2c_trial_60_colour1_distractors31_l.png,l,1,030,001,2021-04-24_15h49.27.553,searchDisc4,2020.2.10,Win32,60,,,space,0.149225,1,1,0.54513,,0,193,193,516,1,2c,60,1,31,
,,,,,,,,,,,,,,,,,,,,,,,,,,images/exp1a_trial_36_colour0_distractors0_r.png,r,2,030,001,2021-04-24_15h49.27.553,searchDisc4,2020.2.10,Win32,60,,,space,0.18317,2,1,0.95584,,0,194,194,36,1,1a,36,0,0,
,,,,,,,,,,,,,,,,,,,,,,,,,,images/exp2b_trial_9_colour2_distractors19_r.png,r,2,030,001,2021-04-24_15h49.27.553,searchDisc4,2020.2.10,Win32,60,,,space,0.175885,2,1,0.56516,,0,195,195,351,1,2b,9,2,19,
,,,,,,,,,,,,,,,,,,,,,,,,,,images/exp2c_trial_90_colour3_distractors9_r.png,r,2,030,001,2021-04-24_15h49.27.553,searchDisc4,2020.2.10,Win32,60,,,space,0.36029,2,1,0.58123,,0,196,196,546,1,2c,90,3,9,
,,,,,,,,,,,,,,,,,,,,,,,,,,images/exp2b_trial_111_colour3_distractors43_l.png,l,1,030,001,2021-04-24_15h49.27.553,searchDisc4,2020.2.10,Win32,60,,,space,0.273085,1,1,0.52696,,0,197,197,453,1,2b,111,3,43,
,,,,,,,,,,,,,,,,,,,,,,,,,,images/exp1a_trial_17_colour3_distractors43_r.png,r,2,030,001,2021-04-24_15h49.27.553,searchDisc4,2020.2.10,Win32,60,,,space,0.249065,2,1,0.54927,,0,198,198,17,1,1a,17,3,43,
,,,,,,,,,,,,,,,,,,,,,,,,,,images/exp1b_trial_63_colour2_distractors4_l.png,l,1,030,001,2021-04-24_15h49.27.553,searchDisc4,2020.2.10,Win32,60,,,space,0.25016,1,1,0.565875,,0,199,199,177,1,1b,63,2,4,
,,,,,,,,,,,,,,,,,,,,,,,,,,images/exp2a_trial_45_colour2_distractors4_r.png,r,2,030,001,2021-04-24_15h49.27.553,searchDisc4,2020.2.10,Win32,60,,,space,0.210635,2,1,0.44504,,0,200,200,273,1,2a,45,2,4,
,,,,,,,,,,,,,,,,,,,,,,,,,,images/exp1a_trial_1_colour1_distractors4_r.png,r,2,030,001,2021-04-24_15h49.27.553,searchDisc4,2020.2.10,Win32,60,,,space,0.2324,2,1,0.73636,,0,201,201,1,1,1a,1,1,4,
,,,,,,,,,,,,,,,,,,,,,,,,,,images/exp1b_trial_76_colour1_distractors1_r.png,r,2,030,001,2021-04-24_15h49.27.553,searchDisc4,2020.2.10,Win32,60,,,space,0.205995,2,1,1.257255,,0,202,202,190,1,1b,76,1,1,
,,,,,,,,,,,,,,,,,,,,,,,,,,images/exp1a_trial_70_colour3_distractors9_l.png,l,1,030,001,2021-04-24_15h49.27.553,searchDisc4,2020.2.10,Win32,60,,,space,0.148995,1,1,0.8786,,0,203,203,70,1,1a,70,3,9,
,,,,,,,,,,,,,,,,,,,,,,,,,,images/exp1a_trial_35_colour3_distractors43_l.png,l,1,030,001,2021-04-24_15h49.27.553,searchDisc4,2020.2.10,Win32,60,,,space,0.19063,1,1,0.696085,,0,204,204,35,1,1a,35,3,43,
,,,,,,,,,,,,,,,,,,,,,,,,,,images/exp1b_trial_30_colour3_distractors1_l.png,l,1,030,001,2021-04-24_15h49.27.553,searchDisc4,2020.2.10,Win32,60,,,space,0.13737,1,1,0.934875,,0,205,205,144,1,1b,30,3,1,
,,,,,,,,,,,,,,,,,,,,,,,,,,images/exp1a_trial_107_colour3_distractors4_l.png,l,1,030,001,2021-04-24_15h49.27.553,searchDisc4,2020.2.10,Win32,60,,,space,1.29264,1,1,0.46676,,0,206,206,107,1,1a,107,3,4,
,,,,,,,,,,,,,,,,,,,,,,,,,,images/exp1a_trial_75_colour0_distractors0_l.png,l,1,030,001,2021-04-24_15h49.27.553,searchDisc4,2020.2.10,Win32,60,,,space,0.45237,1,1,0.46241,,0,207,207,75,1,1a,75,0,0,
,,,,,,,,,,,,,,,,,,,,,,,,,,images/exp1a_trial_113_colour0_distractors0_l.png,l,1,030,001,2021-04-24_15h49.27.553,searchDisc4,2020.2.10,Win32,60,,,space,0.334215,1,1,0.540135,,0,208,208,113,1,1a,113,0,0,
,,,,,,,,,,,,,,,,,,,,,,,,,,images/exp2b_trial_77_colour1_distractors4_r.png,r,2,030,001,2021-04-24_15h49.27.553,searchDisc4,2020.2.10,Win32,60,,,space,0.27377,2,1,0.505575,,0,209,209,419,1,2b,77,1,4,
,,,,,,,,,,,,,,,,,,,,,,,,,,images/exp1a_trial_83_colour2_distractors4_r.png,r,2,030,001,2021-04-24_15h49.27.553,searchDisc4,2020.2.10,Win32,60,,,space,0.37698,2,1,0.579705,,0,210,210,83,1,1a,83,2,4,
,,,,,,,,,,,,,,,,,,,,,,,,,,images/exp1a_trial_74_colour0_distractors0_r.png,r,2,030,001,2021-04-24_15h49.27.553,searchDisc4,2020.2.10,Win32,60,,,space,0.3206,2,1,0.471715,,0,211,211,74,1,1a,74,0,0,
,,,,,,,,,,,,,,,,,,,,,,,,,,images/exp1b_trial_96_colour1_distractors9_l.png,l,1,030,001,2021-04-24_15h49.27.553,searchDisc4,2020.2.10,Win32,60,,,space,0.27147,1,1,0.7958,,0,212,212,210,1,1b,96,1,9,
,,,,,,,,,,,,,,,,,,,,,,,,,,images/exp2c_trial_14_colour3_distractors9_r.png,r,2,030,001,2021-04-24_15h49.27.553,searchDisc4,2020.2.10,Win32,60,,,space,0.266745,2,1,0.53621,,0,213,213,470,1,2c,14,3,9,
,,,,,,,,,,,,,,,,,,,,,,,,,,images/exp1a_trial_111_colour3_distractors43_l.png,l,1,030,001,2021-04-24_15h49.27.553,searchDisc4,2020.2.10,Win32,60,,,space,0.3205,1,1,0.51745,,0,214,214,111,1,1a,111,3,43,
,,,,,,,,,,,,,,,,,,,,,,,,,,images/exp2c_trial_83_colour2_distractors4_r.png,r,2,030,001,2021-04-24_15h49.27.553,searchDisc4,2020.2.10,Win32,60,,,space,0.29394,2,1,0.462805,,0,215,215,539,1,2c,83,2,4,
,,,,,,,,,,,,,,,,,,,,,,,,,,images/exp2b_trial_15_colour3_distractors19_r.png,r,2,030,001,2021-04-24_15h49.27.553,searchDisc4,2020.2.10,Win32,60,,,space,0.252985,2,1,0.74812,,0,216,216,357,1,2b,15,3,19,
,,,,,,,,,,,,,,,,,,,,,,,,,,images/exp2a_trial_36_colour0_distractors0_r.png,r,2,030,001,2021-04-24_15h49.27.553,searchDisc4,2020.2.10,Win32,60,,,space,0.443385,2,1,0.629615,,0,217,217,264,1,2a,36,0,0,
,,,,,,,,,,,,,,,,,,,,,,,,,,images/exp1a_trial_56_colour1_distractors1_l.png,l,1,030,001,2021-04-24_15h49.27.553,searchDisc4,2020.2.10,Win32,60,,,space,0.63211,1,1,0.67259,,0,218,218,56,1,1a,56,1,1,
,,,,,,,,,,,,,,,,,,,,,,,,,,images/exp1a_trial_27_colour2_distractors19_l.png,l,1,030,001,2021-04-24_15h49.27.553,searchDisc4,2020.2.10,Win32,60,,,space,0.568705,1,1,0.780585,,0,219,219,27,1,1a,27,2,19,
,,,,,,,,,,,,,,,,,,,,,,,,,,images/exp2c_trial_70_colour3_distractors9_l.png,l,1,030,001,2021-04-24_15h49.27.553,searchDisc4,2020.2.10,Win32,60,,,space,0.832875,1,1,0.52139,,0,220,220,526,1,2c,70,3,9,
,,,,,,,,,,,,,,,,,,,,,,,,,,images/exp1a_trial_88_colour3_distractors1_r.png,r,2,030,001,2021-04-24_15h49.27.553,searchDisc4,2020.2.10,Win32,60,,,space,0.665725,2,1,0.77944,,0,221,221,88,1,1a,88,3,1,
,,,,,,,,,,,,,,,,,,,,,,,,,,images/exp2a_trial_21_colour1_distractors19_l.png,l,1,030,001,2021-04-24_15h49.27.553,searchDisc4,2020.2.10,Win32,60,,,space,0.47648,1,1,0.54448,,0,222,222,249,1,2a,21,1,19,
,,,,,,,,,,,,,,,,,,,,,,,,,,images/exp2b_trial_72_colour3_distractors31_l.png,l,1,030,001,2021-04-24_15h49.27.553,searchDisc4,2020.2.10,Win32,60,,,space,0.42606,1,1,0.5466,,0,223,223,414,1,2b,72,3,31,
,,,,,,,,,,,,,,,,,,,,,,,,,,images/exp1b_trial_22_colour1_distractors31_l.png,l,1,030,001,2021-04-24_15h49.27.553,searchDisc4,2020.2.10,Win32,60,,,space,0.41742,1,1,0.610955,,0,224,224,136,1,1b,22,1,31,
,,,,,,,,,,,,,,,,,,,,,,,,,,images/exp1b_trial_98_colour1_distractors31_l.png,l,1,030,001,2021-04-24_15h49.27.553,searchDisc4,2020.2.10,Win32,60,,,space,0.449165,1,1,0.59412,,0,225,225,212,1,1b,98,1,31,
,,,,,,,,,,,,,,,,,,,,,,,,,,images/exp1b_trial_34_colour3_distractors31_l.png,l,1,030,001,2021-04-24_15h49.27.553,searchDisc4,2020.2.10,Win32,60,,,space,1.018035,1,1,1.210695,,0,226,226,148,1,1b,34,3,31,
,,,,,,,,,,,,,,,,,,,,,,,,,,images/exp2c_trial_8_colour2_distractors9_r.png,r,2,030,001,2021-04-24_15h49.27.553,searchDisc4,2020.2.10,Win32,60,,,space,0.39904,2,1,0.596015,,0,227,227,464,1,2c,8,2,9,
,,,,,,,,,,,,,,,,,,,,,,,,,,images/exp2b_trial_51_colour3_distractors4_r.png,r,2,030,001,2021-04-24_15h49.27.553,searchDisc4,2020.2.10,Win32,60,,,space,0.40003,2,1,0.623955,,0,228,228,393,1,2b,51,3,4,
,,,,,,,,,,,,,,,,,,,,,,,,,,images/exp2c_trial_42_colour1_distractors31_r.png,r,2,030,001,2021-04-24_15h49.27.553,searchDisc4,2020.2.10,Win32,60,,,space,0.43437,2,1,0.523515,,0,229,229,498,1,2c,42,1,31,
,,,,,,,,,,,,,,,,,,,,,,,,,,images/exp1b_trial_7_colour2_distractors4_r.png,r,2,030,001,2021-04-24_15h49.27.553,searchDisc4,2020.2.10,Win32,60,,,space,0.490165,2,1,0.90401,,0,230,230,121,1,1b,7,2,4,
,,,,,,,,,,,,,,,,,,,,,,,,,,images/exp2a_trial_96_colour1_distractors9_l.png,l,1,030,001,2021-04-24_15h49.27.553,searchDisc4,2020.2.10,Win32,60,,,space,0.473025,1,1,0.561385,,0,231,231,324,1,2a,96,1,9,
,,,,,,,,,,,,,,,,,,,,,,,,,,images/exp2c_trial_65_colour2_distractors19_l.png,l,1,030,001,2021-04-24_15h49.27.553,searchDisc4,2020.2.10,Win32,60,,,space,0.583325,1,1,0.55116,,0,232,232,521,1,2c,65,2,19,
,,,,,,,,,,,,,,,,,,,,,,,,,,images/exp2b_trial_8_colour2_distractors9_r.png,r,2,030,001,2021-04-24_15h49.27.553,searchDisc4,2020.2.10,Win32,60,,,space,0.466045,2,1,0.49579,,0,233,233,350,1,2b,8,2,9,
,,,,,,,,,,,,,,,,,,,,,,,,,,images/exp1b_trial_70_colour3_distractors9_l.png,l,1,030,001,2021-04-24_15h49.27.553,searchDisc4,2020.2.10,Win32,60,,,space,0.501785,1,1,0.651785,,0,234,234,184,1,1b,70,3,9,
,,,,,,,,,,,,,,,,,,,,,,,,,,images/exp1b_trial_23_colour1_distractors43_l.png,l,1,030,001,2021-04-24_15h49.27.553,searchDisc4,2020.2.10,Win32,60,,,space,0.46954,1,1,0.726275,,0,235,235,137,1,1b,23,1,43,
,,,,,,,,,,,,,,,,,,,,,,,,,,images/exp1b_trial_41_colour1_distractors19_r.png,r,2,030,001,2021-04-24_15h49.27.553,searchDisc4,2020.2.10,Win32,60,,,space,0.40367,2,1,0.77907,,0,236,236,155,1,1b,41,1,19,
,,,,,,,,,,,,,,,,,,,,,,,,,,images/exp1a_trial_89_colour3_distractors4_r.png,r,2,030,001,2021-04-24_15h49.27.553,searchDisc4,2020.2.10,Win32,60,,,space,0.490365,2,1,0.673465,,0,237,237,89,1,1a,89,3,4,
,,,,,,,,,,,,,,,,,,,,,,,,,,images/exp2c_trial_71_colour3_distractors19_l.png,l,1,030,001,2021-04-24_15h49.27.553,searchDisc4,2020.2.10,Win32,60,,,space,0.44224,1,1,0.585105,,0,238,238,527,1,2c,71,3,19,
,,,,,,,,,,,,,,,,,,,,,,,,,,images/exp2c_trial_44_colour2_distractors1_r.png,r,2,030,001,2021-04-24_15h49.27.553,searchDisc4,2020.2.10,Win32,60,,,space,0.41585,2,1,0.54564,space,0,239,239,500,1,2c,44,2,1,37.390495
,,,,,,,,,,,,,,,,,,,,,,,,,,images/exp2c_trial_96_colour1_distractors9_l.png,l,1,030,001,2021-04-24_15h49.27.553,searchDisc4,2020.2.10,Win32,60,,,space,0.543985,1,1,0.509215,,0,240,240,552,1,2c,96,1,9,
,,,,,,,,,,,,,,,,,,,,,,,,,,images/exp1b_trial_44_colour2_distractors1_r.png,r,2,030,001,2021-04-24_15h49.27.553,searchDisc4,2020.2.10,Win32,60,,,space,0.27497,2,1,0.395165,,0,241,241,158,1,1b,44,2,1,
,,,,,,,,,,,,,,,,,,,,,,,,,,images/exp1a_trial_76_colour1_distractors1_r.png,r,2,030,001,2021-04-24_15h49.27.553,searchDisc4,2020.2.10,Win32,60,,,space,0.232485,2,1,0.593615,,0,242,242,76,1,1a,76,1,1,
,,,,,,,,,,,,,,,,,,,,,,,,,,images/exp1a_trial_5_colour1_distractors43_r.png,r,2,030,001,2021-04-24_15h49.27.553,searchDisc4,2020.2.10,Win32,60,,,space,0.200135,1,0,0.436435,,0,243,243,5,1,1a,5,1,43,
,,,,,,,,,,,,,,,,,,,,,,,,,,images/exp2c_trial_68_colour3_distractors1_l.png,l,1,030,001,2021-04-24_15h49.27.553,searchDisc4,2020.2.10,Win32,60,,,space,0.44954,1,1,0.56387,,0,244,244,524,1,2c,68,3,1,
,,,,,,,,,,,,,,,,,,,,,,,,,,images/exp2c_trial_99_colour1_distractors43_l.png,l,1,030,001,2021-04-24_15h49.27.553,searchDisc4,2020.2.10,Win32,60,,,space,0.38385,1,1,0.505145,,0,245,245,555,1,2c,99,1,43,
,,,,,,,,,,,,,,,,,,,,,,,,,,images/exp1b_trial_104_colour2_distractors31_l.png,l,1,030,001,2021-04-24_15h49.27.553,searchDisc4,2020.2.10,Win32,60,,,space,0.432525,1,1,1.161035,,0,246,246,218,1,1b,104,2,31,
,,,,,,,,,,,,,,,,,,,,,,,,,,images/exp1a_trial_109_colour3_distractors19_l.png,l,1,030,001,2021-04-24_15h49.27.553,searchDisc4,2020.2.10,Win32,60,,,space,0.39921,1,1,0.648295,,0,247,247,109,1,1a,109,3,19,
,,,,,,,,,,,,,,,,,,,,,,,,,,images/exp1a_trial_22_colour1_distractors31_l.png,l,1,030,001,2021-04-24_15h49.27.553,searchDisc4,2020.2.10,Win32,60,,,space,0.299365,1,1,0.526715,,0,248,248,22,1,1a,22,1,31,
,,,,,,,,,,,,,,,,,,,,,,,,,,images/exp1a_trial_44_colour2_distractors1_r.png,r,2,030,001,2021-04-24_15h49.27.553,searchDisc4,2020.2.10,Win32,60,,,space,0.265795,2,1,0.85596,,0,249,249,44,1,1a,44,2,1,
,,,,,,,,,,,,,,,,,,,,,,,,,,images/exp2c_trial_4_colour1_distractors31_r.png,r,2,030,001,2021-04-24_15h49.27.553,searchDisc4,2020.2.10,Win32,60,,,space,0.319935,2,1,0.477565,,0,250,250,460,1,2c,4,1,31,
,,,,,,,,,,,,,,,,,,,,,,,,,,images/exp1b_trial_108_colour3_distractors9_l.png,l,1,030,001,2021-04-24_15h49.27.553,searchDisc4,2020.2.10,Win32,60,,,space,0.261595,1,1,0.88657,,0,251,251,222,1,1b,108,3,9,
,,,,,,,,,,,,,,,,,,,,,,,,,,images/exp1a_trial_23_colour1_distractors43_l.png,l,1,030,001,2021-04-24_15h49.27.553,searchDisc4,2020.2.10,Win32,60,,,space,0.222405,1,1,0.55081,,0,252,252,23,1,1a,23,1,43,
,,,,,,,,,,,,,,,,,,,,,,,,,,images/exp1a_trial_59_colour1_distractors19_l.png,l,1,030,001,2021-04-24_15h49.27.553,searchDisc4,2020.2.10,Win32,60,,,space,0.205985,1,1,0.504245,,0,253,253,59,1,1a,59,1,19,
,,,,,,,,,,,,,,,,,,,,,,,,,,images/exp1b_trial_110_colour3_distractors31_l.png,l,1,030,001,2021-04-24_15h49.27.553,searchDisc4,2020.2.10,Win32,60,,,space,0.265785,1,1,1.96066,,0,254,254,224,1,1b,110,3,31,
,,,,,,,,,,,,,,,,,,,,,,,,,,images/exp2c_trial_86_colour2_distractors31_r.png,r,2,030,001,2021-04-24_15h49.27.553,searchDisc4,2020.2.10,Win32,60,,,space,0.199085,2,1,0.5797,,0,255,255,542,1,2c,86,2,31,
,,,,,,,,,,,,,,,,,,,,,,,,,,images/exp2c_trial_24_colour2_distractors1_l.png,l,1,030,001,2021-04-24_15h49.27.553,searchDisc4,2020.2.10,Win32,60,,,space,0.275455,1,1,0.74061,,0,256,256,480,1,2c,24,2,1,
,,,,,,,,,,,,,,,,,,,,,,,,,,images/exp2b_trial_44_colour2_distractors1_r.png,r,2,030,001,2021-04-24_15h49.27.553,searchDisc4,2020.2.10,Win32,60,,,space,0.305365,2,1,0.46397,,0,257,257,386,1,2b,44,2,1,
,,,,,,,,,,,,,,,,,,,,,,,,,,images/exp1a_trial_98_colour1_distractors31_l.png,l,1,030,001,2021-04-24_15h49.27.553,searchDisc4,2020.2.10,Win32,60,,,space,0.2726,1,1,0.4709,,0,258,258,98,1,1a,98,1,31,
,,,,,,,,,,,,,,,,,,,,,,,,,,images/exp2a_trial_82_colour2_distractors1_r.png,r,2,030,001,2021-04-24_15h49.27.553,searchDisc4,2020.2.10,Win32,60,,,space,0.282405,2,1,0.552565,,0,259,259,310,1,2a,82,2,1,
,,,,,,,,,,,,,,,,,,,,,,,,,,images/exp2b_trial_75_colour0_distractors0_l.png,l,1,030,001,2021-04-24_15h49.27.553,searchDisc4,2020.2.10,Win32,60,,,space,0.278285,1,1,0.486425,,0,260,260,417,1,2b,75,0,0,
,,,,,,,,,,,,,,,,,,,,,,,,,,images/exp2a_trial_63_colour2_distractors4_l.png,l,1,030,001,2021-04-24_15h49.27.553,searchDisc4,2020.2.10,Win32,60,,,space,0.24908,1,1,0.528405,,0,261,261,291,1,2a,63,2,4,
,,,,,,,,,,,,,,,,,,,,,,,,,,images/exp1a_trial_85_colour2_distractors19_r.png,r,2,030,001,2021-04-24_15h49.27.553,searchDisc4,2020.2.10,Win32,60,,,space,0.284775,2,1,0.539275,,0,262,262,85,1,1a,85,2,19,
,,,,,,,,,,,,,,,,,,,,,,,,,,images/exp1a_trial_71_colour3_distractors19_l.png,l,1,030,001,2021-04-24_15h49.27.553,searchDisc4,2020.2.10,Win32,60,,,space,0.266765,1,1,0.5131,,0,263,263,71,1,1a,71,3,19,
,,,,,,,,,,,,,,,,,,,,,,,,,,images/exp2c_trial_61_colour1_distractors43_l.png,l,1,030,001,2021-04-24_15h49.27.553,searchDisc4,2020.2.10,Win32,60,,,space,0.22449,1,1,0.50574,,0,264,264,517,1,2c,61,1,43,
,,,,,,,,,,,,,,,,,,,,,,,,,,images/exp2b_trial_32_colour3_distractors9_l.png,l,1,030,001,2021-04-24_15h49.27.553,searchDisc4,2020.2.10,Win32,60,,,space,0.298985,2,0,0.462455,,0,265,265,374,1,2b,32,3,9,
,,,,,,,,,,,,,,,,,,,,,,,,,,images/exp2a_trial_27_colour2_distractors19_l.png,l,1,030,001,2021-04-24_15h49.27.553,searchDisc4,2020.2.10,Win32,60,,,space,0.401055,1,1,0.477255,,0,266,266,255,1,2a,27,2,19,
,,,,,,,,,,,,,,,,,,,,,,,,,,images/exp2c_trial_26_colour2_distractors9_l.png,l,1,030,001,2021-04-24_15h49.27.553,searchDisc4,2020.2.10,Win32,60,,,space,0.276235,1,1,0.50158,,0,267,267,482,1,2c,26,2,9,
,,,,,,,,,,,,,,,,,,,,,,,,,,images/exp2c_trial_105_colour2_distractors43_l.png,l,1,030,001,2021-04-24_15h49.27.553,searchDisc4,2020.2.10,Win32,60,,,space,0.31571,1,1,0.538425,,0,268,268,561,1,2c,105,2,43,
,,,,,,,,,,,,,,,,,,,,,,,,,,images/exp2b_trial_104_colour2_distractors31_l.png,l,1,030,001,2021-04-24_15h49.27.553,searchDisc4,2020.2.10,Win32,60,,,space,0.207425,1,1,0.475045,,0,269,269,446,1,2b,104,2,31,
,,,,,,,,,,,,,,,,,,,,,,,,,,images/exp2a_trial_26_colour2_distractors9_l.png,l,1,030,001,2021-04-24_15h49.27.553,searchDisc4,2020.2.10,Win32,60,,,space,0.203035,1,1,0.51133,,0,270,270,254,1,2a,26,2,9,
,,,,,,,,,,,,,,,,,,,,,,,,,,images/exp2c_trial_59_colour1_distractors19_l.png,l,1,030,001,2021-04-24_15h49.27.553,searchDisc4,2020.2.10,Win32,60,,,space,0.216295,1,1,0.462805,,0,271,271,515,1,2c,59,1,19,
,,,,,,,,,,,,,,,,,,,,,,,,,,images/exp1a_trial_40_colour1_distractors9_r.png,r,2,030,001,2021-04-24_15h49.27.553,searchDisc4,2020.2.10,Win32,60,,,space,0.199985,2,1,0.633565,,0,272,272,40,1,1a,40,1,9,
,,,,,,,,,,,,,,,,,,,,,,,,,,images/exp2c_trial_40_colour1_distractors9_r.png,r,2,030,001,2021-04-24_15h49.27.553,searchDisc4,2020.2.10,Win32,60,,,space,0.200275,2,1,0.519235,,0,273,273,496,1,2c,40,1,9,
,,,,,,,,,,,,,,,,,,,,,,,,,,images/exp2a_trial_3_colour1_distractors19_r.png,r,2,030,001,2021-04-24_15h49.27.553,searchDisc4,2020.2.10,Win32,60,,,space,0.38894,2,1,0.67188,,0,274,274,231,1,2a,3,1,19,
,,,,,,,,,,,,,,,,,,,,,,,,,,images/exp2b_trial_41_colour1_distractors19_r.png,r,2,030,001,2021-04-24_15h49.27.553,searchDisc4,2020.2.10,Win32,60,,,space,0.32081,2,1,0.43711,,0,275,275,383,1,2b,41,1,19,
,,,,,,,,,,,,,,,,,,,,,,,,,,images/exp2b_trial_30_colour3_distractors1_l.png,l,1,030,001,2021-04-24_15h49.27.553,searchDisc4,2020.2.10,Win32,60,,,space,0.26585,1,1,0.601125,,0,276,276,372,1,2b,30,3,1,
,,,,,,,,,,,,,,,,,,,,,,,,,,images/exp1a_trial_61_colour1_distractors43_l.png,l,1,030,001,2021-04-24_15h49.27.553,searchDisc4,2020.2.10,Win32,60,,,space,0.26812,1,1,0.50883,,0,277,277,61,1,1a,61,1,43,
,,,,,,,,,,,,,,,,,,,,,,,,,,images/exp2c_trial_50_colour3_distractors1_r.png,r,2,030,001,2021-04-24_15h49.27.553,searchDisc4,2020.2.10,Win32,60,,,space,0.299925,2,1,0.81234,,0,278,278,506,1,2c,50,3,1,
,,,,,,,,,,,,,,,,,,,,,,,,,,images/exp1b_trial_0_colour1_distractors1_r.png,r,2,030,001,2021-04-24_15h49.27.553,searchDisc4,2020.2.10,Win32,60,,,space,0.27627,2,1,0.64561,,0,279,279,114,1,1b,0,1,1,
,,,,,,,,,,,,,,,,,,,,,,,,,,images/exp2b_trial_109_colour3_distractors19_l.png,l,1,030,001,2021-04-24_15h49.27.553,searchDisc4,2020.2.10,Win32,60,,,space,0.29358,1,1,0.55737,,0,280,280,451,1,2b,109,3,19,
,,,,,,,,,,,,,,,,,,,,,,,,,,images/exp1b_trial_53_colour3_distractors19_r.png,r,2,030,001,2021-04-24_15h49.27.553,searchDisc4,2020.2.10,Win32,60,,,space,0.226135,1,0,1.32944,,0,281,281,167,1,1b,53,3,19,
,,,,,,,,,,,,,,,,,,,,,,,,,,images/exp2a_trial_69_colour3_distractors4_l.png,l,1,030,001,2021-04-24_15h49.27.553,searchDisc4,2020.2.10,Win32,60,,,space,0.633715,1,1,0.47877,,0,282,282,297,1,2a,69,3,4,
,,,,,,,,,,,,,,,,,,,,,,,,,,images/exp1a_trial_79_colour1_distractors19_r.png,r,2,030,001,2021-04-24_15h49.27.553,searchDisc4,2020.2.10,Win32,60,,,space,0.365985,2,1,0.567,,0,283,283,79,1,1a,79,1,19,
,,,,,,,,,,,,,,,,,,,,,,,,,,images/exp2b_trial_7_colour2_distractors4_r.png,r,2,030,001,2021-04-24_15h49.27.553,searchDisc4,2020.2.10,Win32,60,,,space,0.30013,2,1,0.496015,,0,284,284,349,1,2b,7,2,4,
,,,,,,,,,,,,,,,,,,,,,,,,,,images/exp2c_trial_81_colour1_distractors43_r.png,r,2,030,001,2021-04-24_15h49.27.553,searchDisc4,2020.2.10,Win32,60,,,space,0.349235,2,1,0.493665,,0,285,285,537,1,2c,81,1,43,
,,,,,,,,,,,,,,,,,,,,,,,,,,images/exp2c_trial_13_colour3_distractors4_r.png,r,2,030,001,2021-04-24_15h49.27.553,searchDisc4,2020.2.10,Win32,60,,,space,0.30015,2,1,0.56528,,0,286,286,469,1,2c,13,3,4,
,,,,,,,,,,,,,,,,,,,,,,,,,,images/exp2a_trial_39_colour1_distractors4_r.png,r,2,030,001,2021-04-24_15h49.27.553,searchDisc4,2020.2.10,Win32,60,,,space,0.241635,2,1,0.619455,,0,287,287,267,1,2a,39,1,4,
,,,,,,,,,,,,,,,,,,,,,,,,,,images/exp1b_trial_111_colour3_distractors43_l.png,l,1,030,001,2021-04-24_15h49.27.553,searchDisc4,2020.2.10,Win32,60,,,space,0.253575,1,1,2.18962,,0,288,288,225,1,1b,111,3,43,
,,,,,,,,,,,,,,,,,,,,,,,,,,images/exp2c_trial_93_colour3_distractors43_r.png,r,2,030,001,2021-04-24_15h49.27.553,searchDisc4,2020.2.10,Win32,60,,,space,0.305965,2,1,0.578105,,0,289,289,549,1,2c,93,3,43,
,,,,,,,,,,,,,,,,,,,,,,,,,,images/exp1a_trial_33_colour3_distractors19_l.png,l,1,030,001,2021-04-24_15h49.27.553,searchDisc4,2020.2.10,Win32,60,,,space,0.35689,1,1,0.512945,,0,290,290,33,1,1a,33,3,19,
,,,,,,,,,,,,,,,,,,,,,,,,,,images/exp1b_trial_57_colour1_distractors4_l.png,l,1,030,001,2021-04-24_15h49.27.553,searchDisc4,2020.2.10,Win32,60,,,space,0.28796,1,1,0.623935,,0,291,291,171,1,1b,57,1,4,
,,,,,,,,,,,,,,,,,,,,,,,,,,images/exp2c_trial_107_colour3_distractors4_l.png,l,1,030,001,2021-04-24_15h49.27.553,searchDisc4,2020.2.10,Win32,60,,,space,0.234665,1,1,0.602395,,0,292,292,563,1,2c,107,3,4,
,,,,,,,,,,,,,,,,,,,,,,,,,,images/exp2a_trial_43_colour1_distractors43_r.png,r,2,030,001,2021-04-24_15h49.27.553,searchDisc4,2020.2.10,Win32,60,,,space,0.254675,2,1,0.65508,,0,293,293,271,1,2a,43,1,43,
,,,,,,,,,,,,,,,,,,,,,,,,,,images/exp2c_trial_27_colour2_distractors19_l.png,l,1,030,001,2021-04-24_15h49.27.553,searchDisc4,2020.2.10,Win32,60,,,space,0.20839,1,1,0.712615,,0,294,294,483,1,2c,27,2,19,
,,,,,,,,,,,,,,,,,,,,,,,,,,images/exp1b_trial_6_colour2_distractors1_r.png,r,2,030,001,2021-04-24_15h49.27.553,searchDisc4,2020.2.10,Win32,60,,,space,0.44929,2,1,0.603355,,0,295,295,120,1,1b,6,2,1,
,,,,,,,,,,,,,,,,,,,,,,,,,,images/exp1b_trial_102_colour2_distractors9_l.png,l,1,030,001,2021-04-24_15h49.27.553,searchDisc4,2020.2.10,Win32,60,,,space,0.249305,1,1,0.528725,,0,296,296,216,1,1b,102,2,9,
,,,,,,,,,,,,,,,,,,,,,,,,,,images/exp2a_trial_110_colour3_distractors31_l.png,l,1,030,001,2021-04-24_15h49.27.553,searchDisc4,2020.2.10,Win32,60,,,space,0.233585,1,1,0.49114,,0,297,297,338,1,2a,110,3,31,
,,,,,,,,,,,,,,,,,,,,,,,,,,images/exp2a_trial_7_colour2_distractors4_r.png,r,2,030,001,2021-04-24_15h49.27.553,searchDisc4,2020.2.10,Win32,60,,,space,0.31813,2,1,0.667095,,0,298,298,235,1,2a,7,2,4,
,,,,,,,,,,,,,,,,,,,,,,,,,,images/exp2c_trial_36_colour0_distractors0_r.png,r,2,030,001,2021-04-24_15h49.27.553,searchDisc4,2020.2.10,Win32,60,,,space,0.22035,2,1,0.791275,space,0,299,299,492,1,2c,36,0,0,17.599785
,,,,,,,,,,,,,,,,,,,,,,,,,,images/exp1b_trial_55_colour3_distractors43_r.png,r,2,030,001,2021-04-24_15h49.27.553,searchDisc4,2020.2.10,Win32,60,,,space,0.754075,2,1,2.98692,,0,300,300,169,1,1b,55,3,43,
,,,,,,,,,,,,,,,,,,,,,,,,,,images/exp1b_trial_33_colour3_distractors19_l.png,l,1,030,001,2021-04-24_15h49.27.553,searchDisc4,2020.2.10,Win32,60,,,space,0.354915,1,1,0.71273,,0,301,301,147,1,1b,33,3,19,
,,,,,,,,,,,,,,,,,,,,,,,,,,images/exp1b_trial_39_colour1_distractors4_r.png,r,2,030,001,2021-04-24_15h49.27.553,searchDisc4,2020.2.10,Win32,60,,,space,0.26992,2,1,0.80495,,0,302,302,153,1,1b,39,1,4,
,,,,,,,,,,,,,,,,,,,,,,,,,,images/exp2a_trial_86_colour2_distractors31_r.png,r,2,030,001,2021-04-24_15h49.27.553,searchDisc4,2020.2.10,Win32,60,,,space,0.332525,2,1,0.453415,,0,303,303,314,1,2a,86,2,31,
,,,,,,,,,,,,,,,,,,,,,,,,,,images/exp1b_trial_83_colour2_distractors4_r.png,r,2,030,001,2021-04-24_15h49.27.553,searchDisc4,2020.2.10,Win32,60,,,space,0.43248,2,1,0.513845,,0,304,304,197,1,1b,83,2,4,
,,,,,,,,,,,,,,,,,,,,,,,,,,images/exp2c_trial_2_colour1_distractors9_r.png,r,2,030,001,2021-04-24_15h49.27.553,searchDisc4,2020.2.10,Win32,60,,,space,0.319715,2,1,0.534755,,0,305,305,458,1,2c,2,1,9,
,,,,,,,,,,,,,,,,,,,,,,,,,,images/exp1a_trial_47_colour2_distractors19_r.png,r,2,030,001,2021-04-24_15h49.27.553,searchDisc4,2020.2.10,Win32,60,,,space,0.267795,2,1,0.539165,,0,306,306,47,1,1a,47,2,19,
,,,,,,,,,,,,,,,,,,,,,,,,,,images/exp1b_trial_68_colour3_distractors1_l.png,l,1,030,001,2021-04-24_15h49.27.553,searchDisc4,2020.2.10,Win32,60,,,space,0.29915,1,1,0.630845,,0,307,307,182,1,1b,68,3,1,
,,,,,,,,,,,,,,,,,,,,,,,,,,images/exp2a_trial_78_colour1_distractors9_r.png,r,2,030,001,2021-04-24_15h49.27.553,searchDisc4,2020.2.10,Win32,60,,,space,0.282555,2,1,0.56987,,0,308,308,306,1,2a,78,1,9,
,,,,,,,,,,,,,,,,,,,,,,,,,,images/exp1b_trial_37_colour0_distractors0_l.png,l,1,030,001,2021-04-24_15h49.27.553,searchDisc4,2020.2.10,Win32,60,,,space,0.310015,1,1,0.42868,,0,309,309,151,1,1b,37,0,0,
,,,,,,,,,,,,,,,,,,,,,,,,,,images/exp2a_trial_29_colour2_distractors43_l.png,l,1,030,001,2021-04-24_15h49.27.553,searchDisc4,2020.2.10,Win32,60,,,space,0.287315,1,1,0.46063,,0,310,310,257,1,2a,29,2,43,
,,,,,,,,,,,,,,,,,,,,,,,,,,images/exp1a_trial_101_colour2_distractors4_l.png,l,1,030,001,2021-04-24_15h49.27.553,searchDisc4,2020.2.10,Win32,60,,,space,0.249145,1,1,0.481025,,0,311,311,101,1,1a,101,2,4,
,,,,,,,,,,,,,,,,,,,,,,,,,,images/exp1a_trial_105_colour2_distractors43_l.png,l,1,030,001,2021-04-24_15h49.27.553,searchDisc4,2020.2.10,Win32,60,,,space,0.320105,1,1,0.500095,,0,312,312,105,1,1a,105,2,43,
,,,,,,,,,,,,,,,,,,,,,,,,,,images/exp2a_trial_91_colour3_distractors19_r.png,r,2,030,001,2021-04-24_15h49.27.553,searchDisc4,2020.2.10,Win32,60,,,space,0.404995,2,1,0.49999,,0,313,313,319,1,2a,91,3,19,
,,,,,,,,,,,,,,,,,,,,,,,,,,images/exp2a_trial_77_colour1_distractors4_r.png,r,2,030,001,2021-04-24_15h49.27.553,searchDisc4,2020.2.10,Win32,60,,,space,0.28728,2,1,0.51817,,0,314,314,305,1,2a,77,1,4,
,,,,,,,,,,,,,,,,,,,,,,,,,,images/exp2a_trial_47_colour2_distractors19_r.png,r,2,030,001,2021-04-24_15h49.27.553,searchDisc4,2020.2.10,Win32,60,,,space,0.301235,2,1,0.466835,,0,315,315,275,1,2a,47,2,19,
,,,,,,,,,,,,,,,,,,,,,,,,,,images/exp2b_trial_26_colour2_distractors9_l.png,l,1,030,001,2021-04-24_15h49.27.553,searchDisc4,2020.2.10,Win32,60,,,space,0.28467,1,1,0.4631,,0,316,316,368,1,2b,26,2,9,
,,,,,,,,,,,,,,,,,,,,,,,,,,images/exp2c_trial_91_colour3_distractors19_r.png,r,2,030,001,2021-04-24_15h49.27.553,searchDisc4,2020.2.10,Win32,60,,,space,0.34055,2,1,0.489905,,0,317,317,547,1,2c,91,3,19,
,,,,,,,,,,,,,,,,,,,,,,,,,,images/exp2b_trial_27_colour2_distractors19_l.png,l,1,030,001,2021-04-24_15h49.27.553,searchDisc4,2020.2.10,Win32,60,,,space,0.281965,1,1,0.432325,,0,318,318,369,1,2b,27,2,19,
,,,,,,,,,,,,,,,,,,,,,,,,,,images/exp2b_trial_13_colour3_distractors4_r.png,r,2,030,001,2021-04-24_15h49.27.553,searchDisc4,2020.2.10,Win32,60,,,space,0.43503,2,1,0.453715,,0,319,319,355,1,2b,13,3,4,
,,,,,,,,,,,,,,,,,,,,,,,,,,images/exp1a_trial_48_colour2_distractors31_r.png,r,2,030,001,2021-04-24_15h49.27.553,searchDisc4,2020.2.10,Win32,60,,,space,0.28611,2,1,0.47732,,0,320,320,48,1,1a,48,2,31,
,,,,,,,,,,,,,,,,,,,,,,,,,,images/exp2a_trial_57_colour1_distractors4_l.png,l,1,030,001,2021-04-24_15h49.27.553,searchDisc4,2020.2.10,Win32,60,,,space,0.277325,1,1,0.48649,,0,321,321,285,1,2a,57,1,4,
,,,,,,,,,,,,,,,,,,,,,,,,,,images/exp1b_trial_49_colour2_distractors43_r.png,r,2,030,001,2021-04-24_15h49.27.553,searchDisc4,2020.2.10,Win32,60,,,space,0.32508,2,1,1.17006,,0,322,322,163,1,1b,49,2,43,
,,,,,,,,,,,,,,,,,,,,,,,,,,images/exp2a_trial_84_colour2_distractors9_r.png,r,2,030,001,2021-04-24_15h49.27.553,searchDisc4,2020.2.10,Win32,60,,,space,0.24916,2,1,0.45481,,0,323,323,312,1,2a,84,2,9,
,,,,,,,,,,,,,,,,,,,,,,,,,,images/exp2a_trial_83_colour2_distractors4_r.png,r,2,030,001,2021-04-24_15h49.27.553,searchDisc4,2020.2.10,Win32,60,,,space,0.315895,2,1,0.47146,,0,324,324,311,1,2a,83,2,4,
,,,,,,,,,,,,,,,,,,,,,,,,,,images/exp2b_trial_38_colour1_distractors1_r.png,r,2,030,001,2021-04-24_15h49.27.553,searchDisc4,2020.2.10,Win32,60,,,space,0.23268,2,1,0.538935,,0,325,325,380,1,2b,38,1,1,
,,,,,,,,,,,,,,,,,,,,,,,,,,images/exp1b_trial_66_colour2_distractors31_l.png,l,1,030,001,2021-04-24_15h49.27.553,searchDisc4,2020.2.10,Win32,60,,,space,0.23337,1,1,0.48926,,0,326,326,180,1,1b,66,2,31,
,,,,,,,,,,,,,,,,,,,,,,,,,,images/exp1b_trial_95_colour1_distractors4_l.png,l,1,030,001,2021-04-24_15h49.27.553,searchDisc4,2020.2.10,Win32,60,,,space,0.24128,1,1,0.515605,,0,327,327,209,1,1b,95,1,4,
,,,,,,,,,,,,,,,,,,,,,,,,,,images/exp2b_trial_64_colour2_distractors9_l.png,l,1,030,001,2021-04-24_15h49.27.553,searchDisc4,2020.2.10,Win32,60,,,space,0.20149,1,1,0.530155,,0,328,328,406,1,2b,64,2,9,
,,,,,,,,,,,,,,,,,,,,,,,,,,images/exp2a_trial_31_colour3_distractors4_l.png,l,1,030,001,2021-04-24_15h49.27.553,searchDisc4,2020.2.10,Win32,60,,,space,0.18588,1,1,0.453135,,0,329,329,259,1,2a,31,3,4,
,,,,,,,,,,,,,,,,,,,,,,,,,,images/exp2a_trial_104_colour2_distractors31_l.png,l,1,030,001,2021-04-24_15h49.27.553,searchDisc4,2020.2.10,Win32,60,,,space,0.254845,1,1,0.47002,,0,330,330,332,1,2a,104,2,31,
,,,,,,,,,,,,,,,,,,,,,,,,,,images/exp1a_trial_14_colour3_distractors9_r.png,r,2,030,001,2021-04-24_15h49.27.553,searchDisc4,2020.2.10,Win32,60,,,space,0.20012,2,1,0.432825,,0,331,331,14,1,1a,14,3,9,
,,,,,,,,,,,,,,,,,,,,,,,,,,images/exp1b_trial_80_colour1_distractors31_r.png,r,2,030,001,2021-04-24_15h49.27.553,searchDisc4,2020.2.10,Win32,60,,,space,0.199115,2,1,0.777495,,0,332,332,194,1,1b,80,1,31,
,,,,,,,,,,,,,,,,,,,,,,,,,,images/exp1b_trial_19_colour1_distractors4_l.png,l,1,030,001,2021-04-24_15h49.27.553,searchDisc4,2020.2.10,Win32,60,,,space,0.132535,1,1,0.612675,,0,333,333,133,1,1b,19,1,4,
,,,,,,,,,,,,,,,,,,,,,,,,,,images/exp2b_trial_16_colour3_distractors31_r.png,r,2,030,001,2021-04-24_15h49.27.553,searchDisc4,2020.2.10,Win32,60,,,space,0.149085,2,1,0.61253,,0,334,334,358,1,2b,16,3,31,
,,,,,,,,,,,,,,,,,,,,,,,,,,images/exp2c_trial_89_colour3_distractors4_r.png,r,2,030,001,2021-04-24_15h49.27.553,searchDisc4,2020.2.10,Win32,60,,,space,0.10015,2,1,0.552725,,0,335,335,545,1,2c,89,3,4,
,,,,,,,,,,,,,,,,,,,,,,,,,,images/exp1a_trial_72_colour3_distractors31_l.png,l,1,030,001,2021-04-24_15h49.27.553,searchDisc4,2020.2.10,Win32,60,,,space,0.11081,1,1,0.57245,,0,336,336,72,1,1a,72,3,31,
,,,,,,,,,,,,,,,,,,,,,,,,,,images/exp2c_trial_64_colour2_distractors9_l.png,l,1,030,001,2021-04-24_15h49.27.553,searchDisc4,2020.2.10,Win32,60,,,space,0.15411,1,1,0.680085,,0,337,337,520,1,2c,64,2,9,
,,,,,,,,,,,,,,,,,,,,,,,,,,images/exp2a_trial_22_colour1_distractors31_l.png,l,1,030,001,2021-04-24_15h49.27.553,searchDisc4,2020.2.10,Win32,60,,,space,0.127365,1,1,0.644635,,0,338,338,250,1,2a,22,1,31,
,,,,,,,,,,,,,,,,,,,,,,,,,,images/exp2a_trial_107_colour3_distractors4_l.png,l,1,030,001,2021-04-24_15h49.27.553,searchDisc4,2020.2.10,Win32,60,,,space,0.10186,1,1,0.53068,,0,339,339,335,1,2a,107,3,4,
,,,,,,,,,,,,,,,,,,,,,,,,,,images/exp2b_trial_100_colour2_distractors1_l.png,l,1,030,001,2021-04-24_15h49.27.553,searchDisc4,2020.2.10,Win32,60,,,space,0.138375,1,1,0.472845,,0,340,340,442,1,2b,100,2,1,
,,,,,,,,,,,,,,,,,,,,,,,,,,images/exp2b_trial_112_colour0_distractors0_r.png,r,2,030,001,2021-04-24_15h49.27.553,searchDisc4,2020.2.10,Win32,60,,,space,0.137195,2,1,0.61429,,0,341,341,454,1,2b,112,0,0,
,,,,,,,,,,,,,,,,,,,,,,,,,,images/exp2a_trial_61_colour1_distractors43_l.png,l,1,030,001,2021-04-24_15h49.27.553,searchDisc4,2020.2.10,Win32,60,,,space,0.13341,1,1,0.46639,,0,342,342,289,1,2a,61,1,43,
,,,,,,,,,,,,,,,,,,,,,,,,,,images/exp1b_trial_72_colour3_distractors31_l.png,l,1,030,001,2021-04-24_15h49.27.553,searchDisc4,2020.2.10,Win32,60,,,space,0.127045,1,1,4.211975,,0,343,343,186,1,1b,72,3,31,
,,,,,,,,,,,,,,,,,,,,,,,,,,images/exp2a_trial_55_colour3_distractors43_r.png,r,2,030,001,2021-04-24_15h49.27.553,searchDisc4,2020.2.10,Win32,60,,,space,0.098075,2,1,0.57732,,0,344,344,283,1,2a,55,3,43,
,,,,,,,,,,,,,,,,,,,,,,,,,,images/exp1a_trial_51_colour3_distractors4_r.png,r,2,030,001,2021-04-24_15h49.27.553,searchDisc4,2020.2.10,Win32,60,,,space,0.074195,2,1,0.49859,,0,345,345,51,1,1a,51,3,4,
,,,,,,,,,,,,,,,,,,,,,,,,,,images/exp2a_trial_90_colour3_distractors9_r.png,r,2,030,001,2021-04-24_15h49.27.553,searchDisc4,2020.2.10,Win32,60,,,space,0.082495,2,1,0.52814,,0,346,346,318,1,2a,90,3,9,
,,,,,,,,,,,,,,,,,,,,,,,,,,images/exp1a_trial_28_colour2_distractors31_l.png,l,1,030,001,2021-04-24_15h49.27.553,searchDisc4,2020.2.10,Win32,60,,,space,0.07076,2,0,0.595505,,0,347,347,28,1,1a,28,2,31,
,,,,,,,,,,,,,,,,,,,,,,,,,,images/exp1a_trial_96_colour1_distractors9_l.png,l,1,030,001,2021-04-24_15h49.27.553,searchDisc4,2020.2.10,Win32,60,,,space,2.25016,1,1,0.698355,,0,348,348,96,1,1a,96,1,9,
,,,,,,,,,,,,,,,,,,,,,,,,,,images/exp2b_trial_45_colour2_distractors4_r.png,r,2,030,001,2021-04-24_15h49.27.553,searchDisc4,2020.2.10,Win32,60,,,space,0.53819,2,1,0.47171,,0,349,349,387,1,2b,45,2,4,
,,,,,,,,,,,,,,,,,,,,,,,,,,images/exp2b_trial_25_colour2_distractors4_l.png,l,1,030,001,2021-04-24_15h49.27.553,searchDisc4,2020.2.10,Win32,60,,,space,0.256025,1,1,0.4581,,0,350,350,367,1,2b,25,2,4,
,,,,,,,,,,,,,,,,,,,,,,,,,,images/exp2b_trial_49_colour2_distractors43_r.png,r,2,030,001,2021-04-24_15h49.27.553,searchDisc4,2020.2.10,Win32,60,,,space,0.274245,2,1,0.482105,,0,351,351,391,1,2b,49,2,43,
,,,,,,,,,,,,,,,,,,,,,,,,,,images/exp2b_trial_50_colour3_distractors1_r.png,r,2,030,001,2021-04-24_15h49.27.553,searchDisc4,2020.2.10,Win32,60,,,space,0.186195,2,1,0.503055,,0,352,352,392,1,2b,50,3,1,
,,,,,,,,,,,,,,,,,,,,,,,,,,images/exp2c_trial_101_colour2_distractors4_l.png,l,1,030,001,2021-04-24_15h49.27.553,searchDisc4,2020.2.10,Win32,60,,,space,0.14924,1,1,0.48182,,0,353,353,557,1,2c,101,2,4,
,,,,,,,,,,,,,,,,,,,,,,,,,,images/exp1b_trial_4_colour1_distractors31_r.png,r,2,030,001,2021-04-24_15h49.27.553,searchDisc4,2020.2.10,Win32,60,,,space,0.121715,2,1,0.750525,,0,354,354,118,1,1b,4,1,31,
,,,,,,,,,,,,,,,,,,,,,,,,,,images/exp2b_trial_102_colour2_distractors9_l.png,l,1,030,001,2021-04-24_15h49.27.553,searchDisc4,2020.2.10,Win32,60,,,space,0.060855,1,1,0.55074,,0,355,355,444,1,2b,102,2,9,
,,,,,,,,,,,,,,,,,,,,,,,,,,images/exp2a_trial_50_colour3_distractors1_r.png,r,2,030,001,2021-04-24_15h49.27.553,searchDisc4,2020.2.10,Win32,60,,,space,0.10691,2,1,0.53019,,0,356,356,278,1,2a,50,3,1,
,,,,,,,,,,,,,,,,,,,,,,,,,,images/exp2b_trial_92_colour3_distractors31_r.png,r,2,030,001,2021-04-24_15h49.27.553,searchDisc4,2020.2.10,Win32,60,,,space,0.065775,2,1,0.65341,,0,357,357,434,1,2b,92,3,31,
,,,,,,,,,,,,,,,,,,,,,,,,,,images/exp2c_trial_72_colour3_distractors31_l.png,l,1,030,001,2021-04-24_15h49.27.553,searchDisc4,2020.2.10,Win32,60,,,space,0.06562,1,1,0.630825,,0,358,358,528,1,2c,72,3,31,
,,,,,,,,,,,,,,,,,,,,,,,,,,images/exp2c_trial_35_colour3_distractors43_l.png,l,1,030,001,2021-04-24_15h49.27.553,searchDisc4,2020.2.10,Win32,60,,,space,0.133015,1,1,0.535105,space,0,359,359,491,1,2c,35,3,43,0.08591
,,,,,,,,,,,,,,,,,,,,,,,,,,images/exp2b_trial_14_colour3_distractors9_r.png,r,2,030,001,2021-04-24_15h49.27.553,searchDisc4,2020.2.10,Win32,60,,,space,3.370565,2,1,0.413625,,0,360,360,356,1,2b,14,3,9,
,,,,,,,,,,,,,,,,,,,,,,,,,,images/exp1a_trial_103_colour2_distractors19_l.png,l,1,030,001,2021-04-24_15h49.27.553,searchDisc4,2020.2.10,Win32,60,,,space,0.39343,1,1,0.48353,,0,361,361,103,1,1a,103,2,19,
,,,,,,,,,,,,,,,,,,,,,,,,,,images/exp2b_trial_37_colour0_distractors0_l.png,l,1,030,001,2021-04-24_15h49.27.553,searchDisc4,2020.2.10,Win32,60,,,space,0.308835,1,1,0.36273,,0,362,362,379,1,2b,37,0,0,
,,,,,,,,,,,,,,,,,,,,,,,,,,images/exp1b_trial_82_colour2_distractors1_r.png,r,2,030,001,2021-04-24_15h49.27.553,searchDisc4,2020.2.10,Win32,60,,,space,0.335715,2,1,0.51771,,0,363,363,196,1,1b,82,2,1,
,,,,,,,,,,,,,,,,,,,,,,,,,,images/exp2a_trial_73_colour3_distractors43_l.png,l,1,030,001,2021-04-24_15h49.27.553,searchDisc4,2020.2.10,Win32,60,,,space,0.25166,1,1,0.52982,,0,364,364,301,1,2a,73,3,43,
,,,,,,,,,,,,,,,,,,,,,,,,,,images/exp1b_trial_17_colour3_distractors43_r.png,r,2,030,001,2021-04-24_15h49.27.553,searchDisc4,2020.2.10,Win32,60,,,space,0.316675,,0,,,0,365,365,131,1,1b,17,3,43,
,,,,,,,,,,,,,,,,,,,,,,,,,,images/exp2c_trial_30_colour3_distractors1_l.png,l,1,030,001,2021-04-24_15h49.27.553,searchDisc4,2020.2.10,Win32,60,,,space,0.633355,1,1,0.551225,,0,366,366,486,1,2c,30,3,1,
,,,,,,,,,,,,,,,,,,,,,,,,,,images/exp2a_trial_70_colour3_distractors9_l.png,l,1,030,001,2021-04-24_15h49.27.553,searchDisc4,2020.2.10,Win32,60,,,space,0.15573,1,1,0.49579,,0,367,367,298,1,2a,70,3,9,
,,,,,,,,,,,,,,,,,,,,,,,,,,images/exp2a_trial_94_colour1_distractors1_l.png,l,1,030,001,2021-04-24_15h49.27.553,searchDisc4,2020.2.10,Win32,60,,,space,0.335595,1,1,0.468155,,0,368,368,322,1,2a,94,1,1,
,,,,,,,,,,,,,,,,,,,,,,,,,,images/exp1a_trial_30_colour3_distractors1_l.png,l,1,030,001,2021-04-24_15h49.27.553,searchDisc4,2020.2.10,Win32,60,,,space,0.35774,1,1,0.69068,,0,369,369,30,1,1a,30,3,1,
,,,,,,,,,,,,,,,,,,,,,,,,,,images/exp1b_trial_64_colour2_distractors9_l.png,l,1,030,001,2021-04-24_15h49.27.553,searchDisc4,2020.2.10,Win32,60,,,space,0.27428,1,1,0.56301,,0,370,370,178,1,1b,64,2,9,
,,,,,,,,,,,,,,,,,,,,,,,,,,images/exp2a_trial_25_colour2_distractors4_l.png,l,1,030,001,2021-04-24_15h49.27.553,searchDisc4,2020.2.10,Win32,60,,,space,0.343205,1,1,0.46166,,0,371,371,253,1,2a,25,2,4,
,,,,,,,,,,,,,,,,,,,,,,,,,,images/exp1a_trial_95_colour1_distractors4_l.png,l,1,030,001,2021-04-24_15h49.27.553,searchDisc4,2020.2.10,Win32,60,,,space,0.301,1,1,0.49547,,0,372,372,95,1,1a,95,1,4,
,,,,,,,,,,,,,,,,,,,,,,,,,,images/exp2a_trial_8_colour2_distractors9_r.png,r,2,030,001,2021-04-24_15h49.27.553,searchDisc4,2020.2.10,Win32,60,,,space,0.419115,2,1,0.484805,,0,373,373,236,1,2a,8,2,9,
,,,,,,,,,,,,,,,,,,,,,,,,,,images/exp1b_trial_65_colour2_distractors19_l.png,l,1,030,001,2021-04-24_15h49.27.553,searchDisc4,2020.2.10,Win32,60,,,space,0.32497,1,1,0.93129,,0,374,374,179,1,1b,65,2,19,
,,,,,,,,,,,,,,,,,,,,,,,,,,images/exp1a_trial_87_colour2_distractors43_r.png,r,2,030,001,2021-04-24_15h49.27.553,searchDisc4,2020.2.10,Win32,60,,,space,0.27286,2,1,0.75231,,0,375,375,87,1,1a,87,2,43,
,,,,,,,,,,,,,,,,,,,,,,,,,,images/exp2c_trial_33_colour3_distractors19_l.png,l,1,030,001,2021-04-24_15h49.27.553,searchDisc4,2020.2.10,Win32,60,,,space,0.11864,1,1,0.619555,,0,376,376,489,1,2c,33,3,19,
,,,,,,,,,,,,,,,,,,,,,,,,,,images/exp1a_trial_31_colour3_distractors4_l.png,l,1,030,001,2021-04-24_15h49.27.553,searchDisc4,2020.2.10,Win32,60,,,space,0.2868,1,1,0.718825,,0,377,377,31,1,1a,31,3,4,
,,,,,,,,,,,,,,,,,,,,,,,,,,images/exp2b_trial_74_colour0_distractors0_r.png,r,2,030,001,2021-04-24_15h49.27.553,searchDisc4,2020.2.10,Win32,60,,,space,0.268515,2,1,0.59002,,0,378,378,416,1,2b,74,0,0,
,,,,,,,,,,,,,,,,,,,,,,,,,,images/exp2a_trial_1_colour1_distractors4_r.png,r,2,030,001,2021-04-24_15h49.27.553,searchDisc4,2020.2.10,Win32,60,,,space,0.25727,2,1,0.497,,0,379,379,229,1,2a,1,1,4,
,,,,,,,,,,,,,,,,,,,,,,,,,,images/exp2c_trial_58_colour1_distractors9_l.png,l,1,030,001,2021-04-24_15h49.27.553,searchDisc4,2020.2.10,Win32,60,,,space,0.305255,1,1,0.37817,,0,380,380,514,1,2c,58,1,9,
,,,,,,,,,,,,,,,,,,,,,,,,,,images/exp1b_trial_92_colour3_distractors31_r.png,r,2,030,001,2021-04-24_15h49.27.553,searchDisc4,2020.2.10,Win32,60,,,space,0.34914,2,1,2.367155,,0,381,381,206,1,1b,92,3,31,
,,,,,,,,,,,,,,,,,,,,,,,,,,images/exp1b_trial_9_colour2_distractors19_r.png,r,2,030,001,2021-04-24_15h49.27.553,searchDisc4,2020.2.10,Win32,60,,,space,0.237185,2,1,0.66992,,0,382,382,123,1,1b,9,2,19,
,,,,,,,,,,,,,,,,,,,,,,,,,,images/exp2c_trial_25_colour2_distractors4_l.png,l,1,030,001,2021-04-24_15h49.27.553,searchDisc4,2020.2.10,Win32,60,,,space,0.327405,1,1,0.530585,,0,383,383,481,1,2c,25,2,4,
,,,,,,,,,,,,,,,,,,,,,,,,,,images/exp2c_trial_38_colour1_distractors1_r.png,r,2,030,001,2021-04-24_15h49.27.553,searchDisc4,2020.2.10,Win32,60,,,space,0.354505,2,1,0.49671,,0,384,384,494,1,2c,38,1,1,
,,,,,,,,,,,,,,,,,,,,,,,,,,images/exp2b_trial_34_colour3_distractors31_l.png,l,1,030,001,2021-04-24_15h49.27.553,searchDisc4,2020.2.10,Win32,60,,,space,0.27111,1,1,0.53561,,0,385,385,376,1,2b,34,3,31,
,,,,,,,,,,,,,,,,,,,,,,,,,,images/exp2c_trial_41_colour1_distractors19_r.png,r,2,030,001,2021-04-24_15h49.27.553,searchDisc4,2020.2.10,Win32,60,,,space,0.250255,2,1,0.496955,,0,386,386,497,1,2c,41,1,19,
,,,,,,,,,,,,,,,,,,,,,,,,,,images/exp2b_trial_59_colour1_distractors19_l.png,l,1,030,001,2021-04-24_15h49.27.553,searchDisc4,2020.2.10,Win32,60,,,space,0.24924,1,1,0.62895,,0,387,387,401,1,2b,59,1,19,
,,,,,,,,,,,,,,,,,,,,,,,,,,images/exp2b_trial_19_colour1_distractors4_l.png,l,1,030,001,2021-04-24_15h49.27.553,searchDisc4,2020.2.10,Win32,60,,,space,0.21597,1,1,0.434315,,0,388,388,361,1,2b,19,1,4,
,,,,,,,,,,,,,,,,,,,,,,,,,,images/exp2b_trial_107_colour3_distractors4_l.png,l,1,030,001,2021-04-24_15h49.27.553,searchDisc4,2020.2.10,Win32,60,,,space,0.323925,2,0,0.447585,,0,389,389,449,1,2b,107,3,4,
,,,,,,,,,,,,,,,,,,,,,,,,,,images/exp2c_trial_0_colour1_distractors1_r.png,r,2,030,001,2021-04-24_15h49.27.553,searchDisc4,2020.2.10,Win32,60,,,space,0.507195,2,1,0.497185,,0,390,390,456,1,2c,0,1,1,
,,,,,,,,,,,,,,,,,,,,,,,,,,images/exp2c_trial_43_colour1_distractors43_r.png,r,2,030,001,2021-04-24_15h49.27.553,searchDisc4,2020.2.10,Win32,60,,,space,0.349195,2,1,0.478165,,0,391,391,499,1,2c,43,1,43,
,,,,,,,,,,,,,,,,,,,,,,,,,,images/exp1a_trial_66_colour2_distractors31_l.png,l,1,030,001,2021-04-24_15h49.27.553,searchDisc4,2020.2.10,Win32,60,,,space,0.35786,1,1,0.553185,,0,392,392,66,1,1a,66,2,31,
,,,,,,,,,,,,,,,,,,,,,,,,,,images/exp2a_trial_14_colour3_distractors9_r.png,r,2,030,001,2021-04-24_15h49.27.553,searchDisc4,2020.2.10,Win32,60,,,space,0.300045,2,1,0.53318,,0,393,393,242,1,2a,14,3,9,
,,,,,,,,,,,,,,,,,,,,,,,,,,images/exp1a_trial_39_colour1_distractors4_r.png,r,2,030,001,2021-04-24_15h49.27.553,searchDisc4,2020.2.10,Win32,60,,,space,0.316155,2,1,0.6172,,0,394,394,39,1,1a,39,1,4,
,,,,,,,,,,,,,,,,,,,,,,,,,,images/exp2b_trial_65_colour2_distractors19_l.png,l,1,030,001,2021-04-24_15h49.27.553,searchDisc4,2020.2.10,Win32,60,,,space,0.261185,1,1,0.453715,,0,395,395,407,1,2b,65,2,19,
,,,,,,,,,,,,,,,,,,,,,,,,,,images/exp2b_trial_105_colour2_distractors43_l.png,l,1,030,001,2021-04-24_15h49.27.553,searchDisc4,2020.2.10,Win32,60,,,space,0.319085,1,1,0.46995,,0,396,396,447,1,2b,105,2,43,
,,,,,,,,,,,,,,,,,,,,,,,,,,images/exp2b_trial_85_colour2_distractors19_r.png,r,2,030,001,2021-04-24_15h49.27.553,searchDisc4,2020.2.10,Win32,60,,,space,0.293905,2,1,0.48615,,0,397,397,427,1,2b,85,2,19,
,,,,,,,,,,,,,,,,,,,,,,,,,,images/exp2b_trial_94_colour1_distractors1_l.png,l,1,030,001,2021-04-24_15h49.27.553,searchDisc4,2020.2.10,Win32,60,,,space,0.285225,1,1,0.44643,,0,398,398,436,1,2b,94,1,1,
,,,,,,,,,,,,,,,,,,,,,,,,,,images/exp2c_trial_76_colour1_distractors1_r.png,r,2,030,001,2021-04-24_15h49.27.553,searchDisc4,2020.2.10,Win32,60,,,space,0.34176,2,1,0.429135,,0,399,399,532,1,2c,76,1,1,
,,,,,,,,,,,,,,,,,,,,,,,,,,images/exp2a_trial_98_colour1_distractors31_l.png,l,1,030,001,2021-04-24_15h49.27.553,searchDisc4,2020.2.10,Win32,60,,,space,0.26126,1,1,0.544,,0,400,400,326,1,2a,98,1,31,
,,,,,,,,,,,,,,,,,,,,,,,,,,images/exp1b_trial_21_colour1_distractors19_l.png,l,1,030,001,2021-04-24_15h49.27.553,searchDisc4,2020.2.10,Win32,60,,,space,0.251515,1,1,0.72832,,0,401,401,135,1,1b,21,1,19,
,,,,,,,,,,,,,,,,,,,,,,,,,,images/exp1a_trial_58_colour1_distractors9_l.png,l,1,030,001,2021-04-24_15h49.27.553,searchDisc4,2020.2.10,Win32,60,,,space,0.26597,1,1,0.505615,,0,402,402,58,1,1a,58,1,9,
,,,,,,,,,,,,,,,,,,,,,,,,,,images/exp1a_trial_4_colour1_distractors31_r.png,r,2,030,001,2021-04-24_15h49.27.553,searchDisc4,2020.2.10,Win32,60,,,space,0.44133,2,1,0.44897,,0,403,403,4,1,1a,4,1,31,
,,,,,,,,,,,,,,,,,,,,,,,,,,images/exp2c_trial_79_colour1_distractors19_r.png,r,2,030,001,2021-04-24_15h49.27.553,searchDisc4,2020.2.10,Win32,60,,,space,0.227505,2,1,0.49502,,0,404,404,535,1,2c,79,1,19,
,,,,,,,,,,,,,,,,,,,,,,,,,,images/exp2a_trial_93_colour3_distractors43_r.png,r,2,030,001,2021-04-24_15h49.27.553,searchDisc4,2020.2.10,Win32,60,,,space,0.269095,2,1,0.560265,,0,405,405,321,1,2a,93,3,43,
,,,,,,,,,,,,,,,,,,,,,,,,,,images/exp2a_trial_87_colour2_distractors43_r.png,r,2,030,001,2021-04-24_15h49.27.553,searchDisc4,2020.2.10,Win32,60,,,space,0.27411,2,1,0.51175,,0,406,406,315,1,2a,87,2,43,
,,,,,,,,,,,,,,,,,,,,,,,,,,images/exp2b_trial_1_colour1_distractors4_r.png,r,2,030,001,2021-04-24_15h49.27.553,searchDisc4,2020.2.10,Win32,60,,,space,0.33653,2,1,0.526955,,0,407,407,343,1,2b,1,1,4,
,,,,,,,,,,,,,,,,,,,,,,,,,,images/exp2a_trial_64_colour2_distractors9_l.png,l,1,030,001,2021-04-24_15h49.27.553,searchDisc4,2020.2.10,Win32,60,,,space,0.26774,1,1,0.495875,,0,408,408,292,1,2a,64,2,9,
,,,,,,,,,,,,,,,,,,,,,,,,,,images/exp1b_trial_20_colour1_distractors9_l.png,l,1,030,001,2021-04-24_15h49.27.553,searchDisc4,2020.2.10,Win32,60,,,space,0.275595,1,1,0.584975,,0,409,409,134,1,1b,20,1,9,
,,,,,,,,,,,,,,,,,,,,,,,,,,images/exp1a_trial_60_colour1_distractors31_l.png,l,1,030,001,2021-04-24_15h49.27.553,searchDisc4,2020.2.10,Win32,60,,,space,0.266705,1,1,0.52623,,0,410,410,60,1,1a,60,1,31,
,,,,,,,,,,,,,,,,,,,,,,,,,,images/exp1b_trial_10_colour2_distractors31_r.png,r,2,030,001,2021-04-24_15h49.27.553,searchDisc4,2020.2.10,Win32,60,,,space,0.34922,2,1,0.50497,,0,411,411,124,1,1b,10,2,31,
,,,,,,,,,,,,,,,,,,,,,,,,,,images/exp2a_trial_75_colour0_distractors0_l.png,l,1,030,001,2021-04-24_15h49.27.553,searchDisc4,2020.2.10,Win32,60,,,space,0.321285,1,1,0.447855,,0,412,412,303,1,2a,75,0,0,
,,,,,,,,,,,,,,,,,,,,,,,,,,images/exp1a_trial_19_colour1_distractors4_l.png,l,1,030,001,2021-04-24_15h49.27.553,searchDisc4,2020.2.10,Win32,60,,,space,0.336695,1,1,0.62955,,0,413,413,19,1,1a,19,1,4,
,,,,,,,,,,,,,,,,,,,,,,,,,,images/exp2b_trial_12_colour3_distractors1_r.png,r,2,030,001,2021-04-24_15h49.27.553,searchDisc4,2020.2.10,Win32,60,,,space,0.23345,2,1,0.48154,,0,414,414,354,1,2b,12,3,1,
,,,,,,,,,,,,,,,,,,,,,,,,,,images/exp2c_trial_10_colour2_distractors31_r.png,r,2,030,001,2021-04-24_15h49.27.553,searchDisc4,2020.2.10,Win32,60,,,space,0.257495,2,1,0.545435,,0,415,415,466,1,2c,10,2,31,
,,,,,,,,,,,,,,,,,,,,,,,,,,images/exp2a_trial_72_colour3_distractors31_l.png,l,1,030,001,2021-04-24_15h49.27.553,searchDisc4,2020.2.10,Win32,60,,,space,0.343525,1,1,0.770485,,0,416,416,300,1,2a,72,3,31,
,,,,,,,,,,,,,,,,,,,,,,,,,,images/exp2a_trial_10_colour2_distractors31_r.png,r,2,030,001,2021-04-24_15h49.27.553,searchDisc4,2020.2.10,Win32,60,,,space,0.315885,2,1,0.62068,,0,417,417,238,1,2a,10,2,31,
,,,,,,,,,,,,,,,,,,,,,,,,,,images/exp2a_trial_20_colour1_distractors9_l.png,l,1,030,001,2021-04-24_15h49.27.553,searchDisc4,2020.2.10,Win32,60,,,space,0.28246,1,1,0.46295,,0,418,418,248,1,2a,20,1,9,
,,,,,,,,,,,,,,,,,,,,,,,,,,images/exp1a_trial_3_colour1_distractors19_r.png,r,2,030,001,2021-04-24_15h49.27.553,searchDisc4,2020.2.10,Win32,60,,,space,0.32223,2,1,0.439175,space,0,419,419,3,1,1a,3,1,19,21.257995
,,,,,,,,,,,,,,,,,,,,,,,,,,images/exp2a_trial_113_colour0_distractors0_l.png,l,1,030,001,2021-04-24_15h49.27.553,searchDisc4,2020.2.10,Win32,60,,,space,0.567735,1,1,0.65991,,0,420,420,341,1,2a,113,0,0,
,,,,,,,,,,,,,,,,,,,,,,,,,,images/exp1b_trial_18_colour1_distractors1_l.png,l,1,030,001,2021-04-24_15h49.27.553,searchDisc4,2020.2.10,Win32,60,,,space,0.324535,1,1,0.427955,,0,421,421,132,1,1b,18,1,1,
,,,,,,,,,,,,,,,,,,,,,,,,,,images/exp1b_trial_74_colour0_distractors0_r.png,r,2,030,001,2021-04-24_15h49.27.553,searchDisc4,2020.2.10,Win32,60,,,space,0.366855,2,1,0.38096,,0,422,422,188,1,1b,74,0,0,
,,,,,,,,,,,,,,,,,,,,,,,,,,images/exp1b_trial_78_colour1_distractors9_r.png,r,2,030,001,2021-04-24_15h49.27.553,searchDisc4,2020.2.10,Win32,60,,,space,0.332455,2,1,0.63247,,0,423,423,192,1,1b,78,1,9,
,,,,,,,,,,,,,,,,,,,,,,,,,,images/exp1b_trial_14_colour3_distractors9_r.png,r,2,030,001,2021-04-24_15h49.27.553,searchDisc4,2020.2.10,Win32,60,,,space,0.32382,2,1,0.537465,,0,424,424,128,1,1b,14,3,9,
,,,,,,,,,,,,,,,,,,,,,,,,,,images/exp2c_trial_106_colour3_distractors1_l.png,l,1,030,001,2021-04-24_15h49.27.553,searchDisc4,2020.2.10,Win32,60,,,space,0.319085,1,1,0.62199,,0,425,425,562,1,2c,106,3,1,
,,,,,,,,,,,,,,,,,,,,,,,,,,images/exp1a_trial_15_colour3_distractors19_r.png,r,2,030,001,2021-04-24_15h49.27.553,searchDisc4,2020.2.10,Win32,60,,,space,0.29929,2,1,0.47721,,0,426,426,15,1,1a,15,3,19,
,,,,,,,,,,,,,,,,,,,,,,,,,,images/exp1b_trial_94_colour1_distractors1_l.png,l,1,030,001,2021-04-24_15h49.27.553,searchDisc4,2020.2.10,Win32,60,,,space,0.319,1,1,0.595915,,0,427,427,208,1,1b,94,1,1,
,,,,,,,,,,,,,,,,,,,,,,,,,,images/exp2a_trial_15_colour3_distractors19_r.png,r,2,030,001,2021-04-24_15h49.27.553,searchDisc4,2020.2.10,Win32,60,,,space,0.216645,2,1,0.48026,,0,428,428,243,1,2a,15,3,19,
,,,,,,,,,,,,,,,,,,,,,,,,,,images/exp1a_trial_77_colour1_distractors4_r.png,r,2,030,001,2021-04-24_15h49.27.553,searchDisc4,2020.2.10,Win32,60,,,space,0.299935,2,1,0.664225,,0,429,429,77,1,1a,77,1,4,
,,,,,,,,,,,,,,,,,,,,,,,,,,images/exp1a_trial_20_colour1_distractors9_l.png,l,1,030,001,2021-04-24_15h49.27.553,searchDisc4,2020.2.10,Win32,60,,,space,0.249355,1,1,0.4959,,0,430,430,20,1,1a,20,1,9,
,,,,,,,,,,,,,,,,,,,,,,,,,,images/exp1a_trial_25_colour2_distractors4_l.png,l,1,030,001,2021-04-24_15h49.27.553,searchDisc4,2020.2.10,Win32,60,,,space,0.32154,1,1,0.687555,,0,431,431,25,1,1a,25,2,4,
,,,,,,,,,,,,,,,,,,,,,,,,,,images/exp1a_trial_7_colour2_distractors4_r.png,r,2,030,001,2021-04-24_15h49.27.553,searchDisc4,2020.2.10,Win32,60,,,space,0.240395,2,1,0.52056,,0,432,432,7,1,1a,7,2,4,
,,,,,,,,,,,,,,,,,,,,,,,,,,images/exp2a_trial_80_colour1_distractors31_r.png,r,2,030,001,2021-04-24_15h49.27.553,searchDisc4,2020.2.10,Win32,60,,,space,0.31952,2,1,0.528545,,0,433,433,308,1,2a,80,1,31,
,,,,,,,,,,,,,,,,,,,,,,,,,,images/exp1a_trial_57_colour1_distractors4_l.png,l,1,030,001,2021-04-24_15h49.27.553,searchDisc4,2020.2.10,Win32,60,,,space,0.29158,1,1,0.49538,,0,434,434,57,1,1a,57,1,4,
,,,,,,,,,,,,,,,,,,,,,,,,,,images/exp1a_trial_81_colour1_distractors43_r.png,r,2,030,001,2021-04-24_15h49.27.553,searchDisc4,2020.2.10,Win32,60,,,space,0.31587,2,1,0.510585,,0,435,435,81,1,1a,81,1,43,
,,,,,,,,,,,,,,,,,,,,,,,,,,images/exp2b_trial_79_colour1_distractors19_r.png,r,2,030,001,2021-04-24_15h49.27.553,searchDisc4,2020.2.10,Win32,60,,,space,0.319055,2,1,0.61209,,0,436,436,421,1,2b,79,1,19,
,,,,,,,,,,,,,,,,,,,,,,,,,,images/exp1a_trial_0_colour1_distractors1_r.png,r,2,030,001,2021-04-24_15h49.27.553,searchDisc4,2020.2.10,Win32,60,,,space,0.287545,2,1,0.58106,,0,437,437,0,1,1a,0,1,1,
,,,,,,,,,,,,,,,,,,,,,,,,,,images/exp2a_trial_74_colour0_distractors0_r.png,r,2,030,001,2021-04-24_15h49.27.553,searchDisc4,2020.2.10,Win32,60,,,space,0.251235,2,1,0.497865,,0,438,438,302,1,2a,74,0,0,
,,,,,,,,,,,,,,,,,,,,,,,,,,images/exp2a_trial_48_colour2_distractors31_r.png,r,2,030,001,2021-04-24_15h49.27.553,searchDisc4,2020.2.10,Win32,60,,,space,0.31576,2,1,0.511,,0,439,439,276,1,2a,48,2,31,
,,,,,,,,,,,,,,,,,,,,,,,,,,images/exp2a_trial_67_colour2_distractors43_l.png,l,1,030,001,2021-04-24_15h49.27.553,searchDisc4,2020.2.10,Win32,60,,,space,0.300065,1,1,0.468215,,0,440,440,295,1,2a,67,2,43,
,,,,,,,,,,,,,,,,,,,,,,,,,,images/exp2a_trial_0_colour1_distractors1_r.png,r,2,030,001,2021-04-24_15h49.27.553,searchDisc4,2020.2.10,Win32,60,,,space,0.232425,2,1,0.552755,,0,441,441,228,1,2a,0,1,1,
,,,,,,,,,,,,,,,,,,,,,,,,,,images/exp1a_trial_13_colour3_distractors4_r.png,r,2,030,001,2021-04-24_15h49.27.553,searchDisc4,2020.2.10,Win32,60,,,space,0.28579,2,1,0.533315,,0,442,442,13,1,1a,13,3,4,
,,,,,,,,,,,,,,,,,,,,,,,,,,images/exp2a_trial_17_colour3_distractors43_r.png,r,2,030,001,2021-04-24_15h49.27.553,searchDisc4,2020.2.10,Win32,60,,,space,0.28271,2,1,0.51917,,0,443,443,245,1,2a,17,3,43,
,,,,,,,,,,,,,,,,,,,,,,,,,,images/exp2c_trial_92_colour3_distractors31_r.png,r,2,030,001,2021-04-24_15h49.27.553,searchDisc4,2020.2.10,Win32,60,,,space,0.321065,2,1,0.544415,,0,444,444,548,1,2c,92,3,31,
,,,,,,,,,,,,,,,,,,,,,,,,,,images/exp1b_trial_54_colour3_distractors31_r.png,r,2,030,001,2021-04-24_15h49.27.553,searchDisc4,2020.2.10,Win32,60,,,space,0.26062,2,1,1.743955,,0,445,445,168,1,1b,54,3,31,
,,,,,,,,,,,,,,,,,,,,,,,,,,images/exp2a_trial_68_colour3_distractors1_l.png,l,1,030,001,2021-04-24_15h49.27.553,searchDisc4,2020.2.10,Win32,60,,,space,0.2024,1,1,0.67722,,0,446,446,296,1,2a,68,3,1,
,,,,,,,,,,,,,,,,,,,,,,,,,,images/exp1b_trial_81_colour1_distractors43_r.png,r,2,030,001,2021-04-24_15h49.27.553,searchDisc4,2020.2.10,Win32,60,,,space,0.285155,2,1,0.586475,,0,447,447,195,1,1b,81,1,43,
,,,,,,,,,,,,,,,,,,,,,,,,,,images/exp1a_trial_99_colour1_distractors43_l.png,l,1,030,001,2021-04-24_15h49.27.553,searchDisc4,2020.2.10,Win32,60,,,space,0.282535,1,1,0.56486,,0,448,448,99,1,1a,99,1,43,
,,,,,,,,,,,,,,,,,,,,,,,,,,images/exp2a_trial_56_colour1_distractors1_l.png,l,1,030,001,2021-04-24_15h49.27.553,searchDisc4,2020.2.10,Win32,60,,,space,0.31665,1,1,0.570905,,0,449,449,284,1,2a,56,1,1,
,,,,,,,,,,,,,,,,,,,,,,,,,,images/exp1a_trial_46_colour2_distractors9_r.png,r,2,030,001,2021-04-24_15h49.27.553,searchDisc4,2020.2.10,Win32,60,,,space,0.25005,2,1,0.561815,,0,450,450,46,1,1a,46,2,9,
,,,,,,,,,,,,,,,,,,,,,,,,,,images/exp2a_trial_95_colour1_distractors4_l.png,l,1,030,001,2021-04-24_15h49.27.553,searchDisc4,2020.2.10,Win32,60,,,space,0.27643,1,1,0.515805,,0,451,451,323,1,2a,95,1,4,
,,,,,,,,,,,,,,,,,,,,,,,,,,images/exp2a_trial_65_colour2_distractors19_l.png,l,1,030,001,2021-04-24_15h49.27.553,searchDisc4,2020.2.10,Win32,60,,,space,0.29124,1,1,0.632875,,0,452,452,293,1,2a,65,2,19,
,,,,,,,,,,,,,,,,,,,,,,,,,,images/exp1b_trial_67_colour2_distractors43_l.png,l,1,030,001,2021-04-24_15h49.27.553,searchDisc4,2020.2.10,Win32,60,,,space,0.26079,1,1,0.68301,,0,453,453,181,1,1b,67,2,43,
,,,,,,,,,,,,,,,,,,,,,,,,,,images/exp2b_trial_20_colour1_distractors9_l.png,l,1,030,001,2021-04-24_15h49.27.553,searchDisc4,2020.2.10,Win32,60,,,space,0.53318,1,1,0.7301,,0,454,454,362,1,2b,20,1,9,
,,,,,,,,,,,,,,,,,,,,,,,,,,images/exp2c_trial_1_colour1_distractors4_r.png,r,2,030,001,2021-04-24_15h49.27.553,searchDisc4,2020.2.10,Win32,60,,,space,0.376305,2,1,0.462815,,0,455,455,457,1,2c,1,1,4,
,,,,,,,,,,,,,,,,,,,,,,,,,,images/exp2b_trial_82_colour2_distractors1_r.png,r,2,030,001,2021-04-24_15h49.27.553,searchDisc4,2020.2.10,Win32,60,,,space,0.35728,2,1,1.028515,,0,456,456,424,1,2b,82,2,1,
,,,,,,,,,,,,,,,,,,,,,,,,,,images/exp2c_trial_12_colour3_distractors1_r.png,r,2,030,001,2021-04-24_15h49.27.553,searchDisc4,2020.2.10,Win32,60,,,space,0.339775,2,1,0.70335,,0,457,457,468,1,2c,12,3,1,
,,,,,,,,,,,,,,,,,,,,,,,,,,images/exp2b_trial_97_colour1_distractors19_l.png,l,1,030,001,2021-04-24_15h49.27.553,searchDisc4,2020.2.10,Win32,60,,,space,0.27242,1,1,0.44443,,0,458,458,439,1,2b,97,1,19,
,,,,,,,,,,,,,,,,,,,,,,,,,,images/exp2b_trial_90_colour3_distractors9_r.png,r,2,030,001,2021-04-24_15h49.27.553,searchDisc4,2020.2.10,Win32,60,,,space,0.369765,2,1,0.685885,,0,459,459,432,1,2b,90,3,9,
,,,,,,,,,,,,,,,,,,,,,,,,,,images/exp2c_trial_47_colour2_distractors19_r.png,r,2,030,001,2021-04-24_15h49.27.553,searchDisc4,2020.2.10,Win32,60,,,space,0.28245,2,1,0.49528,,0,460,460,503,1,2c,47,2,19,
,,,,,,,,,,,,,,,,,,,,,,,,,,images/exp2b_trial_56_colour1_distractors1_l.png,l,1,030,001,2021-04-24_15h49.27.553,searchDisc4,2020.2.10,Win32,60,,,space,0.32502,1,1,0.497925,,0,461,461,398,1,2b,56,1,1,
,,,,,,,,,,,,,,,,,,,,,,,,,,images/exp2b_trial_52_colour3_distractors9_r.png,r,2,030,001,2021-04-24_15h49.27.553,searchDisc4,2020.2.10,Win32,60,,,space,0.241825,2,1,0.651215,,0,462,462,394,1,2b,52,3,9,
,,,,,,,,,,,,,,,,,,,,,,,,,,images/exp2b_trial_17_colour3_distractors43_r.png,r,2,030,001,2021-04-24_15h49.27.553,searchDisc4,2020.2.10,Win32,60,,,space,0.260425,2,1,0.528895,,0,463,463,359,1,2b,17,3,43,
,,,,,,,,,,,,,,,,,,,,,,,,,,images/exp1b_trial_84_colour2_distractors9_r.png,r,2,030,001,2021-04-24_15h49.27.553,searchDisc4,2020.2.10,Win32,60,,,space,0.27511,2,1,0.76197,,0,464,464,198,1,1b,84,2,9,
,,,,,,,,,,,,,,,,,,,,,,,,,,images/exp2a_trial_101_colour2_distractors4_l.png,l,1,030,001,2021-04-24_15h49.27.553,searchDisc4,2020.2.10,Win32,60,,,space,0.23972,1,1,0.45684,,0,465,465,329,1,2a,101,2,4,
,,,,,,,,,,,,,,,,,,,,,,,,,,images/exp1a_trial_80_colour1_distractors31_r.png,r,2,030,001,2021-04-24_15h49.27.553,searchDisc4,2020.2.10,Win32,60,,,space,0.299105,2,1,0.48767,,0,466,466,80,1,1a,80,1,31,
,,,,,,,,,,,,,,,,,,,,,,,,,,images/exp2a_trial_35_colour3_distractors43_l.png,l,1,030,001,2021-04-24_15h49.27.553,searchDisc4,2020.2.10,Win32,60,,,space,0.24917,1,1,0.502645,,0,467,467,263,1,2a,35,3,43,
,,,,,,,,,,,,,,,,,,,,,,,,,,images/exp2b_trial_93_colour3_distractors43_r.png,r,2,030,001,2021-04-24_15h49.27.553,searchDisc4,2020.2.10,Win32,60,,,space,0.266605,2,1,0.432995,,0,468,468,435,1,2b,93,3,43,
,,,,,,,,,,,,,,,,,,,,,,,,,,images/exp1b_trial_106_colour3_distractors1_l.png,l,1,030,001,2021-04-24_15h49.27.553,searchDisc4,2020.2.10,Win32,60,,,space,0.235085,1,1,0.52921,,0,469,469,220,1,1b,106,3,1,
,,,,,,,,,,,,,,,,,,,,,,,,,,images/exp2a_trial_105_colour2_distractors43_l.png,l,1,030,001,2021-04-24_15h49.27.553,searchDisc4,2020.2.10,Win32,60,,,space,0.24273,2,0,0.53025,,0,470,470,333,1,2a,105,2,43,
,,,,,,,,,,,,,,,,,,,,,,,,,,images/exp2a_trial_11_colour2_distractors43_r.png,r,2,030,001,2021-04-24_15h49.27.553,searchDisc4,2020.2.10,Win32,60,,,space,0.442025,2,1,0.529075,,0,471,471,239,1,2a,11,2,43,
,,,,,,,,,,,,,,,,,,,,,,,,,,images/exp2a_trial_9_colour2_distractors19_r.png,r,2,030,001,2021-04-24_15h49.27.553,searchDisc4,2020.2.10,Win32,60,,,space,0.24133,2,1,0.703535,,0,472,472,237,1,2a,9,2,19,
,,,,,,,,,,,,,,,,,,,,,,,,,,images/exp1b_trial_113_colour0_distractors0_l.png,l,1,030,001,2021-04-24_15h49.27.553,searchDisc4,2020.2.10,Win32,60,,,space,0.354,1,1,0.54565,,0,473,473,227,1,1b,113,0,0,
,,,,,,,,,,,,,,,,,,,,,,,,,,images/exp2b_trial_57_colour1_distractors4_l.png,l,1,030,001,2021-04-24_15h49.27.553,searchDisc4,2020.2.10,Win32,60,,,space,0.26021,1,1,1.18881,,0,474,474,399,1,2b,57,1,4,
,,,,,,,,,,,,,,,,,,,,,,,,,,images/exp2a_trial_24_colour2_distractors1_l.png,l,1,030,001,2021-04-24_15h49.27.553,searchDisc4,2020.2.10,Win32,60,,,space,0.200585,1,1,0.700075,,0,475,475,252,1,2a,24,2,1,
,,,,,,,,,,,,,,,,,,,,,,,,,,images/exp1b_trial_16_colour3_distractors31_r.png,r,2,030,001,2021-04-24_15h49.27.553,searchDisc4,2020.2.10,Win32,60,,,space,0.13248,,0,,,0,476,476,130,1,1b,16,3,31,
