X Scale,Y Scale,key_resp_10.keys,key_resp_10.rt,key_resp_11.keys,key_resp_11.rt,key_resp_12.keys,key_resp_12.rt,key_resp_13.keys,key_resp_13.rt,key_resp_5.keys,key_resp_5.rt,key_resp_8.keys,key_resp_8.rt,key_resp_6.keys,key_resp_6.rt,key_resp_7.keys,key_resp_7.rt,key_resp_4.keys,key_resp_4.corr,key_resp_4.rt,trials_2.thisRepN,trials_2.thisTrialN,trials_2.thisN,trials_2.thisIndex,trials_2.ran,ImageFile,targ_side,correctAnswer,participant,session,date,expName,psychopyVersion,OS,frameRate,key_resp_3.keys,key_resp_3.rt,key_resp_9.keys,key_resp_9.rt,key_resp_2.keys,key_resp_2.corr,key_resp_2.rt,key_resp.keys,trials.thisRepN,trials.thisTrialN,trials.thisN,trials.thisIndex,trials.ran,exp,trial,colour,distNo,key_resp.rt
37.8,38.9,space,2.922,space,2.38,space,0.714,space,0.554,space,1.086,space,0.733,space,0.481,space,1.077,2,1,0.723,0,0,0,2,1,Practice arrays/exp1a_trial_5_colour1_distractors43_r.png,r,2,030,001,2021-04-26_12h22.18.381,searchDisc4,2020.2.10,MacIntel,60,,,,,,,,,,,,,,,,,,
,,,,,,,,,,,,,,,,space,0.505,2,1,0.538,0,1,1,6,1,Practice arrays/exp1a_trial_12_colour3_distractors1_r.png,r,2,030,001,2021-04-26_12h22.18.381,searchDisc4,2020.2.10,MacIntel,60,,,,,,,,,,,,,,,,,,
,,,,,,,,,,,,,,,,space,0.216,1,1,0.573,0,2,2,9,1,Practice arrays/exp1a_trial_19_colour1_distractors4_l.png,l,1,030,001,2021-04-26_12h22.18.381,searchDisc4,2020.2.10,MacIntel,60,,,,,,,,,,,,,,,,,,
,,,,,,,,,,,,,,,,space,0.401,2,1,0.543,0,3,3,7,1,Practice arrays/exp1a_trial_13_colour3_distractors4_r.png,r,2,030,001,2021-04-26_12h22.18.381,searchDisc4,2020.2.10,MacIntel,60,,,,,,,,,,,,,,,,,,
,,,,,,,,,,,,,,,,space,1.372,2,1,0.573,0,4,4,4,1,Practice arrays/exp1a_trial_8_colour2_distractors9_r.png,r,2,030,001,2021-04-26_12h22.18.381,searchDisc4,2020.2.10,MacIntel,60,,,,,,,,,,,,,,,,,,
,,,,,,,,,,,,,,,,space,1.033,1,1,0.727,0,5,5,10,1,Practice arrays/exp1a_trial_20_colour1_distractors9_l.png,l,1,030,001,2021-04-26_12h22.18.381,searchDisc4,2020.2.10,MacIntel,60,,,,,,,,,,,,,,,,,,
,,,,,,,,,,,,,,,,space,0.601,1,1,0.671,0,6,6,12,1,Practice arrays/exp1a_trial_25_colour2_distractors4_l.png,l,1,030,001,2021-04-26_12h22.18.381,searchDisc4,2020.2.10,MacIntel,60,,,,,,,,,,,,,,,,,,
,,,,,,,,,,,,,,,,space,0.415,2,1,0.609,0,7,7,3,1,Practice arrays/exp1a_trial_7_colour2_distractors4_r.png,r,2,030,001,2021-04-26_12h22.18.381,searchDisc4,2020.2.10,MacIntel,60,,,,,,,,,,,,,,,,,,
,,,,,,,,,,,,,,,,space,0.483,1,1,0.562,0,8,8,14,1,Practice arrays/exp1a_trial_29_colour2_distractors43_l.png,l,1,030,001,2021-04-26_12h22.18.381,searchDisc4,2020.2.10,MacIntel,60,,,,,,,,,,,,,,,,,,
,,,,,,,,,,,,,,,,space,0.58,1,1,0.631,0,9,9,19,1,Practice arrays/exp1a_trial_37_colour0_distractors0_l.png,l,1,030,001,2021-04-26_12h22.18.381,searchDisc4,2020.2.10,MacIntel,60,,,,,,,,,,,,,,,,,,
,,,,,,,,,,,,,,,,space,0.503,1,1,0.662,0,10,10,13,1,Practice arrays/exp1a_trial_28_colour2_distractors31_l.png,l,1,030,001,2021-04-26_12h22.18.381,searchDisc4,2020.2.10,MacIntel,60,,,,,,,,,,,,,,,,,,
,,,,,,,,,,,,,,,,space,0.534,2,1,0.63,0,11,11,1,1,Practice arrays/exp1a_trial_3_colour1_distractors19_r.png,r,2,030,001,2021-04-26_12h22.18.381,searchDisc4,2020.2.10,MacIntel,60,,,,,,,,,,,,,,,,,,
,,,,,,,,,,,,,,,,space,0.467,2,1,0.659,0,12,12,8,1,Practice arrays/exp1a_trial_16_colour3_distractors31_r.png,r,2,030,001,2021-04-26_12h22.18.381,searchDisc4,2020.2.10,MacIntel,60,,,,,,,,,,,,,,,,,,
,,,,,,,,,,,,,,,,space,0.435,1,1,0.637,0,13,13,11,1,Practice arrays/exp1a_trial_21_colour1_distractors19_l.png,l,1,030,001,2021-04-26_12h22.18.381,searchDisc4,2020.2.10,MacIntel,60,,,,,,,,,,,,,,,,,,
,,,,,,,,,,,,,,,,space,0.434,2,1,0.613,0,14,14,5,1,Practice arrays/exp1a_trial_10_colour2_distractors31_r.png,r,2,030,001,2021-04-26_12h22.18.381,searchDisc4,2020.2.10,MacIntel,60,,,,,,,,,,,,,,,,,,
,,,,,,,,,,,,,,,,space,0.407,2,1,0.605,0,15,15,0,1,Practice arrays/exp1a_trial_0_colour1_distractors1_r.png,r,2,030,001,2021-04-26_12h22.18.381,searchDisc4,2020.2.10,MacIntel,60,,,,,,,,,,,,,,,,,,
,,,,,,,,,,,,,,,,space,0.368,1,1,0.64,0,16,16,16,1,Practice arrays/exp1a_trial_33_colour3_distractors19_l.png,l,1,030,001,2021-04-26_12h22.18.381,searchDisc4,2020.2.10,MacIntel,60,,,,,,,,,,,,,,,,,,
,,,,,,,,,,,,,,,,space,0.134,1,1,0.622,0,17,17,15,1,Practice arrays/exp1a_trial_32_colour3_distractors9_l.png,l,1,030,001,2021-04-26_12h22.18.381,searchDisc4,2020.2.10,MacIntel,60,,,,,,,,,,,,,,,,,,
,,,,,,,,,,,,,,,,space,0.335,2,1,0.539,0,18,18,18,1,Practice arrays/exp1a_trial_36_colour0_distractors0_r.png,r,2,030,001,2021-04-26_12h22.18.381,searchDisc4,2020.2.10,MacIntel,60,,,,,,,,,,,,,,,,,,
,,,,,,,,,,,,,,,,space,0.233,1,1,0.631,0,19,19,17,1,Practice arrays/exp1a_trial_35_colour3_distractors43_l.png,l,1,030,001,2021-04-26_12h22.18.381,searchDisc4,2020.2.10,MacIntel,60,,,,,,,,,,,,,,,,,,
,,,,,,,,,,,,,,,,,,,,,,,,,,images/exp2c_trial_74_colour0_distractors0_r.png,r,2,030,001,2021-04-26_12h22.18.381,searchDisc4,2020.2.10,MacIntel,60,space,5.735,space,1.246,2,1,0.571,,0,0,0,530,1,2c,74,0,0,
,,,,,,,,,,,,,,,,,,,,,,,,,,images/exp1b_trial_17_colour3_distractors43_r.png,r,2,030,001,2021-04-26_12h22.18.381,searchDisc4,2020.2.10,MacIntel,60,,,space,0.596,1,0,1.265,,0,1,1,131,1,1b,17,3,43,
,,,,,,,,,,,,,,,,,,,,,,,,,,images/exp1b_trial_69_colour3_distractors4_l.png,l,1,030,001,2021-04-26_12h22.18.381,searchDisc4,2020.2.10,MacIntel,60,,,space,0.469,1,1,0.637,,0,2,2,183,1,1b,69,3,4,
,,,,,,,,,,,,,,,,,,,,,,,,,,images/exp2c_trial_79_colour1_distractors19_r.png,r,2,030,001,2021-04-26_12h22.18.381,searchDisc4,2020.2.10,MacIntel,60,,,space,0.345,2,1,0.589,,0,3,3,535,1,2c,79,1,19,
,,,,,,,,,,,,,,,,,,,,,,,,,,images/exp2b_trial_87_colour2_distractors43_r.png,r,2,030,001,2021-04-26_12h22.18.381,searchDisc4,2020.2.10,MacIntel,60,,,space,0.364,2,1,0.664,,0,4,4,429,1,2b,87,2,43,
,,,,,,,,,,,,,,,,,,,,,,,,,,images/exp2c_trial_80_colour1_distractors31_r.png,r,2,030,001,2021-04-26_12h22.18.381,searchDisc4,2020.2.10,MacIntel,60,,,space,0.377,2,1,0.509,,0,5,5,536,1,2c,80,1,31,
,,,,,,,,,,,,,,,,,,,,,,,,,,images/exp2b_trial_30_colour3_distractors1_l.png,l,1,030,001,2021-04-26_12h22.18.381,searchDisc4,2020.2.10,MacIntel,60,,,space,0.33,1,1,0.559,,0,6,6,372,1,2b,30,3,1,
,,,,,,,,,,,,,,,,,,,,,,,,,,images/exp1b_trial_6_colour2_distractors1_r.png,r,2,030,001,2021-04-26_12h22.18.381,searchDisc4,2020.2.10,MacIntel,60,,,space,0.403,2,1,0.507,,0,7,7,120,1,1b,6,2,1,
,,,,,,,,,,,,,,,,,,,,,,,,,,images/exp2c_trial_19_colour1_distractors4_l.png,l,1,030,001,2021-04-26_12h22.18.381,searchDisc4,2020.2.10,MacIntel,60,,,space,0.303,1,1,0.565,,0,8,8,475,1,2c,19,1,4,
,,,,,,,,,,,,,,,,,,,,,,,,,,images/exp2b_trial_16_colour3_distractors31_r.png,r,2,030,001,2021-04-26_12h22.18.381,searchDisc4,2020.2.10,MacIntel,60,,,space,0.331,2,1,0.812,,0,9,9,358,1,2b,16,3,31,
,,,,,,,,,,,,,,,,,,,,,,,,,,images/exp1b_trial_88_colour3_distractors1_r.png,r,2,030,001,2021-04-26_12h22.18.381,searchDisc4,2020.2.10,MacIntel,60,,,space,0.146,2,1,0.59,,0,10,10,202,1,1b,88,3,1,
,,,,,,,,,,,,,,,,,,,,,,,,,,images/exp1b_trial_91_colour3_distractors19_r.png,r,2,030,001,2021-04-26_12h22.18.381,searchDisc4,2020.2.10,MacIntel,60,,,space,0.396,2,1,0.963,,0,11,11,205,1,1b,91,3,19,
,,,,,,,,,,,,,,,,,,,,,,,,,,images/exp2a_trial_107_colour3_distractors4_l.png,l,1,030,001,2021-04-26_12h22.18.381,searchDisc4,2020.2.10,MacIntel,60,,,space,0.303,1,1,0.614,,0,12,12,335,1,2a,107,3,4,
,,,,,,,,,,,,,,,,,,,,,,,,,,images/exp1b_trial_82_colour2_distractors1_r.png,r,2,030,001,2021-04-26_12h22.18.381,searchDisc4,2020.2.10,MacIntel,60,,,space,0.365,2,1,0.581,,0,13,13,196,1,1b,82,2,1,
,,,,,,,,,,,,,,,,,,,,,,,,,,images/exp2a_trial_97_colour1_distractors19_l.png,l,1,030,001,2021-04-26_12h22.18.381,searchDisc4,2020.2.10,MacIntel,60,,,space,0.307,1,1,0.595,,0,14,14,325,1,2a,97,1,19,
,,,,,,,,,,,,,,,,,,,,,,,,,,images/exp2c_trial_21_colour1_distractors19_l.png,l,1,030,001,2021-04-26_12h22.18.381,searchDisc4,2020.2.10,MacIntel,60,,,space,0.307,1,1,0.622,,0,15,15,477,1,2c,21,1,19,
,,,,,,,,,,,,,,,,,,,,,,,,,,images/exp2a_trial_41_colour1_distractors19_r.png,r,2,030,001,2021-04-26_12h22.18.381,searchDisc4,2020.2.10,MacIntel,60,,,space,0.333,2,1,0.634,,0,16,16,269,1,2a,41,1,19,
,,,,,,,,,,,,,,,,,,,,,,,,,,images/exp2c_trial_60_colour1_distractors31_l.png,l,1,030,001,2021-04-26_12h22.18.381,searchDisc4,2020.2.10,MacIntel,60,,,space,0.329,1,1,0.65,,0,17,17,516,1,2c,60,1,31,
,,,,,,,,,,,,,,,,,,,,,,,,,,images/exp1b_trial_101_colour2_distractors4_l.png,l,1,030,001,2021-04-26_12h22.18.381,searchDisc4,2020.2.10,MacIntel,60,,,space,0.313,1,1,0.622,,0,18,18,215,1,1b,101,2,4,
,,,,,,,,,,,,,,,,,,,,,,,,,,images/exp2c_trial_78_colour1_distractors9_r.png,r,2,030,001,2021-04-26_12h22.18.381,searchDisc4,2020.2.10,MacIntel,60,,,space,0.344,2,1,0.644,,0,19,19,534,1,2c,78,1,9,
,,,,,,,,,,,,,,,,,,,,,,,,,,images/exp1b_trial_65_colour2_distractors19_l.png,l,1,030,001,2021-04-26_12h22.18.381,searchDisc4,2020.2.10,MacIntel,60,,,space,0.363,1,1,0.663,,0,20,20,179,1,1b,65,2,19,
,,,,,,,,,,,,,,,,,,,,,,,,,,images/exp2a_trial_77_colour1_distractors4_r.png,r,2,030,001,2021-04-26_12h22.18.381,searchDisc4,2020.2.10,MacIntel,60,,,space,0.313,2,1,0.52,,0,21,21,305,1,2a,77,1,4,
,,,,,,,,,,,,,,,,,,,,,,,,,,images/exp2a_trial_3_colour1_distractors19_r.png,r,2,030,001,2021-04-26_12h22.18.381,searchDisc4,2020.2.10,MacIntel,60,,,space,0.429,2,1,0.563,,0,22,22,231,1,2a,3,1,19,
,,,,,,,,,,,,,,,,,,,,,,,,,,images/exp1a_trial_19_colour1_distractors4_l.png,l,1,030,001,2021-04-26_12h22.18.381,searchDisc4,2020.2.10,MacIntel,60,,,space,0.365,1,1,0.623,,0,23,23,19,1,1a,19,1,4,
,,,,,,,,,,,,,,,,,,,,,,,,,,images/exp2b_trial_82_colour2_distractors1_r.png,r,2,030,001,2021-04-26_12h22.18.381,searchDisc4,2020.2.10,MacIntel,60,,,space,0.436,1,0,0.578,,0,24,24,424,1,2b,82,2,1,
,,,,,,,,,,,,,,,,,,,,,,,,,,images/exp2c_trial_73_colour3_distractors43_l.png,l,1,030,001,2021-04-26_12h22.18.381,searchDisc4,2020.2.10,MacIntel,60,,,space,0.431,1,1,0.679,,0,25,25,529,1,2c,73,3,43,
,,,,,,,,,,,,,,,,,,,,,,,,,,images/exp1b_trial_64_colour2_distractors9_l.png,l,1,030,001,2021-04-26_12h22.18.381,searchDisc4,2020.2.10,MacIntel,60,,,space,0.272,1,1,0.641,,0,26,26,178,1,1b,64,2,9,
,,,,,,,,,,,,,,,,,,,,,,,,,,images/exp1b_trial_2_colour1_distractors9_r.png,r,2,030,001,2021-04-26_12h22.18.381,searchDisc4,2020.2.10,MacIntel,60,,,space,0.371,2,1,0.541,,0,27,27,116,1,1b,2,1,9,
,,,,,,,,,,,,,,,,,,,,,,,,,,images/exp2b_trial_27_colour2_distractors19_l.png,l,1,030,001,2021-04-26_12h22.18.381,searchDisc4,2020.2.10,MacIntel,60,,,space,0.364,1,1,0.579,,0,28,28,369,1,2b,27,2,19,
,,,,,,,,,,,,,,,,,,,,,,,,,,images/exp2c_trial_11_colour2_distractors43_r.png,r,2,030,001,2021-04-26_12h22.18.381,searchDisc4,2020.2.10,MacIntel,60,,,space,0.371,2,1,0.552,,0,29,29,467,1,2c,11,2,43,
,,,,,,,,,,,,,,,,,,,,,,,,,,images/exp2a_trial_96_colour1_distractors9_l.png,l,1,030,001,2021-04-26_12h22.18.381,searchDisc4,2020.2.10,MacIntel,60,,,space,0.331,1,1,0.557,,0,30,30,324,1,2a,96,1,9,
,,,,,,,,,,,,,,,,,,,,,,,,,,images/exp2a_trial_40_colour1_distractors9_r.png,r,2,030,001,2021-04-26_12h22.18.381,searchDisc4,2020.2.10,MacIntel,60,,,space,0.335,2,1,0.518,,0,31,31,268,1,2a,40,1,9,
,,,,,,,,,,,,,,,,,,,,,,,,,,images/exp1a_trial_76_colour1_distractors1_r.png,r,2,030,001,2021-04-26_12h22.18.381,searchDisc4,2020.2.10,MacIntel,60,,,space,0.376,1,0,0.777,,0,32,32,76,1,1a,76,1,1,
,,,,,,,,,,,,,,,,,,,,,,,,,,images/exp2b_trial_76_colour1_distractors1_r.png,r,2,030,001,2021-04-26_12h22.18.381,searchDisc4,2020.2.10,MacIntel,60,,,space,0.432,2,1,0.519,,0,33,33,418,1,2b,76,1,1,
,,,,,,,,,,,,,,,,,,,,,,,,,,images/exp1a_trial_36_colour0_distractors0_r.png,r,2,030,001,2021-04-26_12h22.18.381,searchDisc4,2020.2.10,MacIntel,60,,,space,0.397,2,1,0.572,,0,34,34,36,1,1a,36,0,0,
,,,,,,,,,,,,,,,,,,,,,,,,,,images/exp1b_trial_111_colour3_distractors43_l.png,l,1,030,001,2021-04-26_12h22.18.381,searchDisc4,2020.2.10,MacIntel,60,,,space,0.33,1,1,0.766,,0,35,35,225,1,1b,111,3,43,
,,,,,,,,,,,,,,,,,,,,,,,,,,images/exp1a_trial_2_colour1_distractors9_r.png,r,2,030,001,2021-04-26_12h22.18.381,searchDisc4,2020.2.10,MacIntel,60,,,space,0.331,2,1,0.543,,0,36,36,2,1,1a,2,1,9,
,,,,,,,,,,,,,,,,,,,,,,,,,,images/exp1a_trial_81_colour1_distractors43_r.png,r,2,030,001,2021-04-26_12h22.18.381,searchDisc4,2020.2.10,MacIntel,60,,,space,0.366,2,1,0.584,,0,37,37,81,1,1a,81,1,43,
,,,,,,,,,,,,,,,,,,,,,,,,,,images/exp1a_trial_68_colour3_distractors1_l.png,l,1,030,001,2021-04-26_12h22.18.381,searchDisc4,2020.2.10,MacIntel,60,,,space,0.365,1,1,0.574,,0,38,38,68,1,1a,68,3,1,
,,,,,,,,,,,,,,,,,,,,,,,,,,images/exp1a_trial_77_colour1_distractors4_r.png,r,2,030,001,2021-04-26_12h22.18.381,searchDisc4,2020.2.10,MacIntel,60,,,space,0.397,2,1,0.514,,0,39,39,77,1,1a,77,1,4,
,,,,,,,,,,,,,,,,,,,,,,,,,,images/exp1b_trial_100_colour2_distractors1_l.png,l,1,030,001,2021-04-26_12h22.18.381,searchDisc4,2020.2.10,MacIntel,60,,,space,0.465,1,1,0.605,,0,40,40,214,1,1b,100,2,1,
,,,,,,,,,,,,,,,,,,,,,,,,,,images/exp2a_trial_60_colour1_distractors31_l.png,l,1,030,001,2021-04-26_12h22.18.381,searchDisc4,2020.2.10,MacIntel,60,,,space,0.382,1,1,0.696,,0,41,41,288,1,2a,60,1,31,
,,,,,,,,,,,,,,,,,,,,,,,,,,images/exp2a_trial_81_colour1_distractors43_r.png,r,2,030,001,2021-04-26_12h22.18.381,searchDisc4,2020.2.10,MacIntel,60,,,space,0.306,2,1,0.604,,0,42,42,309,1,2a,81,1,43,
,,,,,,,,,,,,,,,,,,,,,,,,,,images/exp2c_trial_45_colour2_distractors4_r.png,r,2,030,001,2021-04-26_12h22.18.381,searchDisc4,2020.2.10,MacIntel,60,,,space,0.331,2,1,0.629,,0,43,43,501,1,2c,45,2,4,
,,,,,,,,,,,,,,,,,,,,,,,,,,images/exp2c_trial_96_colour1_distractors9_l.png,l,1,030,001,2021-04-26_12h22.18.381,searchDisc4,2020.2.10,MacIntel,60,,,space,0.331,1,1,0.61,,0,44,44,552,1,2c,96,1,9,
,,,,,,,,,,,,,,,,,,,,,,,,,,images/exp2c_trial_101_colour2_distractors4_l.png,l,1,030,001,2021-04-26_12h22.18.381,searchDisc4,2020.2.10,MacIntel,60,,,space,0.301,1,1,0.651,,0,45,45,557,1,2c,101,2,4,
,,,,,,,,,,,,,,,,,,,,,,,,,,images/exp1b_trial_59_colour1_distractors19_l.png,l,1,030,001,2021-04-26_12h22.18.381,searchDisc4,2020.2.10,MacIntel,60,,,space,0.307,1,1,0.962,,0,46,46,173,1,1b,59,1,19,
,,,,,,,,,,,,,,,,,,,,,,,,,,images/exp1a_trial_34_colour3_distractors31_l.png,l,1,030,001,2021-04-26_12h22.18.381,searchDisc4,2020.2.10,MacIntel,60,,,space,0.307,1,1,0.649,,0,47,47,34,1,1a,34,3,31,
,,,,,,,,,,,,,,,,,,,,,,,,,,images/exp1b_trial_18_colour1_distractors1_l.png,l,1,030,001,2021-04-26_12h22.18.381,searchDisc4,2020.2.10,MacIntel,60,,,space,0.343,1,1,0.61,,0,48,48,132,1,1b,18,1,1,
,,,,,,,,,,,,,,,,,,,,,,,,,,images/exp2b_trial_66_colour2_distractors31_l.png,l,1,030,001,2021-04-26_12h22.18.381,searchDisc4,2020.2.10,MacIntel,60,,,space,0.33,1,1,0.634,,0,49,49,408,1,2b,66,2,31,
,,,,,,,,,,,,,,,,,,,,,,,,,,images/exp1a_trial_40_colour1_distractors9_r.png,r,2,030,001,2021-04-26_12h22.18.381,searchDisc4,2020.2.10,MacIntel,60,,,space,0.331,2,1,0.608,,0,50,50,40,1,1a,40,1,9,
,,,,,,,,,,,,,,,,,,,,,,,,,,images/exp1b_trial_5_colour1_distractors43_r.png,r,2,030,001,2021-04-26_12h22.18.381,searchDisc4,2020.2.10,MacIntel,60,,,space,0.336,2,1,0.546,,0,51,51,119,1,1b,5,1,43,
,,,,,,,,,,,,,,,,,,,,,,,,,,images/exp1a_trial_64_colour2_distractors9_l.png,l,1,030,001,2021-04-26_12h22.18.381,searchDisc4,2020.2.10,MacIntel,60,,,space,0.347,1,1,0.708,,0,52,52,64,1,1a,64,2,9,
,,,,,,,,,,,,,,,,,,,,,,,,,,images/exp2a_trial_106_colour3_distractors1_l.png,l,1,030,001,2021-04-26_12h22.18.381,searchDisc4,2020.2.10,MacIntel,60,,,space,0.304,1,1,0.608,,0,53,53,334,1,2a,106,3,1,
,,,,,,,,,,,,,,,,,,,,,,,,,,images/exp2c_trial_95_colour1_distractors4_l.png,l,1,030,001,2021-04-26_12h22.18.381,searchDisc4,2020.2.10,MacIntel,60,,,space,0.298,1,1,0.627,,0,54,54,551,1,2c,95,1,4,
,,,,,,,,,,,,,,,,,,,,,,,,,,images/exp2a_trial_74_colour0_distractors0_r.png,r,2,030,001,2021-04-26_12h22.18.381,searchDisc4,2020.2.10,MacIntel,60,,,space,0.279,2,1,0.519,,0,55,55,302,1,2a,74,0,0,
,,,,,,,,,,,,,,,,,,,,,,,,,,images/exp2a_trial_10_colour2_distractors31_r.png,r,2,030,001,2021-04-26_12h22.18.381,searchDisc4,2020.2.10,MacIntel,60,,,space,0.338,2,1,0.59,,0,56,56,238,1,2a,10,2,31,
,,,,,,,,,,,,,,,,,,,,,,,,,,images/exp2c_trial_18_colour1_distractors1_l.png,l,1,030,001,2021-04-26_12h22.18.381,searchDisc4,2020.2.10,MacIntel,60,,,space,0.366,1,1,0.711,,0,57,57,474,1,2c,18,1,1,
,,,,,,,,,,,,,,,,,,,,,,,,,,images/exp2c_trial_69_colour3_distractors4_l.png,l,1,030,001,2021-04-26_12h22.18.381,searchDisc4,2020.2.10,MacIntel,60,,,space,0.299,1,1,0.703,,0,58,58,525,1,2c,69,3,4,
,,,,,,,,,,,,,,,,,,,,,,,,,,images/exp1b_trial_21_colour1_distractors19_l.png,l,1,030,001,2021-04-26_12h22.18.381,searchDisc4,2020.2.10,MacIntel,60,,,space,0.382,1,1,0.663,space,0,59,59,135,1,1b,21,1,19,0.366
,,,,,,,,,,,,,,,,,,,,,,,,,,images/exp2a_trial_52_colour3_distractors9_r.png,r,2,030,001,2021-04-26_12h22.18.381,searchDisc4,2020.2.10,MacIntel,60,,,space,0.908,2,1,0.539,,0,60,60,280,1,2a,52,3,9,
,,,,,,,,,,,,,,,,,,,,,,,,,,images/exp2a_trial_78_colour1_distractors9_r.png,r,2,030,001,2021-04-26_12h22.18.381,searchDisc4,2020.2.10,MacIntel,60,,,space,0.362,2,1,0.6,,0,61,61,306,1,2a,78,1,9,
,,,,,,,,,,,,,,,,,,,,,,,,,,images/exp1b_trial_36_colour0_distractors0_r.png,r,2,030,001,2021-04-26_12h22.18.381,searchDisc4,2020.2.10,MacIntel,60,,,space,0.37,2,1,0.546,,0,62,62,150,1,1b,36,0,0,
,,,,,,,,,,,,,,,,,,,,,,,,,,images/exp1a_trial_4_colour1_distractors31_r.png,r,2,030,001,2021-04-26_12h22.18.381,searchDisc4,2020.2.10,MacIntel,60,,,space,0.363,2,1,0.628,,0,63,63,4,1,1a,4,1,31,
,,,,,,,,,,,,,,,,,,,,,,,,,,images/exp2b_trial_28_colour2_distractors31_l.png,l,1,030,001,2021-04-26_12h22.18.381,searchDisc4,2020.2.10,MacIntel,60,,,space,0.363,1,1,0.579,,0,64,64,370,1,2b,28,2,31,
,,,,,,,,,,,,,,,,,,,,,,,,,,images/exp2a_trial_29_colour2_distractors43_l.png,l,1,030,001,2021-04-26_12h22.18.381,searchDisc4,2020.2.10,MacIntel,60,,,space,0.369,1,1,0.635,,0,65,65,257,1,2a,29,2,43,
,,,,,,,,,,,,,,,,,,,,,,,,,,images/exp2c_trial_50_colour3_distractors1_r.png,r,2,030,001,2021-04-26_12h22.18.381,searchDisc4,2020.2.10,MacIntel,60,,,space,0.297,2,1,0.624,,0,66,66,506,1,2c,50,3,1,
,,,,,,,,,,,,,,,,,,,,,,,,,,images/exp2b_trial_15_colour3_distractors19_r.png,r,2,030,001,2021-04-26_12h22.18.381,searchDisc4,2020.2.10,MacIntel,60,,,space,0.339,2,1,0.653,,0,67,67,357,1,2b,15,3,19,
,,,,,,,,,,,,,,,,,,,,,,,,,,images/exp1a_trial_23_colour1_distractors43_l.png,l,1,030,001,2021-04-26_12h22.18.381,searchDisc4,2020.2.10,MacIntel,60,,,space,0.339,1,1,0.704,,0,68,68,23,1,1a,23,1,43,
,,,,,,,,,,,,,,,,,,,,,,,,,,images/exp2b_trial_24_colour2_distractors1_l.png,l,1,030,001,2021-04-26_12h22.18.381,searchDisc4,2020.2.10,MacIntel,60,,,space,0.376,1,1,0.772,,0,69,69,366,1,2b,24,2,1,
,,,,,,,,,,,,,,,,,,,,,,,,,,images/exp2b_trial_54_colour3_distractors31_r.png,r,2,030,001,2021-04-26_12h22.18.381,searchDisc4,2020.2.10,MacIntel,60,,,space,0.364,2,1,0.839,,0,70,70,396,1,2b,54,3,31,
,,,,,,,,,,,,,,,,,,,,,,,,,,images/exp2b_trial_71_colour3_distractors19_l.png,l,1,030,001,2021-04-26_12h22.18.381,searchDisc4,2020.2.10,MacIntel,60,,,space,0.342,1,1,0.579,,0,71,71,413,1,2b,71,3,19,
,,,,,,,,,,,,,,,,,,,,,,,,,,images/exp2c_trial_48_colour2_distractors31_r.png,r,2,030,001,2021-04-26_12h22.18.381,searchDisc4,2020.2.10,MacIntel,60,,,space,0.363,2,1,0.611,,0,72,72,504,1,2c,48,2,31,
,,,,,,,,,,,,,,,,,,,,,,,,,,images/exp1a_trial_88_colour3_distractors1_r.png,r,2,030,001,2021-04-26_12h22.18.381,searchDisc4,2020.2.10,MacIntel,60,,,space,0.297,2,1,0.604,,0,73,73,88,1,1a,88,3,1,
,,,,,,,,,,,,,,,,,,,,,,,,,,images/exp1b_trial_27_colour2_distractors19_l.png,l,1,030,001,2021-04-26_12h22.18.381,searchDisc4,2020.2.10,MacIntel,60,,,space,0.299,1,1,0.617,,0,74,74,141,1,1b,27,2,19,
,,,,,,,,,,,,,,,,,,,,,,,,,,images/exp2b_trial_100_colour2_distractors1_l.png,l,1,030,001,2021-04-26_12h22.18.381,searchDisc4,2020.2.10,MacIntel,60,,,space,0.304,1,1,0.648,,0,75,75,442,1,2b,100,2,1,
,,,,,,,,,,,,,,,,,,,,,,,,,,images/exp2a_trial_59_colour1_distractors19_l.png,l,1,030,001,2021-04-26_12h22.18.381,searchDisc4,2020.2.10,MacIntel,60,,,space,0.312,1,1,0.579,,0,76,76,287,1,2a,59,1,19,
,,,,,,,,,,,,,,,,,,,,,,,,,,images/exp1a_trial_56_colour1_distractors1_l.png,l,1,030,001,2021-04-26_12h22.18.381,searchDisc4,2020.2.10,MacIntel,60,,,space,0.31,1,1,0.507,,0,77,77,56,1,1a,56,1,1,
,,,,,,,,,,,,,,,,,,,,,,,,,,images/exp2a_trial_100_colour2_distractors1_l.png,l,1,030,001,2021-04-26_12h22.18.381,searchDisc4,2020.2.10,MacIntel,60,,,space,0.269,1,1,0.541,,0,78,78,328,1,2a,100,2,1,
,,,,,,,,,,,,,,,,,,,,,,,,,,images/exp2b_trial_79_colour1_distractors19_r.png,r,2,030,001,2021-04-26_12h22.18.381,searchDisc4,2020.2.10,MacIntel,60,,,space,0.264,2,1,0.574,,0,79,79,421,1,2b,79,1,19,
,,,,,,,,,,,,,,,,,,,,,,,,,,images/exp2c_trial_93_colour3_distractors43_r.png,r,2,030,001,2021-04-26_12h22.18.381,searchDisc4,2020.2.10,MacIntel,60,,,space,0.245,2,1,0.547,,0,80,80,549,1,2c,93,3,43,
,,,,,,,,,,,,,,,,,,,,,,,,,,images/exp1b_trial_78_colour1_distractors9_r.png,r,2,030,001,2021-04-26_12h22.18.381,searchDisc4,2020.2.10,MacIntel,60,,,space,0.298,2,1,0.638,,0,81,81,192,1,1b,78,1,9,
,,,,,,,,,,,,,,,,,,,,,,,,,,images/exp1b_trial_19_colour1_distractors4_l.png,l,1,030,001,2021-04-26_12h22.18.381,searchDisc4,2020.2.10,MacIntel,60,,,space,0.297,1,1,0.753,,0,82,82,133,1,1b,19,1,4,
,,,,,,,,,,,,,,,,,,,,,,,,,,images/exp2a_trial_65_colour2_distractors19_l.png,l,1,030,001,2021-04-26_12h22.18.381,searchDisc4,2020.2.10,MacIntel,60,,,space,0.445,1,1,0.64,,0,83,83,293,1,2a,65,2,19,
,,,,,,,,,,,,,,,,,,,,,,,,,,images/exp1a_trial_95_colour1_distractors4_l.png,l,1,030,001,2021-04-26_12h22.18.381,searchDisc4,2020.2.10,MacIntel,60,,,space,0.398,1,1,0.601,,0,84,84,95,1,1a,95,1,4,
,,,,,,,,,,,,,,,,,,,,,,,,,,images/exp2b_trial_11_colour2_distractors43_r.png,r,2,030,001,2021-04-26_12h22.18.381,searchDisc4,2020.2.10,MacIntel,60,,,space,0.331,2,1,0.665,,0,85,85,353,1,2b,11,2,43,
,,,,,,,,,,,,,,,,,,,,,,,,,,images/exp1a_trial_58_colour1_distractors9_l.png,l,1,030,001,2021-04-26_12h22.18.381,searchDisc4,2020.2.10,MacIntel,60,,,space,0.315,1,1,0.716,,0,86,86,58,1,1a,58,1,9,
,,,,,,,,,,,,,,,,,,,,,,,,,,images/exp2b_trial_110_colour3_distractors31_l.png,l,1,030,001,2021-04-26_12h22.18.381,searchDisc4,2020.2.10,MacIntel,60,,,space,0.295,1,1,0.6,,0,87,87,452,1,2b,110,3,31,
,,,,,,,,,,,,,,,,,,,,,,,,,,images/exp2a_trial_16_colour3_distractors31_r.png,r,2,030,001,2021-04-26_12h22.18.381,searchDisc4,2020.2.10,MacIntel,60,,,space,0.338,2,1,0.799,,0,88,88,244,1,2a,16,3,31,
,,,,,,,,,,,,,,,,,,,,,,,,,,images/exp2a_trial_70_colour3_distractors9_l.png,l,1,030,001,2021-04-26_12h22.18.381,searchDisc4,2020.2.10,MacIntel,60,,,space,0.345,1,1,0.781,,0,89,89,298,1,2a,70,3,9,
,,,,,,,,,,,,,,,,,,,,,,,,,,images/exp2a_trial_111_colour3_distractors43_l.png,l,1,030,001,2021-04-26_12h22.18.381,searchDisc4,2020.2.10,MacIntel,60,,,space,0.329,1,1,0.658,,0,90,90,339,1,2a,111,3,43,
,,,,,,,,,,,,,,,,,,,,,,,,,,images/exp2b_trial_39_colour1_distractors4_r.png,r,2,030,001,2021-04-26_12h22.18.381,searchDisc4,2020.2.10,MacIntel,60,,,space,0.365,2,1,0.64,,0,91,91,381,1,2b,39,1,4,
,,,,,,,,,,,,,,,,,,,,,,,,,,images/exp2a_trial_83_colour2_distractors4_r.png,r,2,030,001,2021-04-26_12h22.18.381,searchDisc4,2020.2.10,MacIntel,60,,,space,0.468,2,1,0.513,,0,92,92,311,1,2a,83,2,4,
,,,,,,,,,,,,,,,,,,,,,,,,,,images/exp1a_trial_91_colour3_distractors19_r.png,r,2,030,001,2021-04-26_12h22.18.381,searchDisc4,2020.2.10,MacIntel,60,,,space,0.401,2,1,0.69,,0,93,93,91,1,1a,91,3,19,
,,,,,,,,,,,,,,,,,,,,,,,,,,images/exp1b_trial_76_colour1_distractors1_r.png,r,2,030,001,2021-04-26_12h22.18.381,searchDisc4,2020.2.10,MacIntel,60,,,space,0.297,2,1,0.729,,0,94,94,190,1,1b,76,1,1,
,,,,,,,,,,,,,,,,,,,,,,,,,,images/exp2a_trial_47_colour2_distractors19_r.png,r,2,030,001,2021-04-26_12h22.18.381,searchDisc4,2020.2.10,MacIntel,60,,,space,0.366,2,1,0.837,,0,95,95,275,1,2a,47,2,19,
,,,,,,,,,,,,,,,,,,,,,,,,,,images/exp1a_trial_26_colour2_distractors9_l.png,l,1,030,001,2021-04-26_12h22.18.381,searchDisc4,2020.2.10,MacIntel,60,,,space,0.365,2,0,0.577,,0,96,96,26,1,1a,26,2,9,
,,,,,,,,,,,,,,,,,,,,,,,,,,images/exp1b_trial_34_colour3_distractors31_l.png,l,1,030,001,2021-04-26_12h22.18.381,searchDisc4,2020.2.10,MacIntel,60,,,space,0.564,1,1,0.836,,0,97,97,148,1,1b,34,3,31,
,,,,,,,,,,,,,,,,,,,,,,,,,,images/exp2a_trial_69_colour3_distractors4_l.png,l,1,030,001,2021-04-26_12h22.18.381,searchDisc4,2020.2.10,MacIntel,60,,,space,0.301,1,1,0.543,,0,98,98,297,1,2a,69,3,4,
,,,,,,,,,,,,,,,,,,,,,,,,,,images/exp2c_trial_12_colour3_distractors1_r.png,r,2,030,001,2021-04-26_12h22.18.381,searchDisc4,2020.2.10,MacIntel,60,,,space,0.302,2,1,0.512,,0,99,99,468,1,2c,12,3,1,
,,,,,,,,,,,,,,,,,,,,,,,,,,images/exp2c_trial_36_colour0_distractors0_r.png,r,2,030,001,2021-04-26_12h22.18.381,searchDisc4,2020.2.10,MacIntel,60,,,space,0.333,2,1,0.546,,0,100,100,492,1,2c,36,0,0,
,,,,,,,,,,,,,,,,,,,,,,,,,,images/exp1a_trial_93_colour3_distractors43_r.png,r,2,030,001,2021-04-26_12h22.18.381,searchDisc4,2020.2.10,MacIntel,60,,,space,0.379,2,1,0.684,,0,101,101,93,1,1a,93,3,43,
,,,,,,,,,,,,,,,,,,,,,,,,,,images/exp2a_trial_53_colour3_distractors19_r.png,r,2,030,001,2021-04-26_12h22.18.381,searchDisc4,2020.2.10,MacIntel,60,,,space,0.332,2,1,0.563,,0,102,102,281,1,2a,53,3,19,
,,,,,,,,,,,,,,,,,,,,,,,,,,images/exp1b_trial_84_colour2_distractors9_r.png,r,2,030,001,2021-04-26_12h22.18.381,searchDisc4,2020.2.10,MacIntel,60,,,space,0.334,2,1,0.823,,0,103,103,198,1,1b,84,2,9,
,,,,,,,,,,,,,,,,,,,,,,,,,,images/exp2c_trial_14_colour3_distractors9_r.png,r,2,030,001,2021-04-26_12h22.18.381,searchDisc4,2020.2.10,MacIntel,60,,,space,0.34,2,1,0.641,,0,104,104,470,1,2c,14,3,9,
,,,,,,,,,,,,,,,,,,,,,,,,,,images/exp2b_trial_59_colour1_distractors19_l.png,l,1,030,001,2021-04-26_12h22.18.381,searchDisc4,2020.2.10,MacIntel,60,,,space,0.332,1,1,0.609,,0,105,105,401,1,2b,59,1,19,
,,,,,,,,,,,,,,,,,,,,,,,,,,images/exp1b_trial_60_colour1_distractors31_l.png,l,1,030,001,2021-04-26_12h22.18.381,searchDisc4,2020.2.10,MacIntel,60,,,space,0.378,1,1,0.897,,0,106,106,174,1,1b,60,1,31,
,,,,,,,,,,,,,,,,,,,,,,,,,,images/exp2b_trial_51_colour3_distractors4_r.png,r,2,030,001,2021-04-26_12h22.18.381,searchDisc4,2020.2.10,MacIntel,60,,,space,0.371,2,1,0.598,,0,107,107,393,1,2b,51,3,4,
,,,,,,,,,,,,,,,,,,,,,,,,,,images/exp1b_trial_63_colour2_distractors4_l.png,l,1,030,001,2021-04-26_12h22.18.381,searchDisc4,2020.2.10,MacIntel,60,,,space,0.275,1,1,0.719,,0,108,108,177,1,1b,63,2,4,
,,,,,,,,,,,,,,,,,,,,,,,,,,images/exp1a_trial_42_colour1_distractors31_r.png,r,2,030,001,2021-04-26_12h22.18.381,searchDisc4,2020.2.10,MacIntel,60,,,space,0.342,2,1,0.575,,0,109,109,42,1,1a,42,1,31,
,,,,,,,,,,,,,,,,,,,,,,,,,,images/exp2b_trial_70_colour3_distractors9_l.png,l,1,030,001,2021-04-26_12h22.18.381,searchDisc4,2020.2.10,MacIntel,60,,,space,0.364,1,1,0.737,,0,110,110,412,1,2b,70,3,9,
,,,,,,,,,,,,,,,,,,,,,,,,,,images/exp2a_trial_18_colour1_distractors1_l.png,l,1,030,001,2021-04-26_12h22.18.381,searchDisc4,2020.2.10,MacIntel,60,,,space,0.306,1,1,0.564,,0,111,111,246,1,2a,18,1,1,
,,,,,,,,,,,,,,,,,,,,,,,,,,images/exp1b_trial_39_colour1_distractors4_r.png,r,2,030,001,2021-04-26_12h22.18.381,searchDisc4,2020.2.10,MacIntel,60,,,space,0.306,2,1,0.686,,0,112,112,153,1,1b,39,1,4,
,,,,,,,,,,,,,,,,,,,,,,,,,,images/exp1b_trial_0_colour1_distractors1_r.png,r,2,030,001,2021-04-26_12h22.18.381,searchDisc4,2020.2.10,MacIntel,60,,,space,0.33,2,1,0.61,,0,113,113,114,1,1b,0,1,1,
,,,,,,,,,,,,,,,,,,,,,,,,,,images/exp1a_trial_7_colour2_distractors4_r.png,r,2,030,001,2021-04-26_12h22.18.381,searchDisc4,2020.2.10,MacIntel,60,,,space,0.308,2,1,0.548,,0,114,114,7,1,1a,7,2,4,
,,,,,,,,,,,,,,,,,,,,,,,,,,images/exp2a_trial_6_colour2_distractors1_r.png,r,2,030,001,2021-04-26_12h22.18.381,searchDisc4,2020.2.10,MacIntel,60,,,space,0.3,2,1,0.577,,0,115,115,234,1,2a,6,2,1,
,,,,,,,,,,,,,,,,,,,,,,,,,,images/exp2c_trial_10_colour2_distractors31_r.png,r,2,030,001,2021-04-26_12h22.18.381,searchDisc4,2020.2.10,MacIntel,60,,,space,0.339,2,1,0.563,,0,116,116,466,1,2c,10,2,31,
,,,,,,,,,,,,,,,,,,,,,,,,,,images/exp1b_trial_30_colour3_distractors1_l.png,l,1,030,001,2021-04-26_12h22.18.381,searchDisc4,2020.2.10,MacIntel,60,,,space,0.337,1,1,0.808,,0,117,117,144,1,1b,30,3,1,
,,,,,,,,,,,,,,,,,,,,,,,,,,images/exp1a_trial_109_colour3_distractors19_l.png,l,1,030,001,2021-04-26_12h22.18.381,searchDisc4,2020.2.10,MacIntel,60,,,space,0.302,1,1,0.643,,0,118,118,109,1,1a,109,3,19,
,,,,,,,,,,,,,,,,,,,,,,,,,,images/exp2b_trial_20_colour1_distractors9_l.png,l,1,030,001,2021-04-26_12h22.18.381,searchDisc4,2020.2.10,MacIntel,60,,,space,0.377,1,1,0.631,space,0,119,119,362,1,2b,20,1,9,0.402
,,,,,,,,,,,,,,,,,,,,,,,,,,images/exp2c_trial_110_colour3_distractors31_l.png,l,1,030,001,2021-04-26_12h22.18.381,searchDisc4,2020.2.10,MacIntel,60,,,space,0.67,1,1,0.643,,0,120,120,566,1,2c,110,3,31,
,,,,,,,,,,,,,,,,,,,,,,,,,,images/exp2a_trial_85_colour2_distractors19_r.png,r,2,030,001,2021-04-26_12h22.18.381,searchDisc4,2020.2.10,MacIntel,60,,,space,0.434,2,1,0.61,,0,121,121,313,1,2a,85,2,19,
,,,,,,,,,,,,,,,,,,,,,,,,,,images/exp1a_trial_49_colour2_distractors43_r.png,r,2,030,001,2021-04-26_12h22.18.381,searchDisc4,2020.2.10,MacIntel,60,,,space,0.429,2,1,0.628,,0,122,122,49,1,1a,49,2,43,
,,,,,,,,,,,,,,,,,,,,,,,,,,images/exp2c_trial_34_colour3_distractors31_l.png,l,1,030,001,2021-04-26_12h22.18.381,searchDisc4,2020.2.10,MacIntel,60,,,space,0.364,1,1,0.65,,0,123,123,490,1,2c,34,3,31,
,,,,,,,,,,,,,,,,,,,,,,,,,,images/exp2a_trial_72_colour3_distractors31_l.png,l,1,030,001,2021-04-26_12h22.18.381,searchDisc4,2020.2.10,MacIntel,60,,,space,0.371,1,1,0.763,,0,124,124,300,1,2a,72,3,31,
,,,,,,,,,,,,,,,,,,,,,,,,,,images/exp2b_trial_67_colour2_distractors43_l.png,l,1,030,001,2021-04-26_12h22.18.381,searchDisc4,2020.2.10,MacIntel,60,,,space,0.432,1,1,0.542,,0,125,125,409,1,2b,67,2,43,
,,,,,,,,,,,,,,,,,,,,,,,,,,images/exp2b_trial_113_colour0_distractors0_l.png,l,1,030,001,2021-04-26_12h22.18.381,searchDisc4,2020.2.10,MacIntel,60,,,space,0.431,1,1,0.503,,0,126,126,455,1,2b,113,0,0,
,,,,,,,,,,,,,,,,,,,,,,,,,,images/exp2a_trial_0_colour1_distractors1_r.png,r,2,030,001,2021-04-26_12h22.18.381,searchDisc4,2020.2.10,MacIntel,60,,,space,0.398,2,1,0.582,,0,127,127,228,1,2a,0,1,1,
,,,,,,,,,,,,,,,,,,,,,,,,,,images/exp1a_trial_110_colour3_distractors31_l.png,l,1,030,001,2021-04-26_12h22.18.381,searchDisc4,2020.2.10,MacIntel,60,,,space,0.4,1,1,0.704,,0,128,128,110,1,1a,110,3,31,
,,,,,,,,,,,,,,,,,,,,,,,,,,images/exp1a_trial_72_colour3_distractors31_l.png,l,1,030,001,2021-04-26_12h22.18.381,searchDisc4,2020.2.10,MacIntel,60,,,space,0.464,1,1,0.608,,0,129,129,72,1,1a,72,3,31,
,,,,,,,,,,,,,,,,,,,,,,,,,,images/exp2b_trial_58_colour1_distractors9_l.png,l,1,030,001,2021-04-26_12h22.18.381,searchDisc4,2020.2.10,MacIntel,60,,,space,0.465,1,1,0.532,,0,130,130,400,1,2b,58,1,9,
,,,,,,,,,,,,,,,,,,,,,,,,,,images/exp2b_trial_108_colour3_distractors9_l.png,l,1,030,001,2021-04-26_12h22.18.381,searchDisc4,2020.2.10,MacIntel,60,,,space,0.398,1,1,0.546,,0,131,131,450,1,2b,108,3,9,
,,,,,,,,,,,,,,,,,,,,,,,,,,images/exp1b_trial_104_colour2_distractors31_l.png,l,1,030,001,2021-04-26_12h22.18.381,searchDisc4,2020.2.10,MacIntel,60,,,space,0.377,1,1,0.743,,0,132,132,218,1,1b,104,2,31,
,,,,,,,,,,,,,,,,,,,,,,,,,,images/exp1b_trial_74_colour0_distractors0_r.png,r,2,030,001,2021-04-26_12h22.18.381,searchDisc4,2020.2.10,MacIntel,60,,,space,0.337,2,1,0.618,,0,133,133,188,1,1b,74,0,0,
,,,,,,,,,,,,,,,,,,,,,,,,,,images/exp2a_trial_50_colour3_distractors1_r.png,r,2,030,001,2021-04-26_12h22.18.381,searchDisc4,2020.2.10,MacIntel,60,,,space,0.509,2,1,0.568,,0,134,134,278,1,2a,50,3,1,
,,,,,,,,,,,,,,,,,,,,,,,,,,images/exp1a_trial_83_colour2_distractors4_r.png,r,2,030,001,2021-04-26_12h22.18.381,searchDisc4,2020.2.10,MacIntel,60,,,space,0.43,2,1,0.604,,0,135,135,83,1,1a,83,2,4,
,,,,,,,,,,,,,,,,,,,,,,,,,,images/exp2a_trial_84_colour2_distractors9_r.png,r,2,030,001,2021-04-26_12h22.18.381,searchDisc4,2020.2.10,MacIntel,60,,,space,0.363,2,1,0.639,,0,136,136,312,1,2a,84,2,9,
,,,,,,,,,,,,,,,,,,,,,,,,,,images/exp1a_trial_105_colour2_distractors43_l.png,l,1,030,001,2021-04-26_12h22.18.381,searchDisc4,2020.2.10,MacIntel,60,,,space,0.313,1,1,0.64,,0,137,137,105,1,1a,105,2,43,
,,,,,,,,,,,,,,,,,,,,,,,,,,images/exp2a_trial_89_colour3_distractors4_r.png,r,2,030,001,2021-04-26_12h22.18.381,searchDisc4,2020.2.10,MacIntel,60,,,space,0.5,2,1,0.795,,0,138,138,317,1,2a,89,3,4,
,,,,,,,,,,,,,,,,,,,,,,,,,,images/exp1b_trial_68_colour3_distractors1_l.png,l,1,030,001,2021-04-26_12h22.18.381,searchDisc4,2020.2.10,MacIntel,60,,,space,0.401,1,1,0.543,,0,139,139,182,1,1b,68,3,1,
,,,,,,,,,,,,,,,,,,,,,,,,,,images/exp2b_trial_2_colour1_distractors9_r.png,r,2,030,001,2021-04-26_12h22.18.381,searchDisc4,2020.2.10,MacIntel,60,,,space,0.309,2,1,0.642,,0,140,140,344,1,2b,2,1,9,
,,,,,,,,,,,,,,,,,,,,,,,,,,images/exp2a_trial_19_colour1_distractors4_l.png,l,1,030,001,2021-04-26_12h22.18.381,searchDisc4,2020.2.10,MacIntel,60,,,space,0.371,1,1,0.573,,0,141,141,247,1,2a,19,1,4,
,,,,,,,,,,,,,,,,,,,,,,,,,,images/exp2b_trial_18_colour1_distractors1_l.png,l,1,030,001,2021-04-26_12h22.18.381,searchDisc4,2020.2.10,MacIntel,60,,,space,0.465,1,1,0.58,,0,142,142,360,1,2b,18,1,1,
,,,,,,,,,,,,,,,,,,,,,,,,,,images/exp2c_trial_85_colour2_distractors19_r.png,r,2,030,001,2021-04-26_12h22.18.381,searchDisc4,2020.2.10,MacIntel,60,,,space,0.464,2,1,0.573,,0,143,143,541,1,2c,85,2,19,
,,,,,,,,,,,,,,,,,,,,,,,,,,images/exp1a_trial_45_colour2_distractors4_r.png,r,2,030,001,2021-04-26_12h22.18.381,searchDisc4,2020.2.10,MacIntel,60,,,space,0.367,2,1,0.605,,0,144,144,45,1,1a,45,2,4,
,,,,,,,,,,,,,,,,,,,,,,,,,,images/exp2c_trial_32_colour3_distractors9_l.png,l,1,030,001,2021-04-26_12h22.18.381,searchDisc4,2020.2.10,MacIntel,60,,,space,0.341,1,1,0.673,,0,145,145,488,1,2c,32,3,9,
,,,,,,,,,,,,,,,,,,,,,,,,,,images/exp1b_trial_4_colour1_distractors31_r.png,r,2,030,001,2021-04-26_12h22.18.381,searchDisc4,2020.2.10,MacIntel,60,,,space,0.332,2,1,0.761,,0,146,146,118,1,1b,4,1,31,
,,,,,,,,,,,,,,,,,,,,,,,,,,images/exp2a_trial_109_colour3_distractors19_l.png,l,1,030,001,2021-04-26_12h22.18.381,searchDisc4,2020.2.10,MacIntel,60,,,space,0.473,1,1,0.691,,0,147,147,337,1,2a,109,3,19,
,,,,,,,,,,,,,,,,,,,,,,,,,,images/exp1b_trial_13_colour3_distractors4_r.png,r,2,030,001,2021-04-26_12h22.18.381,searchDisc4,2020.2.10,MacIntel,60,,,space,0.462,2,1,0.665,,0,148,148,127,1,1b,13,3,4,
,,,,,,,,,,,,,,,,,,,,,,,,,,images/exp2a_trial_21_colour1_distractors19_l.png,l,1,030,001,2021-04-26_12h22.18.381,searchDisc4,2020.2.10,MacIntel,60,,,space,0.464,1,1,0.647,,0,149,149,249,1,2a,21,1,19,
,,,,,,,,,,,,,,,,,,,,,,,,,,images/exp2a_trial_57_colour1_distractors4_l.png,l,1,030,001,2021-04-26_12h22.18.381,searchDisc4,2020.2.10,MacIntel,60,,,space,0.346,1,1,0.608,,0,150,150,285,1,2a,57,1,4,
,,,,,,,,,,,,,,,,,,,,,,,,,,images/exp2b_trial_6_colour2_distractors1_r.png,r,2,030,001,2021-04-26_12h22.18.381,searchDisc4,2020.2.10,MacIntel,60,,,space,0.33,2,1,0.633,,0,151,151,348,1,2b,6,2,1,
,,,,,,,,,,,,,,,,,,,,,,,,,,images/exp1b_trial_94_colour1_distractors1_l.png,l,1,030,001,2021-04-26_12h22.18.381,searchDisc4,2020.2.10,MacIntel,60,,,space,0.3,1,1,0.675,,0,152,152,208,1,1b,94,1,1,
,,,,,,,,,,,,,,,,,,,,,,,,,,images/exp2c_trial_70_colour3_distractors9_l.png,l,1,030,001,2021-04-26_12h22.18.381,searchDisc4,2020.2.10,MacIntel,60,,,space,0.332,1,1,0.604,,0,153,153,526,1,2c,70,3,9,
,,,,,,,,,,,,,,,,,,,,,,,,,,images/exp2c_trial_16_colour3_distractors31_r.png,r,2,030,001,2021-04-26_12h22.18.381,searchDisc4,2020.2.10,MacIntel,60,,,space,0.476,2,1,0.669,,0,154,154,472,1,2c,16,3,31,
,,,,,,,,,,,,,,,,,,,,,,,,,,images/exp2b_trial_21_colour1_distractors19_l.png,l,1,030,001,2021-04-26_12h22.18.381,searchDisc4,2020.2.10,MacIntel,60,,,space,0.367,1,1,0.694,,0,155,155,363,1,2b,21,1,19,
,,,,,,,,,,,,,,,,,,,,,,,,,,images/exp2b_trial_8_colour2_distractors9_r.png,r,2,030,001,2021-04-26_12h22.18.381,searchDisc4,2020.2.10,MacIntel,60,,,space,0.34,2,1,0.519,,0,156,156,350,1,2b,8,2,9,
,,,,,,,,,,,,,,,,,,,,,,,,,,images/exp1b_trial_29_colour2_distractors43_l.png,l,1,030,001,2021-04-26_12h22.18.381,searchDisc4,2020.2.10,MacIntel,60,,,space,0.337,1,1,0.683,,0,157,157,143,1,1b,29,2,43,
,,,,,,,,,,,,,,,,,,,,,,,,,,images/exp1a_trial_33_colour3_distractors19_l.png,l,1,030,001,2021-04-26_12h22.18.381,searchDisc4,2020.2.10,MacIntel,60,,,space,0.336,2,0,0.714,,0,158,158,33,1,1a,33,3,19,
,,,,,,,,,,,,,,,,,,,,,,,,,,images/exp1b_trial_53_colour3_distractors19_r.png,r,2,030,001,2021-04-26_12h22.18.381,searchDisc4,2020.2.10,MacIntel,60,,,space,0.469,2,1,0.943,,0,159,159,167,1,1b,53,3,19,
,,,,,,,,,,,,,,,,,,,,,,,,,,images/exp1a_trial_63_colour2_distractors4_l.png,l,1,030,001,2021-04-26_12h22.18.381,searchDisc4,2020.2.10,MacIntel,60,,,space,0.298,1,1,0.681,,0,160,160,63,1,1a,63,2,4,
,,,,,,,,,,,,,,,,,,,,,,,,,,images/exp2a_trial_108_colour3_distractors9_l.png,l,1,030,001,2021-04-26_12h22.18.381,searchDisc4,2020.2.10,MacIntel,60,,,space,0.363,1,1,0.598,,0,161,161,336,1,2a,108,3,9,
,,,,,,,,,,,,,,,,,,,,,,,,,,images/exp1a_trial_60_colour1_distractors31_l.png,l,1,030,001,2021-04-26_12h22.18.381,searchDisc4,2020.2.10,MacIntel,60,,,space,0.399,1,1,0.598,,0,162,162,60,1,1a,60,1,31,
,,,,,,,,,,,,,,,,,,,,,,,,,,images/exp1b_trial_83_colour2_distractors4_r.png,r,2,030,001,2021-04-26_12h22.18.381,searchDisc4,2020.2.10,MacIntel,60,,,space,0.396,2,1,0.641,,0,163,163,197,1,1b,83,2,4,
,,,,,,,,,,,,,,,,,,,,,,,,,,images/exp1b_trial_97_colour1_distractors19_l.png,l,1,030,001,2021-04-26_12h22.18.381,searchDisc4,2020.2.10,MacIntel,60,,,space,0.267,1,1,0.686,,0,164,164,211,1,1b,97,1,19,
,,,,,,,,,,,,,,,,,,,,,,,,,,images/exp2a_trial_14_colour3_distractors9_r.png,r,2,030,001,2021-04-26_12h22.18.381,searchDisc4,2020.2.10,MacIntel,60,,,space,0.249,2,1,0.867,,0,165,165,242,1,2a,14,3,9,
,,,,,,,,,,,,,,,,,,,,,,,,,,images/exp2b_trial_99_colour1_distractors43_l.png,l,1,030,001,2021-04-26_12h22.18.381,searchDisc4,2020.2.10,MacIntel,60,,,space,0.201,1,1,0.614,,0,166,166,441,1,2b,99,1,43,
,,,,,,,,,,,,,,,,,,,,,,,,,,images/exp2b_trial_91_colour3_distractors19_r.png,r,2,030,001,2021-04-26_12h22.18.381,searchDisc4,2020.2.10,MacIntel,60,,,space,0.268,2,1,0.641,,0,167,167,433,1,2b,91,3,19,
,,,,,,,,,,,,,,,,,,,,,,,,,,images/exp2a_trial_23_colour1_distractors43_l.png,l,1,030,001,2021-04-26_12h22.18.381,searchDisc4,2020.2.10,MacIntel,60,,,space,0.211,1,1,0.639,,0,168,168,251,1,2a,23,1,43,
,,,,,,,,,,,,,,,,,,,,,,,,,,images/exp2b_trial_80_colour1_distractors31_r.png,r,2,030,001,2021-04-26_12h22.18.381,searchDisc4,2020.2.10,MacIntel,60,,,space,0.208,2,1,0.702,,0,169,169,422,1,2b,80,1,31,
,,,,,,,,,,,,,,,,,,,,,,,,,,images/exp2c_trial_106_colour3_distractors1_l.png,l,1,030,001,2021-04-26_12h22.18.381,searchDisc4,2020.2.10,MacIntel,60,,,space,0.206,1,1,0.606,,0,170,170,562,1,2c,106,3,1,
,,,,,,,,,,,,,,,,,,,,,,,,,,images/exp2b_trial_41_colour1_distractors19_r.png,r,2,030,001,2021-04-26_12h22.18.381,searchDisc4,2020.2.10,MacIntel,60,,,space,0.232,2,1,0.649,,0,171,171,383,1,2b,41,1,19,
,,,,,,,,,,,,,,,,,,,,,,,,,,images/exp1a_trial_65_colour2_distractors19_l.png,l,1,030,001,2021-04-26_12h22.18.381,searchDisc4,2020.2.10,MacIntel,60,,,space,0.232,1,1,0.755,,0,172,172,65,1,1a,65,2,19,
,,,,,,,,,,,,,,,,,,,,,,,,,,images/exp2c_trial_30_colour3_distractors1_l.png,l,1,030,001,2021-04-26_12h22.18.381,searchDisc4,2020.2.10,MacIntel,60,,,space,0.263,1,1,0.609,,0,173,173,486,1,2c,30,3,1,
,,,,,,,,,,,,,,,,,,,,,,,,,,images/exp2c_trial_47_colour2_distractors19_r.png,r,2,030,001,2021-04-26_12h22.18.381,searchDisc4,2020.2.10,MacIntel,60,,,space,0.265,2,1,0.588,,0,174,174,503,1,2c,47,2,19,
,,,,,,,,,,,,,,,,,,,,,,,,,,images/exp2c_trial_107_colour3_distractors4_l.png,l,1,030,001,2021-04-26_12h22.18.381,searchDisc4,2020.2.10,MacIntel,60,,,space,0.264,1,1,0.609,,0,175,175,563,1,2c,107,3,4,
,,,,,,,,,,,,,,,,,,,,,,,,,,images/exp1a_trial_50_colour3_distractors1_r.png,r,2,030,001,2021-04-26_12h22.18.381,searchDisc4,2020.2.10,MacIntel,60,,,space,0.214,2,1,0.55,,0,176,176,50,1,1a,50,3,1,
,,,,,,,,,,,,,,,,,,,,,,,,,,images/exp2a_trial_101_colour2_distractors4_l.png,l,1,030,001,2021-04-26_12h22.18.381,searchDisc4,2020.2.10,MacIntel,60,,,space,0.242,1,1,0.642,,0,177,177,329,1,2a,101,2,4,
,,,,,,,,,,,,,,,,,,,,,,,,,,images/exp1b_trial_20_colour1_distractors9_l.png,l,1,030,001,2021-04-26_12h22.18.381,searchDisc4,2020.2.10,MacIntel,60,,,space,0.302,1,1,0.65,,0,178,178,134,1,1b,20,1,9,
,,,,,,,,,,,,,,,,,,,,,,,,,,images/exp1b_trial_102_colour2_distractors9_l.png,l,1,030,001,2021-04-26_12h22.18.381,searchDisc4,2020.2.10,MacIntel,60,,,space,0.335,1,1,0.574,space,0,179,179,216,1,1b,102,2,9,0.257
,,,,,,,,,,,,,,,,,,,,,,,,,,images/exp2c_trial_38_colour1_distractors1_r.png,r,2,030,001,2021-04-26_12h22.18.381,searchDisc4,2020.2.10,MacIntel,60,,,space,0.704,2,1,0.577,,0,180,180,494,1,2c,38,1,1,
,,,,,,,,,,,,,,,,,,,,,,,,,,images/exp2c_trial_44_colour2_distractors1_r.png,r,2,030,001,2021-04-26_12h22.18.381,searchDisc4,2020.2.10,MacIntel,60,,,space,0.237,2,1,0.538,,0,181,181,500,1,2c,44,2,1,
,,,,,,,,,,,,,,,,,,,,,,,,,,images/exp1a_trial_57_colour1_distractors4_l.png,l,1,030,001,2021-04-26_12h22.18.381,searchDisc4,2020.2.10,MacIntel,60,,,space,0.244,1,1,0.635,,0,182,182,57,1,1a,57,1,4,
,,,,,,,,,,,,,,,,,,,,,,,,,,images/exp1b_trial_58_colour1_distractors9_l.png,l,1,030,001,2021-04-26_12h22.18.381,searchDisc4,2020.2.10,MacIntel,60,,,space,0.264,1,1,0.578,,0,183,183,172,1,1b,58,1,9,
,,,,,,,,,,,,,,,,,,,,,,,,,,images/exp2b_trial_7_colour2_distractors4_r.png,r,2,030,001,2021-04-26_12h22.18.381,searchDisc4,2020.2.10,MacIntel,60,,,space,0.271,2,1,0.609,,0,184,184,349,1,2b,7,2,4,
,,,,,,,,,,,,,,,,,,,,,,,,,,images/exp1b_trial_105_colour2_distractors43_l.png,l,1,030,001,2021-04-26_12h22.18.381,searchDisc4,2020.2.10,MacIntel,60,,,space,0.202,1,1,0.71,,0,185,185,219,1,1b,105,2,43,
,,,,,,,,,,,,,,,,,,,,,,,,,,images/exp2b_trial_77_colour1_distractors4_r.png,r,2,030,001,2021-04-26_12h22.18.381,searchDisc4,2020.2.10,MacIntel,60,,,space,0.268,2,1,0.646,,0,186,186,419,1,2b,77,1,4,
,,,,,,,,,,,,,,,,,,,,,,,,,,images/exp2a_trial_34_colour3_distractors31_l.png,l,1,030,001,2021-04-26_12h22.18.381,searchDisc4,2020.2.10,MacIntel,60,,,space,0.232,1,1,0.707,,0,187,187,262,1,2a,34,3,31,
,,,,,,,,,,,,,,,,,,,,,,,,,,images/exp2b_trial_75_colour0_distractors0_l.png,l,1,030,001,2021-04-26_12h22.18.381,searchDisc4,2020.2.10,MacIntel,60,,,space,0.275,1,1,0.696,,0,188,188,417,1,2b,75,0,0,
,,,,,,,,,,,,,,,,,,,,,,,,,,images/exp2c_trial_13_colour3_distractors4_r.png,r,2,030,001,2021-04-26_12h22.18.381,searchDisc4,2020.2.10,MacIntel,60,,,space,0.24,2,1,0.642,,0,189,189,469,1,2c,13,3,4,
,,,,,,,,,,,,,,,,,,,,,,,,,,images/exp2c_trial_81_colour1_distractors43_r.png,r,2,030,001,2021-04-26_12h22.18.381,searchDisc4,2020.2.10,MacIntel,60,,,space,0.263,2,1,0.53,,0,190,190,537,1,2c,81,1,43,
,,,,,,,,,,,,,,,,,,,,,,,,,,images/exp2c_trial_111_colour3_distractors43_l.png,l,1,030,001,2021-04-26_12h22.18.381,searchDisc4,2020.2.10,MacIntel,60,,,space,0.231,1,1,0.606,,0,191,191,567,1,2c,111,3,43,
,,,,,,,,,,,,,,,,,,,,,,,,,,images/exp2c_trial_46_colour2_distractors9_r.png,r,2,030,001,2021-04-26_12h22.18.381,searchDisc4,2020.2.10,MacIntel,60,,,space,0.214,2,1,0.645,,0,192,192,502,1,2c,46,2,9,
,,,,,,,,,,,,,,,,,,,,,,,,,,images/exp2c_trial_77_colour1_distractors4_r.png,r,2,030,001,2021-04-26_12h22.18.381,searchDisc4,2020.2.10,MacIntel,60,,,space,0.233,2,1,0.613,,0,193,193,533,1,2c,77,1,4,
,,,,,,,,,,,,,,,,,,,,,,,,,,images/exp1b_trial_45_colour2_distractors4_r.png,r,2,030,001,2021-04-26_12h22.18.381,searchDisc4,2020.2.10,MacIntel,60,,,space,0.209,2,1,0.575,,0,194,194,159,1,1b,45,2,4,
,,,,,,,,,,,,,,,,,,,,,,,,,,images/exp1b_trial_49_colour2_distractors43_r.png,r,2,030,001,2021-04-26_12h22.18.381,searchDisc4,2020.2.10,MacIntel,60,,,space,0.239,2,1,0.59,,0,195,195,163,1,1b,49,2,43,
,,,,,,,,,,,,,,,,,,,,,,,,,,images/exp2b_trial_45_colour2_distractors4_r.png,r,2,030,001,2021-04-26_12h22.18.381,searchDisc4,2020.2.10,MacIntel,60,,,space,0.241,2,1,0.571,,0,196,196,387,1,2b,45,2,4,
,,,,,,,,,,,,,,,,,,,,,,,,,,images/exp2c_trial_94_colour1_distractors1_l.png,l,1,030,001,2021-04-26_12h22.18.381,searchDisc4,2020.2.10,MacIntel,60,,,space,0.236,1,1,0.556,,0,197,197,550,1,2c,94,1,1,
,,,,,,,,,,,,,,,,,,,,,,,,,,images/exp1a_trial_20_colour1_distractors9_l.png,l,1,030,001,2021-04-26_12h22.18.381,searchDisc4,2020.2.10,MacIntel,60,,,space,0.3,1,1,0.574,,0,198,198,20,1,1a,20,1,9,
,,,,,,,,,,,,,,,,,,,,,,,,,,images/exp1a_trial_102_colour2_distractors9_l.png,l,1,030,001,2021-04-26_12h22.18.381,searchDisc4,2020.2.10,MacIntel,60,,,space,0.209,1,1,0.612,,0,199,199,102,1,1a,102,2,9,
,,,,,,,,,,,,,,,,,,,,,,,,,,images/exp2b_trial_105_colour2_distractors43_l.png,l,1,030,001,2021-04-26_12h22.18.381,searchDisc4,2020.2.10,MacIntel,60,,,space,0.297,1,1,0.63,,0,200,200,447,1,2b,105,2,43,
,,,,,,,,,,,,,,,,,,,,,,,,,,images/exp2b_trial_22_colour1_distractors31_l.png,l,1,030,001,2021-04-26_12h22.18.381,searchDisc4,2020.2.10,MacIntel,60,,,space,0.298,1,1,0.575,,0,201,201,364,1,2b,22,1,31,
,,,,,,,,,,,,,,,,,,,,,,,,,,images/exp2b_trial_26_colour2_distractors9_l.png,l,1,030,001,2021-04-26_12h22.18.381,searchDisc4,2020.2.10,MacIntel,60,,,space,0.275,1,1,0.583,,0,202,202,368,1,2b,26,2,9,
,,,,,,,,,,,,,,,,,,,,,,,,,,images/exp2c_trial_3_colour1_distractors19_r.png,r,2,030,001,2021-04-26_12h22.18.381,searchDisc4,2020.2.10,MacIntel,60,,,space,0.263,2,1,0.564,,0,203,203,459,1,2c,3,1,19,
,,,,,,,,,,,,,,,,,,,,,,,,,,images/exp2b_trial_104_colour2_distractors31_l.png,l,1,030,001,2021-04-26_12h22.18.381,searchDisc4,2020.2.10,MacIntel,60,,,space,0.232,1,1,0.671,,0,204,204,446,1,2b,104,2,31,
,,,,,,,,,,,,,,,,,,,,,,,,,,images/exp2b_trial_44_colour2_distractors1_r.png,r,2,030,001,2021-04-26_12h22.18.381,searchDisc4,2020.2.10,MacIntel,60,,,space,0.246,2,1,0.573,,0,205,205,386,1,2b,44,2,1,
,,,,,,,,,,,,,,,,,,,,,,,,,,images/exp1a_trial_67_colour2_distractors43_l.png,l,1,030,001,2021-04-26_12h22.18.381,searchDisc4,2020.2.10,MacIntel,60,,,space,0.211,1,1,0.707,,0,206,206,67,1,1a,67,2,43,
,,,,,,,,,,,,,,,,,,,,,,,,,,images/exp1b_trial_44_colour2_distractors1_r.png,r,2,030,001,2021-04-26_12h22.18.381,searchDisc4,2020.2.10,MacIntel,60,,,space,0.198,2,1,0.545,,0,207,207,158,1,1b,44,2,1,
,,,,,,,,,,,,,,,,,,,,,,,,,,images/exp1a_trial_103_colour2_distractors19_l.png,l,1,030,001,2021-04-26_12h22.18.381,searchDisc4,2020.2.10,MacIntel,60,,,space,0.212,1,1,0.821,,0,208,208,103,1,1a,103,2,19,
,,,,,,,,,,,,,,,,,,,,,,,,,,images/exp2a_trial_66_colour2_distractors31_l.png,l,1,030,001,2021-04-26_12h22.18.381,searchDisc4,2020.2.10,MacIntel,60,,,space,0.235,1,1,0.642,,0,209,209,294,1,2a,66,2,31,
,,,,,,,,,,,,,,,,,,,,,,,,,,images/exp1a_trial_87_colour2_distractors43_r.png,r,2,030,001,2021-04-26_12h22.18.381,searchDisc4,2020.2.10,MacIntel,60,,,space,0.167,2,1,0.762,,0,210,210,87,1,1a,87,2,43,
,,,,,,,,,,,,,,,,,,,,,,,,,,images/exp2c_trial_52_colour3_distractors9_r.png,r,2,030,001,2021-04-26_12h22.18.381,searchDisc4,2020.2.10,MacIntel,60,,,space,0.131,2,1,0.675,,0,211,211,508,1,2c,52,3,9,
,,,,,,,,,,,,,,,,,,,,,,,,,,images/exp2b_trial_36_colour0_distractors0_r.png,r,2,030,001,2021-04-26_12h22.18.381,searchDisc4,2020.2.10,MacIntel,60,,,space,0.198,2,1,0.561,,0,212,212,378,1,2b,36,0,0,
,,,,,,,,,,,,,,,,,,,,,,,,,,images/exp2b_trial_5_colour1_distractors43_r.png,r,2,030,001,2021-04-26_12h22.18.381,searchDisc4,2020.2.10,MacIntel,60,,,space,0.231,2,1,0.614,,0,213,213,347,1,2b,5,1,43,
,,,,,,,,,,,,,,,,,,,,,,,,,,images/exp1b_trial_42_colour1_distractors31_r.png,r,2,030,001,2021-04-26_12h22.18.381,searchDisc4,2020.2.10,MacIntel,60,,,space,0.232,2,1,0.63,,0,214,214,156,1,1b,42,1,31,
,,,,,,,,,,,,,,,,,,,,,,,,,,images/exp2a_trial_98_colour1_distractors31_l.png,l,1,030,001,2021-04-26_12h22.18.381,searchDisc4,2020.2.10,MacIntel,60,,,space,0.205,1,1,0.601,,0,215,215,326,1,2a,98,1,31,
,,,,,,,,,,,,,,,,,,,,,,,,,,images/exp1a_trial_89_colour3_distractors4_r.png,r,2,030,001,2021-04-26_12h22.18.381,searchDisc4,2020.2.10,MacIntel,60,,,space,0.279,1,0,0.648,,0,216,216,89,1,1a,89,3,4,
,,,,,,,,,,,,,,,,,,,,,,,,,,images/exp2c_trial_76_colour1_distractors1_r.png,r,2,030,001,2021-04-26_12h22.18.381,searchDisc4,2020.2.10,MacIntel,60,,,space,0.406,2,1,0.6,,0,217,217,532,1,2c,76,1,1,
,,,,,,,,,,,,,,,,,,,,,,,,,,images/exp2c_trial_113_colour0_distractors0_l.png,l,1,030,001,2021-04-26_12h22.18.381,searchDisc4,2020.2.10,MacIntel,60,,,space,0.263,1,1,0.566,,0,218,218,569,1,2c,113,0,0,
,,,,,,,,,,,,,,,,,,,,,,,,,,images/exp1b_trial_55_colour3_distractors43_r.png,r,2,030,001,2021-04-26_12h22.18.381,searchDisc4,2020.2.10,MacIntel,60,,,space,0.23,2,1,2.871,,0,219,219,169,1,1b,55,3,43,
,,,,,,,,,,,,,,,,,,,,,,,,,,images/exp1b_trial_98_colour1_distractors31_l.png,l,1,030,001,2021-04-26_12h22.18.381,searchDisc4,2020.2.10,MacIntel,60,,,space,0.265,1,1,0.816,,0,220,220,212,1,1b,98,1,31,
,,,,,,,,,,,,,,,,,,,,,,,,,,images/exp1b_trial_81_colour1_distractors43_r.png,r,2,030,001,2021-04-26_12h22.18.381,searchDisc4,2020.2.10,MacIntel,60,,,space,0.329,2,1,0.764,,0,221,221,195,1,1b,81,1,43,
,,,,,,,,,,,,,,,,,,,,,,,,,,images/exp2a_trial_93_colour3_distractors43_r.png,r,2,030,001,2021-04-26_12h22.18.381,searchDisc4,2020.2.10,MacIntel,60,,,space,0.365,2,1,0.728,,0,222,222,321,1,2a,93,3,43,
,,,,,,,,,,,,,,,,,,,,,,,,,,images/exp2a_trial_24_colour2_distractors1_l.png,l,1,030,001,2021-04-26_12h22.18.381,searchDisc4,2020.2.10,MacIntel,60,,,space,0.37,1,1,0.569,,0,223,223,252,1,2a,24,2,1,
,,,,,,,,,,,,,,,,,,,,,,,,,,images/exp2c_trial_28_colour2_distractors31_l.png,l,1,030,001,2021-04-26_12h22.18.381,searchDisc4,2020.2.10,MacIntel,60,,,space,0.303,1,1,0.707,,0,224,224,484,1,2c,28,2,31,
,,,,,,,,,,,,,,,,,,,,,,,,,,images/exp2a_trial_32_colour3_distractors9_l.png,l,1,030,001,2021-04-26_12h22.18.381,searchDisc4,2020.2.10,MacIntel,60,,,space,0.304,1,1,0.613,,0,225,225,260,1,2a,32,3,9,
,,,,,,,,,,,,,,,,,,,,,,,,,,images/exp2c_trial_59_colour1_distractors19_l.png,l,1,030,001,2021-04-26_12h22.18.381,searchDisc4,2020.2.10,MacIntel,60,,,space,0.265,1,1,0.594,,0,226,226,515,1,2c,59,1,19,
,,,,,,,,,,,,,,,,,,,,,,,,,,images/exp2a_trial_68_colour3_distractors1_l.png,l,1,030,001,2021-04-26_12h22.18.381,searchDisc4,2020.2.10,MacIntel,60,,,space,0.237,1,1,0.636,,0,227,227,296,1,2a,68,3,1,
,,,,,,,,,,,,,,,,,,,,,,,,,,images/exp1a_trial_59_colour1_distractors19_l.png,l,1,030,001,2021-04-26_12h22.18.381,searchDisc4,2020.2.10,MacIntel,60,,,space,0.275,1,1,0.647,,0,228,228,59,1,1a,59,1,19,
,,,,,,,,,,,,,,,,,,,,,,,,,,images/exp1a_trial_13_colour3_distractors4_r.png,r,2,030,001,2021-04-26_12h22.18.381,searchDisc4,2020.2.10,MacIntel,60,,,space,0.235,2,1,0.608,,0,229,229,13,1,1a,13,3,4,
,,,,,,,,,,,,,,,,,,,,,,,,,,images/exp2b_trial_12_colour3_distractors1_r.png,r,2,030,001,2021-04-26_12h22.18.381,searchDisc4,2020.2.10,MacIntel,60,,,space,0.237,2,1,0.607,,0,230,230,354,1,2b,12,3,1,
,,,,,,,,,,,,,,,,,,,,,,,,,,images/exp2b_trial_9_colour2_distractors19_r.png,r,2,030,001,2021-04-26_12h22.18.381,searchDisc4,2020.2.10,MacIntel,60,,,space,0.248,2,1,0.571,,0,231,231,351,1,2b,9,2,19,
,,,,,,,,,,,,,,,,,,,,,,,,,,images/exp2c_trial_61_colour1_distractors43_l.png,l,1,030,001,2021-04-26_12h22.18.381,searchDisc4,2020.2.10,MacIntel,60,,,space,0.297,1,1,0.619,,0,232,232,517,1,2c,61,1,43,
,,,,,,,,,,,,,,,,,,,,,,,,,,images/exp1a_trial_28_colour2_distractors31_l.png,l,1,030,001,2021-04-26_12h22.18.381,searchDisc4,2020.2.10,MacIntel,60,,,space,0.307,1,1,0.748,,0,233,233,28,1,1a,28,2,31,
,,,,,,,,,,,,,,,,,,,,,,,,,,images/exp2b_trial_1_colour1_distractors4_r.png,r,2,030,001,2021-04-26_12h22.18.381,searchDisc4,2020.2.10,MacIntel,60,,,space,0.344,2,1,0.844,,0,234,234,343,1,2b,1,1,4,
,,,,,,,,,,,,,,,,,,,,,,,,,,images/exp2b_trial_89_colour3_distractors4_r.png,r,2,030,001,2021-04-26_12h22.18.381,searchDisc4,2020.2.10,MacIntel,60,,,space,0.598,2,1,0.54,,0,235,235,431,1,2b,89,3,4,
,,,,,,,,,,,,,,,,,,,,,,,,,,images/exp1b_trial_10_colour2_distractors31_r.png,r,2,030,001,2021-04-26_12h22.18.381,searchDisc4,2020.2.10,MacIntel,60,,,space,0.397,2,1,0.612,,0,236,236,124,1,1b,10,2,31,
,,,,,,,,,,,,,,,,,,,,,,,,,,images/exp2a_trial_51_colour3_distractors4_r.png,r,2,030,001,2021-04-26_12h22.18.381,searchDisc4,2020.2.10,MacIntel,60,,,space,0.313,2,1,0.638,,0,237,237,279,1,2a,51,3,4,
,,,,,,,,,,,,,,,,,,,,,,,,,,images/exp1a_trial_30_colour3_distractors1_l.png,l,1,030,001,2021-04-26_12h22.18.381,searchDisc4,2020.2.10,MacIntel,60,,,space,0.302,1,1,0.571,,0,238,238,30,1,1a,30,3,1,
,,,,,,,,,,,,,,,,,,,,,,,,,,images/exp1a_trial_51_colour3_distractors4_r.png,r,2,030,001,2021-04-26_12h22.18.381,searchDisc4,2020.2.10,MacIntel,60,,,space,0.311,2,1,0.611,space,0,239,239,51,1,1a,51,3,4,0.288
,,,,,,,,,,,,,,,,,,,,,,,,,,images/exp1b_trial_109_colour3_distractors19_l.png,l,1,030,001,2021-04-26_12h22.18.381,searchDisc4,2020.2.10,MacIntel,60,,,space,0.572,1,1,1.676,,0,240,240,223,1,1b,109,3,19,
,,,,,,,,,,,,,,,,,,,,,,,,,,images/exp1a_trial_78_colour1_distractors9_r.png,r,2,030,001,2021-04-26_12h22.18.381,searchDisc4,2020.2.10,MacIntel,60,,,space,0.297,2,1,0.606,,0,241,241,78,1,1a,78,1,9,
,,,,,,,,,,,,,,,,,,,,,,,,,,images/exp2b_trial_109_colour3_distractors19_l.png,l,1,030,001,2021-04-26_12h22.18.381,searchDisc4,2020.2.10,MacIntel,60,,,space,0.297,1,1,0.567,,0,242,242,451,1,2b,109,3,19,
,,,,,,,,,,,,,,,,,,,,,,,,,,images/exp2a_trial_92_colour3_distractors31_r.png,r,2,030,001,2021-04-26_12h22.18.381,searchDisc4,2020.2.10,MacIntel,60,,,space,0.3,2,1,0.699,,0,243,243,320,1,2a,92,3,31,
,,,,,,,,,,,,,,,,,,,,,,,,,,images/exp2b_trial_17_colour3_distractors43_r.png,r,2,030,001,2021-04-26_12h22.18.381,searchDisc4,2020.2.10,MacIntel,60,,,space,0.363,2,1,0.599,,0,244,244,359,1,2b,17,3,43,
,,,,,,,,,,,,,,,,,,,,,,,,,,images/exp2b_trial_4_colour1_distractors31_r.png,r,2,030,001,2021-04-26_12h22.18.381,searchDisc4,2020.2.10,MacIntel,60,,,space,0.264,2,1,0.552,,0,245,245,346,1,2b,4,1,31,
,,,,,,,,,,,,,,,,,,,,,,,,,,images/exp1a_trial_82_colour2_distractors1_r.png,r,2,030,001,2021-04-26_12h22.18.381,searchDisc4,2020.2.10,MacIntel,60,,,space,0.28,2,1,0.549,,0,246,246,82,1,1a,82,2,1,
,,,,,,,,,,,,,,,,,,,,,,,,,,images/exp1a_trial_17_colour3_distractors43_r.png,r,2,030,001,2021-04-26_12h22.18.381,searchDisc4,2020.2.10,MacIntel,60,,,space,0.265,2,1,0.608,,0,247,247,17,1,1a,17,3,43,
,,,,,,,,,,,,,,,,,,,,,,,,,,images/exp1a_trial_12_colour3_distractors1_r.png,r,2,030,001,2021-04-26_12h22.18.381,searchDisc4,2020.2.10,MacIntel,60,,,space,0.231,2,1,0.682,,0,248,248,12,1,1a,12,3,1,
,,,,,,,,,,,,,,,,,,,,,,,,,,images/exp2c_trial_23_colour1_distractors43_l.png,l,1,030,001,2021-04-26_12h22.18.381,searchDisc4,2020.2.10,MacIntel,60,,,space,0.299,1,1,0.637,,0,249,249,479,1,2c,23,1,43,
,,,,,,,,,,,,,,,,,,,,,,,,,,images/exp1a_trial_111_colour3_distractors43_l.png,l,1,030,001,2021-04-26_12h22.18.381,searchDisc4,2020.2.10,MacIntel,60,,,space,0.264,1,1,0.662,,0,250,250,111,1,1a,111,3,43,
,,,,,,,,,,,,,,,,,,,,,,,,,,images/exp2b_trial_111_colour3_distractors43_l.png,l,1,030,001,2021-04-26_12h22.18.381,searchDisc4,2020.2.10,MacIntel,60,,,space,0.264,1,1,0.641,,0,251,251,453,1,2b,111,3,43,
,,,,,,,,,,,,,,,,,,,,,,,,,,images/exp1a_trial_86_colour2_distractors31_r.png,r,2,030,001,2021-04-26_12h22.18.381,searchDisc4,2020.2.10,MacIntel,60,,,space,0.237,2,1,0.843,,0,252,252,86,1,1a,86,2,31,
,,,,,,,,,,,,,,,,,,,,,,,,,,images/exp2c_trial_64_colour2_distractors9_l.png,l,1,030,001,2021-04-26_12h22.18.381,searchDisc4,2020.2.10,MacIntel,60,,,space,0.464,1,1,0.651,,0,253,253,520,1,2c,64,2,9,
,,,,,,,,,,,,,,,,,,,,,,,,,,images/exp2a_trial_71_colour3_distractors19_l.png,l,1,030,001,2021-04-26_12h22.18.381,searchDisc4,2020.2.10,MacIntel,60,,,space,0.399,1,1,0.583,,0,254,254,299,1,2a,71,3,19,
,,,,,,,,,,,,,,,,,,,,,,,,,,images/exp2a_trial_15_colour3_distractors19_r.png,r,2,030,001,2021-04-26_12h22.18.381,searchDisc4,2020.2.10,MacIntel,60,,,space,0.332,2,1,0.552,,0,255,255,243,1,2a,15,3,19,
,,,,,,,,,,,,,,,,,,,,,,,,,,images/exp1b_trial_61_colour1_distractors43_l.png,l,1,030,001,2021-04-26_12h22.18.381,searchDisc4,2020.2.10,MacIntel,60,,,space,0.3,1,1,0.674,,0,256,256,175,1,1b,61,1,43,
,,,,,,,,,,,,,,,,,,,,,,,,,,images/exp2b_trial_65_colour2_distractors19_l.png,l,1,030,001,2021-04-26_12h22.18.381,searchDisc4,2020.2.10,MacIntel,60,,,space,0.338,1,1,0.609,,0,257,257,407,1,2b,65,2,19,
,,,,,,,,,,,,,,,,,,,,,,,,,,images/exp2b_trial_83_colour2_distractors4_r.png,r,2,030,001,2021-04-26_12h22.18.381,searchDisc4,2020.2.10,MacIntel,60,,,space,0.299,2,1,0.579,,0,258,258,425,1,2b,83,2,4,
,,,,,,,,,,,,,,,,,,,,,,,,,,images/exp2c_trial_92_colour3_distractors31_r.png,r,2,030,001,2021-04-26_12h22.18.381,searchDisc4,2020.2.10,MacIntel,60,,,space,0.3,2,1,0.676,,0,259,259,548,1,2c,92,3,31,
,,,,,,,,,,,,,,,,,,,,,,,,,,images/exp1a_trial_90_colour3_distractors9_r.png,r,2,030,001,2021-04-26_12h22.18.381,searchDisc4,2020.2.10,MacIntel,60,,,space,0.279,2,1,0.679,,0,260,260,90,1,1a,90,3,9,
,,,,,,,,,,,,,,,,,,,,,,,,,,images/exp2c_trial_41_colour1_distractors19_r.png,r,2,030,001,2021-04-26_12h22.18.381,searchDisc4,2020.2.10,MacIntel,60,,,space,0.295,2,1,0.563,,0,261,261,497,1,2c,41,1,19,
,,,,,,,,,,,,,,,,,,,,,,,,,,images/exp1a_trial_80_colour1_distractors31_r.png,r,2,030,001,2021-04-26_12h22.18.381,searchDisc4,2020.2.10,MacIntel,60,,,space,0.205,2,1,0.574,,0,262,262,80,1,1a,80,1,31,
,,,,,,,,,,,,,,,,,,,,,,,,,,images/exp1a_trial_74_colour0_distractors0_r.png,r,2,030,001,2021-04-26_12h22.18.381,searchDisc4,2020.2.10,MacIntel,60,,,space,0.263,2,1,0.538,,0,263,263,74,1,1a,74,0,0,
,,,,,,,,,,,,,,,,,,,,,,,,,,images/exp2a_trial_36_colour0_distractors0_r.png,r,2,030,001,2021-04-26_12h22.18.381,searchDisc4,2020.2.10,MacIntel,60,,,space,0.212,2,1,0.53,,0,264,264,264,1,2a,36,0,0,
,,,,,,,,,,,,,,,,,,,,,,,,,,images/exp2c_trial_15_colour3_distractors19_r.png,r,2,030,001,2021-04-26_12h22.18.381,searchDisc4,2020.2.10,MacIntel,60,,,space,0.238,2,1,0.541,,0,265,265,471,1,2c,15,3,19,
,,,,,,,,,,,,,,,,,,,,,,,,,,images/exp2a_trial_79_colour1_distractors19_r.png,r,2,030,001,2021-04-26_12h22.18.381,searchDisc4,2020.2.10,MacIntel,60,,,space,0.331,2,1,0.54,,0,266,266,307,1,2a,79,1,19,
,,,,,,,,,,,,,,,,,,,,,,,,,,images/exp1b_trial_31_colour3_distractors4_l.png,l,1,030,001,2021-04-26_12h22.18.381,searchDisc4,2020.2.10,MacIntel,60,,,space,0.246,1,1,0.774,,0,267,267,145,1,1b,31,3,4,
,,,,,,,,,,,,,,,,,,,,,,,,,,images/exp2a_trial_4_colour1_distractors31_r.png,r,2,030,001,2021-04-26_12h22.18.381,searchDisc4,2020.2.10,MacIntel,60,,,space,0.465,2,1,0.542,,0,268,268,232,1,2a,4,1,31,
,,,,,,,,,,,,,,,,,,,,,,,,,,images/exp1b_trial_106_colour3_distractors1_l.png,l,1,030,001,2021-04-26_12h22.18.381,searchDisc4,2020.2.10,MacIntel,60,,,space,0.304,1,1,0.579,,0,269,269,220,1,1b,106,3,1,
,,,,,,,,,,,,,,,,,,,,,,,,,,images/exp1b_trial_26_colour2_distractors9_l.png,l,1,030,001,2021-04-26_12h22.18.381,searchDisc4,2020.2.10,MacIntel,60,,,space,0.296,1,1,0.642,,0,270,270,140,1,1b,26,2,9,
,,,,,,,,,,,,,,,,,,,,,,,,,,images/exp2b_trial_112_colour0_distractors0_r.png,r,2,030,001,2021-04-26_12h22.18.381,searchDisc4,2020.2.10,MacIntel,60,,,space,4.542,2,1,0.551,,0,271,271,454,1,2b,112,0,0,
,,,,,,,,,,,,,,,,,,,,,,,,,,images/exp2c_trial_29_colour2_distractors43_l.png,l,1,030,001,2021-04-26_12h22.18.381,searchDisc4,2020.2.10,MacIntel,60,,,space,0.397,1,1,0.611,,0,272,272,485,1,2c,29,2,43,
,,,,,,,,,,,,,,,,,,,,,,,,,,images/exp2c_trial_63_colour2_distractors4_l.png,l,1,030,001,2021-04-26_12h22.18.381,searchDisc4,2020.2.10,MacIntel,60,,,space,0.298,1,1,0.513,,0,273,273,519,1,2c,63,2,4,
,,,,,,,,,,,,,,,,,,,,,,,,,,images/exp2c_trial_37_colour0_distractors0_l.png,l,1,030,001,2021-04-26_12h22.18.381,searchDisc4,2020.2.10,MacIntel,60,,,space,0.368,1,1,0.495,,0,274,274,493,1,2c,37,0,0,
,,,,,,,,,,,,,,,,,,,,,,,,,,images/exp2b_trial_50_colour3_distractors1_r.png,r,2,030,001,2021-04-26_12h22.18.381,searchDisc4,2020.2.10,MacIntel,60,,,space,0.333,2,1,0.533,,0,275,275,392,1,2b,50,3,1,
,,,,,,,,,,,,,,,,,,,,,,,,,,images/exp1b_trial_8_colour2_distractors9_r.png,r,2,030,001,2021-04-26_12h22.18.381,searchDisc4,2020.2.10,MacIntel,60,,,space,0.365,2,1,0.929,,0,276,276,122,1,1b,8,2,9,
,,,,,,,,,,,,,,,,,,,,,,,,,,images/exp2c_trial_103_colour2_distractors19_l.png,l,1,030,001,2021-04-26_12h22.18.381,searchDisc4,2020.2.10,MacIntel,60,,,space,0.498,1,1,0.544,,0,277,277,559,1,2c,103,2,19,
,,,,,,,,,,,,,,,,,,,,,,,,,,images/exp2b_trial_72_colour3_distractors31_l.png,l,1,030,001,2021-04-26_12h22.18.381,searchDisc4,2020.2.10,MacIntel,60,,,space,0.337,1,1,0.574,,0,278,278,414,1,2b,72,3,31,
,,,,,,,,,,,,,,,,,,,,,,,,,,images/exp2a_trial_76_colour1_distractors1_r.png,r,2,030,001,2021-04-26_12h22.18.381,searchDisc4,2020.2.10,MacIntel,60,,,space,0.297,2,1,0.927,,0,279,279,304,1,2a,76,1,1,
,,,,,,,,,,,,,,,,,,,,,,,,,,images/exp2b_trial_53_colour3_distractors19_r.png,r,2,030,001,2021-04-26_12h22.18.381,searchDisc4,2020.2.10,MacIntel,60,,,space,0.498,2,1,0.834,,0,280,280,395,1,2b,53,3,19,
,,,,,,,,,,,,,,,,,,,,,,,,,,images/exp2b_trial_78_colour1_distractors9_r.png,r,2,030,001,2021-04-26_12h22.18.381,searchDisc4,2020.2.10,MacIntel,60,,,space,0.396,2,1,0.565,,0,281,281,420,1,2b,78,1,9,
,,,,,,,,,,,,,,,,,,,,,,,,,,images/exp2a_trial_37_colour0_distractors0_l.png,l,1,030,001,2021-04-26_12h22.18.381,searchDisc4,2020.2.10,MacIntel,60,,,space,0.41,1,1,0.529,,0,282,282,265,1,2a,37,0,0,
,,,,,,,,,,,,,,,,,,,,,,,,,,images/exp2a_trial_7_colour2_distractors4_r.png,r,2,030,001,2021-04-26_12h22.18.381,searchDisc4,2020.2.10,MacIntel,60,,,space,0.398,2,1,0.543,,0,283,283,235,1,2a,7,2,4,
,,,,,,,,,,,,,,,,,,,,,,,,,,images/exp2a_trial_12_colour3_distractors1_r.png,r,2,030,001,2021-04-26_12h22.18.381,searchDisc4,2020.2.10,MacIntel,60,,,space,0.412,2,1,0.57,,0,284,284,240,1,2a,12,3,1,
,,,,,,,,,,,,,,,,,,,,,,,,,,images/exp2c_trial_17_colour3_distractors43_r.png,r,2,030,001,2021-04-26_12h22.18.381,searchDisc4,2020.2.10,MacIntel,60,,,space,0.332,2,1,0.581,,0,285,285,473,1,2c,17,3,43,
,,,,,,,,,,,,,,,,,,,,,,,,,,images/exp2a_trial_87_colour2_distractors43_r.png,r,2,030,001,2021-04-26_12h22.18.381,searchDisc4,2020.2.10,MacIntel,60,,,space,0.362,2,1,0.536,,0,286,286,315,1,2a,87,2,43,
,,,,,,,,,,,,,,,,,,,,,,,,,,images/exp1a_trial_11_colour2_distractors43_r.png,r,2,030,001,2021-04-26_12h22.18.381,searchDisc4,2020.2.10,MacIntel,60,,,space,0.375,2,1,0.576,,0,287,287,11,1,1a,11,2,43,
,,,,,,,,,,,,,,,,,,,,,,,,,,images/exp1b_trial_89_colour3_distractors4_r.png,r,2,030,001,2021-04-26_12h22.18.381,searchDisc4,2020.2.10,MacIntel,60,,,space,0.298,2,1,0.874,,0,288,288,203,1,1b,89,3,4,
,,,,,,,,,,,,,,,,,,,,,,,,,,images/exp2c_trial_53_colour3_distractors19_r.png,r,2,030,001,2021-04-26_12h22.18.381,searchDisc4,2020.2.10,MacIntel,60,,,space,0.431,2,1,0.61,,0,289,289,509,1,2c,53,3,19,
,,,,,,,,,,,,,,,,,,,,,,,,,,images/exp2c_trial_98_colour1_distractors31_l.png,l,1,030,001,2021-04-26_12h22.18.381,searchDisc4,2020.2.10,MacIntel,60,,,space,0.4,1,1,0.664,,0,290,290,554,1,2c,98,1,31,
,,,,,,,,,,,,,,,,,,,,,,,,,,images/exp2b_trial_47_colour2_distractors19_r.png,r,2,030,001,2021-04-26_12h22.18.381,searchDisc4,2020.2.10,MacIntel,60,,,space,0.309,2,1,0.771,,0,291,291,389,1,2b,47,2,19,
,,,,,,,,,,,,,,,,,,,,,,,,,,images/exp2a_trial_82_colour2_distractors1_r.png,r,2,030,001,2021-04-26_12h22.18.381,searchDisc4,2020.2.10,MacIntel,60,,,space,0.309,2,1,0.537,,0,292,292,310,1,2a,82,2,1,
,,,,,,,,,,,,,,,,,,,,,,,,,,images/exp2c_trial_71_colour3_distractors19_l.png,l,1,030,001,2021-04-26_12h22.18.381,searchDisc4,2020.2.10,MacIntel,60,,,space,0.397,1,1,0.602,,0,293,293,527,1,2c,71,3,19,
,,,,,,,,,,,,,,,,,,,,,,,,,,images/exp2c_trial_22_colour1_distractors31_l.png,l,1,030,001,2021-04-26_12h22.18.381,searchDisc4,2020.2.10,MacIntel,60,,,space,0.407,1,1,0.628,,0,294,294,478,1,2c,22,1,31,
,,,,,,,,,,,,,,,,,,,,,,,,,,images/exp2c_trial_5_colour1_distractors43_r.png,r,2,030,001,2021-04-26_12h22.18.381,searchDisc4,2020.2.10,MacIntel,60,,,space,0.44,2,1,0.765,,0,295,295,461,1,2c,5,1,43,
,,,,,,,,,,,,,,,,,,,,,,,,,,images/exp2c_trial_102_colour2_distractors9_l.png,l,1,030,001,2021-04-26_12h22.18.381,searchDisc4,2020.2.10,MacIntel,60,,,space,0.398,1,1,0.609,,0,296,296,558,1,2c,102,2,9,
,,,,,,,,,,,,,,,,,,,,,,,,,,images/exp1b_trial_96_colour1_distractors9_l.png,l,1,030,001,2021-04-26_12h22.18.381,searchDisc4,2020.2.10,MacIntel,60,,,space,0.431,1,1,0.64,,0,297,297,210,1,1b,96,1,9,
,,,,,,,,,,,,,,,,,,,,,,,,,,images/exp2b_trial_69_colour3_distractors4_l.png,l,1,030,001,2021-04-26_12h22.18.381,searchDisc4,2020.2.10,MacIntel,60,,,space,0.406,1,1,0.602,,0,298,298,411,1,2b,69,3,4,
,,,,,,,,,,,,,,,,,,,,,,,,,,images/exp2a_trial_56_colour1_distractors1_l.png,l,1,030,001,2021-04-26_12h22.18.381,searchDisc4,2020.2.10,MacIntel,60,,,space,0.514,1,1,0.547,space,0,299,299,284,1,2a,56,1,1,3.128
,,,,,,,,,,,,,,,,,,,,,,,,,,images/exp2a_trial_99_colour1_distractors43_l.png,l,1,030,001,2021-04-26_12h22.18.381,searchDisc4,2020.2.10,MacIntel,60,,,space,0.646,1,1,0.577,,0,300,300,327,1,2a,99,1,43,
,,,,,,,,,,,,,,,,,,,,,,,,,,images/exp2b_trial_63_colour2_distractors4_l.png,l,1,030,001,2021-04-26_12h22.18.381,searchDisc4,2020.2.10,MacIntel,60,,,space,0.363,1,1,0.543,,0,301,301,405,1,2b,63,2,4,
,,,,,,,,,,,,,,,,,,,,,,,,,,images/exp1b_trial_72_colour3_distractors31_l.png,l,1,030,001,2021-04-26_12h22.18.381,searchDisc4,2020.2.10,MacIntel,60,,,space,0.298,1,1,0.85,,0,302,302,186,1,1b,72,3,31,
,,,,,,,,,,,,,,,,,,,,,,,,,,images/exp2a_trial_63_colour2_distractors4_l.png,l,1,030,001,2021-04-26_12h22.18.381,searchDisc4,2020.2.10,MacIntel,60,,,space,0.299,1,1,0.578,,0,303,303,291,1,2a,63,2,4,
,,,,,,,,,,,,,,,,,,,,,,,,,,images/exp1a_trial_25_colour2_distractors4_l.png,l,1,030,001,2021-04-26_12h22.18.381,searchDisc4,2020.2.10,MacIntel,60,,,space,0.33,1,1,0.677,,0,304,304,25,1,1a,25,2,4,
,,,,,,,,,,,,,,,,,,,,,,,,,,images/exp2b_trial_57_colour1_distractors4_l.png,l,1,030,001,2021-04-26_12h22.18.381,searchDisc4,2020.2.10,MacIntel,60,,,space,0.303,1,1,0.541,,0,305,305,399,1,2b,57,1,4,
,,,,,,,,,,,,,,,,,,,,,,,,,,images/exp1a_trial_98_colour1_distractors31_l.png,l,1,030,001,2021-04-26_12h22.18.381,searchDisc4,2020.2.10,MacIntel,60,,,space,0.364,1,1,0.66,,0,306,306,98,1,1a,98,1,31,
,,,,,,,,,,,,,,,,,,,,,,,,,,images/exp1b_trial_67_colour2_distractors43_l.png,l,1,030,001,2021-04-26_12h22.18.381,searchDisc4,2020.2.10,MacIntel,60,,,space,0.329,1,1,0.701,,0,307,307,181,1,1b,67,2,43,
,,,,,,,,,,,,,,,,,,,,,,,,,,images/exp2c_trial_84_colour2_distractors9_r.png,r,2,030,001,2021-04-26_12h22.18.381,searchDisc4,2020.2.10,MacIntel,60,,,space,0.405,2,1,0.63,,0,308,308,540,1,2c,84,2,9,
,,,,,,,,,,,,,,,,,,,,,,,,,,images/exp1a_trial_0_colour1_distractors1_r.png,r,2,030,001,2021-04-26_12h22.18.381,searchDisc4,2020.2.10,MacIntel,60,,,space,0.397,2,1,0.63,,0,309,309,0,1,1a,0,1,1,
,,,,,,,,,,,,,,,,,,,,,,,,,,images/exp1a_trial_43_colour1_distractors43_r.png,r,2,030,001,2021-04-26_12h22.18.381,searchDisc4,2020.2.10,MacIntel,60,,,space,0.341,2,1,0.632,,0,310,310,43,1,1a,43,1,43,
,,,,,,,,,,,,,,,,,,,,,,,,,,images/exp1b_trial_85_colour2_distractors19_r.png,r,2,030,001,2021-04-26_12h22.18.381,searchDisc4,2020.2.10,MacIntel,60,,,space,0.364,2,1,0.863,,0,311,311,199,1,1b,85,2,19,
,,,,,,,,,,,,,,,,,,,,,,,,,,images/exp2a_trial_62_colour2_distractors1_l.png,l,1,030,001,2021-04-26_12h22.18.381,searchDisc4,2020.2.10,MacIntel,60,,,space,0.306,1,1,0.562,,0,312,312,290,1,2a,62,2,1,
,,,,,,,,,,,,,,,,,,,,,,,,,,images/exp2a_trial_8_colour2_distractors9_r.png,r,2,030,001,2021-04-26_12h22.18.381,searchDisc4,2020.2.10,MacIntel,60,,,space,0.398,2,1,0.576,,0,313,313,236,1,2a,8,2,9,
,,,,,,,,,,,,,,,,,,,,,,,,,,images/exp2c_trial_62_colour2_distractors1_l.png,l,1,030,001,2021-04-26_12h22.18.381,searchDisc4,2020.2.10,MacIntel,60,,,space,0.43,1,1,0.696,,0,314,314,518,1,2c,62,2,1,
,,,,,,,,,,,,,,,,,,,,,,,,,,images/exp1b_trial_24_colour2_distractors1_l.png,l,1,030,001,2021-04-26_12h22.18.381,searchDisc4,2020.2.10,MacIntel,60,,,space,0.365,1,1,0.577,,0,315,315,138,1,1b,24,2,1,
,,,,,,,,,,,,,,,,,,,,,,,,,,images/exp1b_trial_37_colour0_distractors0_l.png,l,1,030,001,2021-04-26_12h22.18.381,searchDisc4,2020.2.10,MacIntel,60,,,space,0.364,1,1,0.531,,0,316,316,151,1,1b,37,0,0,
,,,,,,,,,,,,,,,,,,,,,,,,,,images/exp1b_trial_46_colour2_distractors9_r.png,r,2,030,001,2021-04-26_12h22.18.381,searchDisc4,2020.2.10,MacIntel,60,,,space,0.342,2,1,0.642,,0,317,317,160,1,1b,46,2,9,
,,,,,,,,,,,,,,,,,,,,,,,,,,images/exp2b_trial_61_colour1_distractors43_l.png,l,1,030,001,2021-04-26_12h22.18.381,searchDisc4,2020.2.10,MacIntel,60,,,space,0.429,1,1,0.629,,0,318,318,403,1,2b,61,1,43,
,,,,,,,,,,,,,,,,,,,,,,,,,,images/exp2c_trial_2_colour1_distractors9_r.png,r,2,030,001,2021-04-26_12h22.18.381,searchDisc4,2020.2.10,MacIntel,60,,,space,0.465,2,1,0.614,,0,319,319,458,1,2c,2,1,9,
,,,,,,,,,,,,,,,,,,,,,,,,,,images/exp2c_trial_55_colour3_distractors43_r.png,r,2,030,001,2021-04-26_12h22.18.381,searchDisc4,2020.2.10,MacIntel,60,,,space,0.37,2,1,0.732,,0,320,320,511,1,2c,55,3,43,
,,,,,,,,,,,,,,,,,,,,,,,,,,images/exp2c_trial_105_colour2_distractors43_l.png,l,1,030,001,2021-04-26_12h22.18.381,searchDisc4,2020.2.10,MacIntel,60,,,space,0.429,1,1,0.665,,0,321,321,561,1,2c,105,2,43,
,,,,,,,,,,,,,,,,,,,,,,,,,,images/exp1a_trial_53_colour3_distractors19_r.png,r,2,030,001,2021-04-26_12h22.18.381,searchDisc4,2020.2.10,MacIntel,60,,,space,0.335,2,1,0.578,,0,322,322,53,1,1a,53,3,19,
,,,,,,,,,,,,,,,,,,,,,,,,,,images/exp1b_trial_87_colour2_distractors43_r.png,r,2,030,001,2021-04-26_12h22.18.381,searchDisc4,2020.2.10,MacIntel,60,,,space,0.379,2,1,0.598,,0,323,323,201,1,1b,87,2,43,
,,,,,,,,,,,,,,,,,,,,,,,,,,images/exp1b_trial_57_colour1_distractors4_l.png,l,1,030,001,2021-04-26_12h22.18.381,searchDisc4,2020.2.10,MacIntel,60,,,space,0.364,1,1,0.679,,0,324,324,171,1,1b,57,1,4,
,,,,,,,,,,,,,,,,,,,,,,,,,,images/exp1a_trial_24_colour2_distractors1_l.png,l,1,030,001,2021-04-26_12h22.18.381,searchDisc4,2020.2.10,MacIntel,60,,,space,0.33,1,1,0.61,,0,325,325,24,1,1a,24,2,1,
,,,,,,,,,,,,,,,,,,,,,,,,,,images/exp2c_trial_112_colour0_distractors0_r.png,r,2,030,001,2021-04-26_12h22.18.381,searchDisc4,2020.2.10,MacIntel,60,,,space,0.438,2,1,0.797,,0,326,326,568,1,2c,112,0,0,
,,,,,,,,,,,,,,,,,,,,,,,,,,images/exp1a_trial_107_colour3_distractors4_l.png,l,1,030,001,2021-04-26_12h22.18.381,searchDisc4,2020.2.10,MacIntel,60,,,space,0.571,1,1,0.525,,0,327,327,107,1,1a,107,3,4,
,,,,,,,,,,,,,,,,,,,,,,,,,,images/exp2b_trial_13_colour3_distractors4_r.png,r,2,030,001,2021-04-26_12h22.18.381,searchDisc4,2020.2.10,MacIntel,60,,,space,0.474,2,1,0.514,,0,328,328,355,1,2b,13,3,4,
,,,,,,,,,,,,,,,,,,,,,,,,,,images/exp2b_trial_42_colour1_distractors31_r.png,r,2,030,001,2021-04-26_12h22.18.381,searchDisc4,2020.2.10,MacIntel,60,,,space,0.446,2,1,0.576,,0,329,329,384,1,2b,42,1,31,
,,,,,,,,,,,,,,,,,,,,,,,,,,images/exp2c_trial_91_colour3_distractors19_r.png,r,2,030,001,2021-04-26_12h22.18.381,searchDisc4,2020.2.10,MacIntel,60,,,space,0.404,2,1,0.577,,0,330,330,547,1,2c,91,3,19,
,,,,,,,,,,,,,,,,,,,,,,,,,,images/exp1b_trial_66_colour2_distractors31_l.png,l,1,030,001,2021-04-26_12h22.18.381,searchDisc4,2020.2.10,MacIntel,60,,,space,0.412,1,1,0.708,,0,331,331,180,1,1b,66,2,31,
,,,,,,,,,,,,,,,,,,,,,,,,,,images/exp2b_trial_60_colour1_distractors31_l.png,l,1,030,001,2021-04-26_12h22.18.381,searchDisc4,2020.2.10,MacIntel,60,,,space,0.405,1,1,0.542,,0,332,332,402,1,2b,60,1,31,
,,,,,,,,,,,,,,,,,,,,,,,,,,images/exp2c_trial_65_colour2_distractors19_l.png,l,1,030,001,2021-04-26_12h22.18.381,searchDisc4,2020.2.10,MacIntel,60,,,space,0.41,1,1,0.622,,0,333,333,521,1,2c,65,2,19,
,,,,,,,,,,,,,,,,,,,,,,,,,,images/exp2b_trial_94_colour1_distractors1_l.png,l,1,030,001,2021-04-26_12h22.18.381,searchDisc4,2020.2.10,MacIntel,60,,,space,0.435,1,1,0.567,,0,334,334,436,1,2b,94,1,1,
,,,,,,,,,,,,,,,,,,,,,,,,,,images/exp1a_trial_29_colour2_distractors43_l.png,l,1,030,001,2021-04-26_12h22.18.381,searchDisc4,2020.2.10,MacIntel,60,,,space,0.412,2,0,0.588,,0,335,335,29,1,1a,29,2,43,
,,,,,,,,,,,,,,,,,,,,,,,,,,images/exp2a_trial_103_colour2_distractors19_l.png,l,1,030,001,2021-04-26_12h22.18.381,searchDisc4,2020.2.10,MacIntel,60,,,space,0.407,1,1,0.662,,0,336,336,331,1,2a,103,2,19,
,,,,,,,,,,,,,,,,,,,,,,,,,,images/exp2a_trial_27_colour2_distractors19_l.png,l,1,030,001,2021-04-26_12h22.18.381,searchDisc4,2020.2.10,MacIntel,60,,,space,0.33,1,1,0.66,,0,337,337,255,1,2a,27,2,19,
,,,,,,,,,,,,,,,,,,,,,,,,,,images/exp1a_trial_99_colour1_distractors43_l.png,l,1,030,001,2021-04-26_12h22.18.381,searchDisc4,2020.2.10,MacIntel,60,,,space,0.341,1,1,0.631,,0,338,338,99,1,1a,99,1,43,
,,,,,,,,,,,,,,,,,,,,,,,,,,images/exp2c_trial_6_colour2_distractors1_r.png,r,2,030,001,2021-04-26_12h22.18.381,searchDisc4,2020.2.10,MacIntel,60,,,space,0.407,2,1,0.543,,0,339,339,462,1,2c,6,2,1,
,,,,,,,,,,,,,,,,,,,,,,,,,,images/exp1a_trial_6_colour2_distractors1_r.png,r,2,030,001,2021-04-26_12h22.18.381,searchDisc4,2020.2.10,MacIntel,60,,,space,0.364,2,1,0.573,,0,340,340,6,1,1a,6,2,1,
,,,,,,,,,,,,,,,,,,,,,,,,,,images/exp2a_trial_73_colour3_distractors43_l.png,l,1,030,001,2021-04-26_12h22.18.381,searchDisc4,2020.2.10,MacIntel,60,,,space,0.403,2,0,0.538,,0,341,341,301,1,2a,73,3,43,
,,,,,,,,,,,,,,,,,,,,,,,,,,images/exp2c_trial_68_colour3_distractors1_l.png,l,1,030,001,2021-04-26_12h22.18.381,searchDisc4,2020.2.10,MacIntel,60,,,space,0.37,1,1,0.598,,0,342,342,524,1,2c,68,3,1,
,,,,,,,,,,,,,,,,,,,,,,,,,,images/exp2a_trial_91_colour3_distractors19_r.png,r,2,030,001,2021-04-26_12h22.18.381,searchDisc4,2020.2.10,MacIntel,60,,,space,0.407,2,1,0.671,,0,343,343,319,1,2a,91,3,19,
,,,,,,,,,,,,,,,,,,,,,,,,,,images/exp1b_trial_77_colour1_distractors4_r.png,r,2,030,001,2021-04-26_12h22.18.381,searchDisc4,2020.2.10,MacIntel,60,,,space,0.33,2,1,0.799,,0,344,344,191,1,1b,77,1,4,
,,,,,,,,,,,,,,,,,,,,,,,,,,images/exp2b_trial_0_colour1_distractors1_r.png,r,2,030,001,2021-04-26_12h22.18.381,searchDisc4,2020.2.10,MacIntel,60,,,space,0.398,2,1,0.547,,0,345,345,342,1,2b,0,1,1,
,,,,,,,,,,,,,,,,,,,,,,,,,,images/exp1a_trial_15_colour3_distractors19_r.png,r,2,030,001,2021-04-26_12h22.18.381,searchDisc4,2020.2.10,MacIntel,60,,,space,0.398,2,1,0.641,,0,346,346,15,1,1a,15,3,19,
,,,,,,,,,,,,,,,,,,,,,,,,,,images/exp1a_trial_84_colour2_distractors9_r.png,r,2,030,001,2021-04-26_12h22.18.381,searchDisc4,2020.2.10,MacIntel,60,,,space,0.362,2,1,0.598,,0,347,347,84,1,1a,84,2,9,
,,,,,,,,,,,,,,,,,,,,,,,,,,images/exp2a_trial_113_colour0_distractors0_l.png,l,1,030,001,2021-04-26_12h22.18.381,searchDisc4,2020.2.10,MacIntel,60,,,space,0.413,1,1,0.511,,0,348,348,341,1,2a,113,0,0,
,,,,,,,,,,,,,,,,,,,,,,,,,,images/exp1a_trial_106_colour3_distractors1_l.png,l,1,030,001,2021-04-26_12h22.18.381,searchDisc4,2020.2.10,MacIntel,60,,,space,0.366,1,1,0.575,,0,349,349,106,1,1a,106,3,1,
,,,,,,,,,,,,,,,,,,,,,,,,,,images/exp1a_trial_85_colour2_distractors19_r.png,r,2,030,001,2021-04-26_12h22.18.381,searchDisc4,2020.2.10,MacIntel,60,,,space,0.404,2,1,0.631,,0,350,350,85,1,1a,85,2,19,
,,,,,,,,,,,,,,,,,,,,,,,,,,images/exp2b_trial_49_colour2_distractors43_r.png,r,2,030,001,2021-04-26_12h22.18.381,searchDisc4,2020.2.10,MacIntel,60,,,space,0.399,2,1,0.707,,0,351,351,391,1,2b,49,2,43,
,,,,,,,,,,,,,,,,,,,,,,,,,,images/exp1b_trial_9_colour2_distractors19_r.png,r,2,030,001,2021-04-26_12h22.18.381,searchDisc4,2020.2.10,MacIntel,60,,,space,0.399,2,1,0.708,,0,352,352,123,1,1b,9,2,19,
,,,,,,,,,,,,,,,,,,,,,,,,,,images/exp2b_trial_31_colour3_distractors4_l.png,l,1,030,001,2021-04-26_12h22.18.381,searchDisc4,2020.2.10,MacIntel,60,,,space,0.37,1,1,0.719,,0,353,353,373,1,2b,31,3,4,
,,,,,,,,,,,,,,,,,,,,,,,,,,images/exp1a_trial_5_colour1_distractors43_r.png,r,2,030,001,2021-04-26_12h22.18.381,searchDisc4,2020.2.10,MacIntel,60,,,space,0.368,2,1,0.633,,0,354,354,5,1,1a,5,1,43,
,,,,,,,,,,,,,,,,,,,,,,,,,,images/exp2a_trial_43_colour1_distractors43_r.png,r,2,030,001,2021-04-26_12h22.18.381,searchDisc4,2020.2.10,MacIntel,60,,,space,0.381,2,1,0.578,,0,355,355,271,1,2a,43,1,43,
,,,,,,,,,,,,,,,,,,,,,,,,,,images/exp1b_trial_103_colour2_distractors19_l.png,l,1,030,001,2021-04-26_12h22.18.381,searchDisc4,2020.2.10,MacIntel,60,,,space,0.43,1,1,0.676,,0,356,356,217,1,1b,103,2,19,
,,,,,,,,,,,,,,,,,,,,,,,,,,images/exp1b_trial_56_colour1_distractors1_l.png,l,1,030,001,2021-04-26_12h22.18.381,searchDisc4,2020.2.10,MacIntel,60,,,space,0.373,1,1,0.541,,0,357,357,170,1,1b,56,1,1,
,,,,,,,,,,,,,,,,,,,,,,,,,,images/exp2a_trial_48_colour2_distractors31_r.png,r,2,030,001,2021-04-26_12h22.18.381,searchDisc4,2020.2.10,MacIntel,60,,,space,0.364,2,1,0.572,,0,358,358,276,1,2a,48,2,31,
,,,,,,,,,,,,,,,,,,,,,,,,,,images/exp1a_trial_41_colour1_distractors19_r.png,r,2,030,001,2021-04-26_12h22.18.381,searchDisc4,2020.2.10,MacIntel,60,,,space,0.336,1,0,0.632,space,0,359,359,41,1,1a,41,1,19,2.359
,,,,,,,,,,,,,,,,,,,,,,,,,,images/exp2c_trial_20_colour1_distractors9_l.png,l,1,030,001,2021-04-26_12h22.18.381,searchDisc4,2020.2.10,MacIntel,60,,,space,0.44,1,1,0.575,,0,360,360,476,1,2c,20,1,9,
,,,,,,,,,,,,,,,,,,,,,,,,,,images/exp2c_trial_54_colour3_distractors31_r.png,r,2,030,001,2021-04-26_12h22.18.381,searchDisc4,2020.2.10,MacIntel,60,,,space,0.364,2,1,0.566,,0,361,361,510,1,2c,54,3,31,
,,,,,,,,,,,,,,,,,,,,,,,,,,images/exp2c_trial_25_colour2_distractors4_l.png,l,1,030,001,2021-04-26_12h22.18.381,searchDisc4,2020.2.10,MacIntel,60,,,space,0.407,1,1,0.641,,0,362,362,481,1,2c,25,2,4,
,,,,,,,,,,,,,,,,,,,,,,,,,,images/exp2b_trial_52_colour3_distractors9_r.png,r,2,030,001,2021-04-26_12h22.18.381,searchDisc4,2020.2.10,MacIntel,60,,,space,0.397,2,1,0.543,,0,363,363,394,1,2b,52,3,9,
,,,,,,,,,,,,,,,,,,,,,,,,,,images/exp2b_trial_103_colour2_distractors19_l.png,l,1,030,001,2021-04-26_12h22.18.381,searchDisc4,2020.2.10,MacIntel,60,,,space,0.397,1,1,0.533,,0,364,364,445,1,2b,103,2,19,
,,,,,,,,,,,,,,,,,,,,,,,,,,images/exp2c_trial_4_colour1_distractors31_r.png,r,2,030,001,2021-04-26_12h22.18.381,searchDisc4,2020.2.10,MacIntel,60,,,space,0.364,2,1,0.576,,0,365,365,460,1,2c,4,1,31,
,,,,,,,,,,,,,,,,,,,,,,,,,,images/exp1a_trial_75_colour0_distractors0_l.png,l,1,030,001,2021-04-26_12h22.18.381,searchDisc4,2020.2.10,MacIntel,60,,,space,0.308,1,1,0.809,,0,366,366,75,1,1a,75,0,0,
,,,,,,,,,,,,,,,,,,,,,,,,,,images/exp2b_trial_92_colour3_distractors31_r.png,r,2,030,001,2021-04-26_12h22.18.381,searchDisc4,2020.2.10,MacIntel,60,,,space,0.265,2,1,0.911,,0,367,367,434,1,2b,92,3,31,
,,,,,,,,,,,,,,,,,,,,,,,,,,images/exp1b_trial_12_colour3_distractors1_r.png,r,2,030,001,2021-04-26_12h22.18.381,searchDisc4,2020.2.10,MacIntel,60,,,space,0.338,2,1,0.603,,0,368,368,126,1,1b,12,3,1,
,,,,,,,,,,,,,,,,,,,,,,,,,,images/exp2a_trial_28_colour2_distractors31_l.png,l,1,030,001,2021-04-26_12h22.18.381,searchDisc4,2020.2.10,MacIntel,60,,,space,0.365,1,1,0.523,,0,369,369,256,1,2a,28,2,31,
,,,,,,,,,,,,,,,,,,,,,,,,,,images/exp1b_trial_43_colour1_distractors43_r.png,r,2,030,001,2021-04-26_12h22.18.381,searchDisc4,2020.2.10,MacIntel,60,,,space,0.369,2,1,0.696,,0,370,370,157,1,1b,43,1,43,
,,,,,,,,,,,,,,,,,,,,,,,,,,images/exp1b_trial_95_colour1_distractors4_l.png,l,1,030,001,2021-04-26_12h22.18.381,searchDisc4,2020.2.10,MacIntel,60,,,space,0.28,1,1,0.589,,0,371,371,209,1,1b,95,1,4,
,,,,,,,,,,,,,,,,,,,,,,,,,,images/exp1b_trial_25_colour2_distractors4_l.png,l,1,030,001,2021-04-26_12h22.18.381,searchDisc4,2020.2.10,MacIntel,60,,,space,0.263,1,1,0.751,,0,372,372,139,1,1b,25,2,4,
,,,,,,,,,,,,,,,,,,,,,,,,,,images/exp2c_trial_89_colour3_distractors4_r.png,r,2,030,001,2021-04-26_12h22.18.381,searchDisc4,2020.2.10,MacIntel,60,,,space,0.344,2,1,0.578,,0,373,373,545,1,2c,89,3,4,
,,,,,,,,,,,,,,,,,,,,,,,,,,images/exp1b_trial_32_colour3_distractors9_l.png,l,1,030,001,2021-04-26_12h22.18.381,searchDisc4,2020.2.10,MacIntel,60,,,space,0.332,1,1,1.068,,0,374,374,146,1,1b,32,3,9,
,,,,,,,,,,,,,,,,,,,,,,,,,,images/exp2b_trial_43_colour1_distractors43_r.png,r,2,030,001,2021-04-26_12h22.18.381,searchDisc4,2020.2.10,MacIntel,60,,,space,0.41,2,1,0.673,,0,375,375,385,1,2b,43,1,43,
,,,,,,,,,,,,,,,,,,,,,,,,,,images/exp1b_trial_7_colour2_distractors4_r.png,r,2,030,001,2021-04-26_12h22.18.381,searchDisc4,2020.2.10,MacIntel,60,,,space,0.342,2,1,0.745,,0,376,376,121,1,1b,7,2,4,
,,,,,,,,,,,,,,,,,,,,,,,,,,images/exp2b_trial_73_colour3_distractors43_l.png,l,1,030,001,2021-04-26_12h22.18.381,searchDisc4,2020.2.10,MacIntel,60,,,space,0.33,1,1,0.709,,0,377,377,415,1,2b,73,3,43,
,,,,,,,,,,,,,,,,,,,,,,,,,,images/exp2b_trial_35_colour3_distractors43_l.png,l,1,030,001,2021-04-26_12h22.18.381,searchDisc4,2020.2.10,MacIntel,60,,,space,0.297,1,1,0.563,,0,378,378,377,1,2b,35,3,43,
,,,,,,,,,,,,,,,,,,,,,,,,,,images/exp2b_trial_56_colour1_distractors1_l.png,l,1,030,001,2021-04-26_12h22.18.381,searchDisc4,2020.2.10,MacIntel,60,,,space,0.274,1,1,0.555,,0,379,379,398,1,2b,56,1,1,
,,,,,,,,,,,,,,,,,,,,,,,,,,images/exp2c_trial_57_colour1_distractors4_l.png,l,1,030,001,2021-04-26_12h22.18.381,searchDisc4,2020.2.10,MacIntel,60,,,space,0.445,1,1,0.557,,0,380,380,513,1,2c,57,1,4,
,,,,,,,,,,,,,,,,,,,,,,,,,,images/exp2c_trial_100_colour2_distractors1_l.png,l,1,030,001,2021-04-26_12h22.18.381,searchDisc4,2020.2.10,MacIntel,60,,,space,0.266,1,1,0.575,,0,381,381,556,1,2c,100,2,1,
,,,,,,,,,,,,,,,,,,,,,,,,,,images/exp1b_trial_41_colour1_distractors19_r.png,r,2,030,001,2021-04-26_12h22.18.381,searchDisc4,2020.2.10,MacIntel,60,,,space,0.271,2,1,0.68,,0,382,382,155,1,1b,41,1,19,
,,,,,,,,,,,,,,,,,,,,,,,,,,images/exp2a_trial_110_colour3_distractors31_l.png,l,1,030,001,2021-04-26_12h22.18.381,searchDisc4,2020.2.10,MacIntel,60,,,space,0.272,1,1,0.647,,0,383,383,338,1,2a,110,3,31,
,,,,,,,,,,,,,,,,,,,,,,,,,,images/exp1a_trial_79_colour1_distractors19_r.png,r,2,030,001,2021-04-26_12h22.18.381,searchDisc4,2020.2.10,MacIntel,60,,,space,0.265,2,1,0.629,,0,384,384,79,1,1a,79,1,19,
,,,,,,,,,,,,,,,,,,,,,,,,,,images/exp1a_trial_22_colour1_distractors31_l.png,l,1,030,001,2021-04-26_12h22.18.381,searchDisc4,2020.2.10,MacIntel,60,,,space,0.23,1,1,0.676,,0,385,385,22,1,1a,22,1,31,
,,,,,,,,,,,,,,,,,,,,,,,,,,images/exp2b_trial_101_colour2_distractors4_l.png,l,1,030,001,2021-04-26_12h22.18.381,searchDisc4,2020.2.10,MacIntel,60,,,space,0.298,1,1,0.54,,0,386,386,443,1,2b,101,2,4,
,,,,,,,,,,,,,,,,,,,,,,,,,,images/exp2b_trial_74_colour0_distractors0_r.png,r,2,030,001,2021-04-26_12h22.18.381,searchDisc4,2020.2.10,MacIntel,60,,,space,0.303,2,1,0.608,,0,387,387,416,1,2b,74,0,0,
,,,,,,,,,,,,,,,,,,,,,,,,,,images/exp2c_trial_24_colour2_distractors1_l.png,l,1,030,001,2021-04-26_12h22.18.381,searchDisc4,2020.2.10,MacIntel,60,,,space,0.332,1,1,0.591,,0,388,388,480,1,2c,24,2,1,
,,,,,,,,,,,,,,,,,,,,,,,,,,images/exp1b_trial_23_colour1_distractors43_l.png,l,1,030,001,2021-04-26_12h22.18.381,searchDisc4,2020.2.10,MacIntel,60,,,space,0.296,1,1,0.643,,0,389,389,137,1,1b,23,1,43,
,,,,,,,,,,,,,,,,,,,,,,,,,,images/exp1a_trial_38_colour1_distractors1_r.png,r,2,030,001,2021-04-26_12h22.18.381,searchDisc4,2020.2.10,MacIntel,60,,,space,0.24,2,1,0.598,,0,390,390,38,1,1a,38,1,1,
,,,,,,,,,,,,,,,,,,,,,,,,,,images/exp2a_trial_2_colour1_distractors9_r.png,r,2,030,001,2021-04-26_12h22.18.381,searchDisc4,2020.2.10,MacIntel,60,,,space,0.282,2,1,0.583,,0,391,391,230,1,2a,2,1,9,
,,,,,,,,,,,,,,,,,,,,,,,,,,images/exp1b_trial_107_colour3_distractors4_l.png,l,1,030,001,2021-04-26_12h22.18.381,searchDisc4,2020.2.10,MacIntel,60,,,space,0.276,1,1,0.797,,0,392,392,221,1,1b,107,3,4,
,,,,,,,,,,,,,,,,,,,,,,,,,,images/exp1b_trial_48_colour2_distractors31_r.png,r,2,030,001,2021-04-26_12h22.18.381,searchDisc4,2020.2.10,MacIntel,60,,,space,0.232,2,1,0.644,,0,393,393,162,1,1b,48,2,31,
,,,,,,,,,,,,,,,,,,,,,,,,,,images/exp1a_trial_52_colour3_distractors9_r.png,r,2,030,001,2021-04-26_12h22.18.381,searchDisc4,2020.2.10,MacIntel,60,,,space,0.273,2,1,0.587,,0,394,394,52,1,1a,52,3,9,
,,,,,,,,,,,,,,,,,,,,,,,,,,images/exp2a_trial_112_colour0_distractors0_r.png,r,2,030,001,2021-04-26_12h22.18.381,searchDisc4,2020.2.10,MacIntel,60,,,space,0.268,2,1,0.547,,0,395,395,340,1,2a,112,0,0,
,,,,,,,,,,,,,,,,,,,,,,,,,,images/exp2a_trial_33_colour3_distractors19_l.png,l,1,030,001,2021-04-26_12h22.18.381,searchDisc4,2020.2.10,MacIntel,60,,,space,0.332,1,1,0.627,,0,396,396,261,1,2a,33,3,19,
,,,,,,,,,,,,,,,,,,,,,,,,,,images/exp2b_trial_84_colour2_distractors9_r.png,r,2,030,001,2021-04-26_12h22.18.381,searchDisc4,2020.2.10,MacIntel,60,,,space,0.198,2,1,0.65,,0,397,397,426,1,2b,84,2,9,
,,,,,,,,,,,,,,,,,,,,,,,,,,images/exp2a_trial_25_colour2_distractors4_l.png,l,1,030,001,2021-04-26_12h22.18.381,searchDisc4,2020.2.10,MacIntel,60,,,space,0.266,1,1,0.586,,0,398,398,253,1,2a,25,2,4,
,,,,,,,,,,,,,,,,,,,,,,,,,,images/exp2c_trial_82_colour2_distractors1_r.png,r,2,030,001,2021-04-26_12h22.18.381,searchDisc4,2020.2.10,MacIntel,60,,,space,0.279,2,1,0.574,,0,399,399,538,1,2c,82,2,1,
,,,,,,,,,,,,,,,,,,,,,,,,,,images/exp2a_trial_102_colour2_distractors9_l.png,l,1,030,001,2021-04-26_12h22.18.381,searchDisc4,2020.2.10,MacIntel,60,,,space,0.241,1,1,0.553,,0,400,400,330,1,2a,102,2,9,
,,,,,,,,,,,,,,,,,,,,,,,,,,images/exp2a_trial_38_colour1_distractors1_r.png,r,2,030,001,2021-04-26_12h22.18.381,searchDisc4,2020.2.10,MacIntel,60,,,space,0.278,2,1,0.537,,0,401,401,266,1,2a,38,1,1,
,,,,,,,,,,,,,,,,,,,,,,,,,,images/exp2c_trial_56_colour1_distractors1_l.png,l,1,030,001,2021-04-26_12h22.18.381,searchDisc4,2020.2.10,MacIntel,60,,,space,0.264,1,1,0.636,,0,402,402,512,1,2c,56,1,1,
,,,,,,,,,,,,,,,,,,,,,,,,,,images/exp2c_trial_67_colour2_distractors43_l.png,l,1,030,001,2021-04-26_12h22.18.381,searchDisc4,2020.2.10,MacIntel,60,,,space,0.264,1,1,0.631,,0,403,403,523,1,2c,67,2,43,
,,,,,,,,,,,,,,,,,,,,,,,,,,images/exp2b_trial_33_colour3_distractors19_l.png,l,1,030,001,2021-04-26_12h22.18.381,searchDisc4,2020.2.10,MacIntel,60,,,space,0.239,1,1,0.632,,0,404,404,375,1,2b,33,3,19,
,,,,,,,,,,,,,,,,,,,,,,,,,,images/exp2a_trial_45_colour2_distractors4_r.png,r,2,030,001,2021-04-26_12h22.18.381,searchDisc4,2020.2.10,MacIntel,60,,,space,0.3,2,1,0.535,,0,405,405,273,1,2a,45,2,4,
,,,,,,,,,,,,,,,,,,,,,,,,,,images/exp2b_trial_64_colour2_distractors9_l.png,l,1,030,001,2021-04-26_12h22.18.381,searchDisc4,2020.2.10,MacIntel,60,,,space,0.303,1,1,0.64,,0,406,406,406,1,2b,64,2,9,
,,,,,,,,,,,,,,,,,,,,,,,,,,images/exp2a_trial_22_colour1_distractors31_l.png,l,1,030,001,2021-04-26_12h22.18.381,searchDisc4,2020.2.10,MacIntel,60,,,space,0.33,1,1,0.531,,0,407,407,250,1,2a,22,1,31,
,,,,,,,,,,,,,,,,,,,,,,,,,,images/exp1a_trial_39_colour1_distractors4_r.png,r,2,030,001,2021-04-26_12h22.18.381,searchDisc4,2020.2.10,MacIntel,60,,,space,0.303,2,1,0.566,,0,408,408,39,1,1a,39,1,4,
,,,,,,,,,,,,,,,,,,,,,,,,,,images/exp1b_trial_80_colour1_distractors31_r.png,r,2,030,001,2021-04-26_12h22.18.381,searchDisc4,2020.2.10,MacIntel,60,,,space,0.296,2,1,0.644,,0,409,409,194,1,1b,80,1,31,
,,,,,,,,,,,,,,,,,,,,,,,,,,images/exp1b_trial_14_colour3_distractors9_r.png,r,2,030,001,2021-04-26_12h22.18.381,searchDisc4,2020.2.10,MacIntel,60,,,space,0.305,2,1,0.711,,0,410,410,128,1,1b,14,3,9,
,,,,,,,,,,,,,,,,,,,,,,,,,,images/exp2c_trial_7_colour2_distractors4_r.png,r,2,030,001,2021-04-26_12h22.18.381,searchDisc4,2020.2.10,MacIntel,60,,,space,0.403,2,1,0.568,,0,411,411,463,1,2c,7,2,4,
,,,,,,,,,,,,,,,,,,,,,,,,,,images/exp1a_trial_44_colour2_distractors1_r.png,r,2,030,001,2021-04-26_12h22.18.381,searchDisc4,2020.2.10,MacIntel,60,,,space,0.299,2,1,0.54,,0,412,412,44,1,1a,44,2,1,
,,,,,,,,,,,,,,,,,,,,,,,,,,images/exp2a_trial_61_colour1_distractors43_l.png,l,1,030,001,2021-04-26_12h22.18.381,searchDisc4,2020.2.10,MacIntel,60,,,space,0.276,1,1,0.583,,0,413,413,289,1,2a,61,1,43,
,,,,,,,,,,,,,,,,,,,,,,,,,,images/exp1a_trial_101_colour2_distractors4_l.png,l,1,030,001,2021-04-26_12h22.18.381,searchDisc4,2020.2.10,MacIntel,60,,,space,0.273,1,1,0.53,,0,414,414,101,1,1a,101,2,4,
,,,,,,,,,,,,,,,,,,,,,,,,,,images/exp2b_trial_3_colour1_distractors19_r.png,r,2,030,001,2021-04-26_12h22.18.381,searchDisc4,2020.2.10,MacIntel,60,,,space,0.363,2,1,0.578,,0,415,415,345,1,2b,3,1,19,
,,,,,,,,,,,,,,,,,,,,,,,,,,images/exp2a_trial_44_colour2_distractors1_r.png,r,2,030,001,2021-04-26_12h22.18.381,searchDisc4,2020.2.10,MacIntel,60,,,space,0.299,2,1,0.523,,0,416,416,272,1,2a,44,2,1,
,,,,,,,,,,,,,,,,,,,,,,,,,,images/exp1a_trial_9_colour2_distractors19_r.png,r,2,030,001,2021-04-26_12h22.18.381,searchDisc4,2020.2.10,MacIntel,60,,,space,0.437,2,1,0.581,,0,417,417,9,1,1a,9,2,19,
,,,,,,,,,,,,,,,,,,,,,,,,,,images/exp1a_trial_94_colour1_distractors1_l.png,l,1,030,001,2021-04-26_12h22.18.381,searchDisc4,2020.2.10,MacIntel,60,,,space,0.345,2,0,0.549,,0,418,418,94,1,1a,94,1,1,
,,,,,,,,,,,,,,,,,,,,,,,,,,images/exp1b_trial_71_colour3_distractors19_l.png,l,1,030,001,2021-04-26_12h22.18.381,searchDisc4,2020.2.10,MacIntel,60,,,space,0.497,1,1,0.9,space,0,419,419,185,1,1b,71,3,19,0.355
,,,,,,,,,,,,,,,,,,,,,,,,,,images/exp2c_trial_49_colour2_distractors43_r.png,r,2,030,001,2021-04-26_12h22.18.381,searchDisc4,2020.2.10,MacIntel,60,,,space,0.801,2,1,0.634,,0,420,420,505,1,2c,49,2,43,
,,,,,,,,,,,,,,,,,,,,,,,,,,images/exp2c_trial_66_colour2_distractors31_l.png,l,1,030,001,2021-04-26_12h22.18.381,searchDisc4,2020.2.10,MacIntel,60,,,space,0.431,1,1,0.646,,0,421,421,522,1,2c,66,2,31,
,,,,,,,,,,,,,,,,,,,,,,,,,,images/exp2c_trial_35_colour3_distractors43_l.png,l,1,030,001,2021-04-26_12h22.18.381,searchDisc4,2020.2.10,MacIntel,60,,,space,0.342,1,1,0.597,,0,422,422,491,1,2c,35,3,43,
,,,,,,,,,,,,,,,,,,,,,,,,,,images/exp2a_trial_31_colour3_distractors4_l.png,l,1,030,001,2021-04-26_12h22.18.381,searchDisc4,2020.2.10,MacIntel,60,,,space,0.365,1,1,0.509,,0,423,423,259,1,2a,31,3,4,
,,,,,,,,,,,,,,,,,,,,,,,,,,images/exp2b_trial_86_colour2_distractors31_r.png,r,2,030,001,2021-04-26_12h22.18.381,searchDisc4,2020.2.10,MacIntel,60,,,space,0.364,2,1,0.645,,0,424,424,428,1,2b,86,2,31,
,,,,,,,,,,,,,,,,,,,,,,,,,,images/exp2a_trial_39_colour1_distractors4_r.png,r,2,030,001,2021-04-26_12h22.18.381,searchDisc4,2020.2.10,MacIntel,60,,,space,0.33,2,1,0.871,,0,425,425,267,1,2a,39,1,4,
,,,,,,,,,,,,,,,,,,,,,,,,,,images/exp2b_trial_34_colour3_distractors31_l.png,l,1,030,001,2021-04-26_12h22.18.381,searchDisc4,2020.2.10,MacIntel,60,,,space,0.378,1,1,0.665,,0,426,426,376,1,2b,34,3,31,
,,,,,,,,,,,,,,,,,,,,,,,,,,images/exp2a_trial_1_colour1_distractors4_r.png,r,2,030,001,2021-04-26_12h22.18.381,searchDisc4,2020.2.10,MacIntel,60,,,space,0.564,2,1,0.567,,0,427,427,229,1,2a,1,1,4,
,,,,,,,,,,,,,,,,,,,,,,,,,,images/exp2b_trial_81_colour1_distractors43_r.png,r,2,030,001,2021-04-26_12h22.18.381,searchDisc4,2020.2.10,MacIntel,60,,,space,0.399,2,1,0.578,,0,428,428,423,1,2b,81,1,43,
,,,,,,,,,,,,,,,,,,,,,,,,,,images/exp2b_trial_106_colour3_distractors1_l.png,l,1,030,001,2021-04-26_12h22.18.381,searchDisc4,2020.2.10,MacIntel,60,,,space,0.444,1,1,0.566,,0,429,429,448,1,2b,106,3,1,
,,,,,,,,,,,,,,,,,,,,,,,,,,images/exp2b_trial_32_colour3_distractors9_l.png,l,1,030,001,2021-04-26_12h22.18.381,searchDisc4,2020.2.10,MacIntel,60,,,space,0.366,1,1,0.629,,0,430,430,374,1,2b,32,3,9,
,,,,,,,,,,,,,,,,,,,,,,,,,,images/exp2a_trial_35_colour3_distractors43_l.png,l,1,030,001,2021-04-26_12h22.18.381,searchDisc4,2020.2.10,MacIntel,60,,,space,0.331,1,1,0.577,,0,431,431,263,1,2a,35,3,43,
,,,,,,,,,,,,,,,,,,,,,,,,,,images/exp2a_trial_26_colour2_distractors9_l.png,l,1,030,001,2021-04-26_12h22.18.381,searchDisc4,2020.2.10,MacIntel,60,,,space,0.371,1,1,0.532,,0,432,432,254,1,2a,26,2,9,
,,,,,,,,,,,,,,,,,,,,,,,,,,images/exp2a_trial_105_colour2_distractors43_l.png,l,1,030,001,2021-04-26_12h22.18.381,searchDisc4,2020.2.10,MacIntel,60,,,space,0.364,1,1,0.594,,0,433,433,333,1,2a,105,2,43,
,,,,,,,,,,,,,,,,,,,,,,,,,,images/exp2b_trial_85_colour2_distractors19_r.png,r,2,030,001,2021-04-26_12h22.18.381,searchDisc4,2020.2.10,MacIntel,60,,,space,0.281,2,1,0.575,,0,434,434,427,1,2b,85,2,19,
,,,,,,,,,,,,,,,,,,,,,,,,,,images/exp1b_trial_73_colour3_distractors43_l.png,l,1,030,001,2021-04-26_12h22.18.381,searchDisc4,2020.2.10,MacIntel,60,,,space,0.3,1,1,0.672,,0,435,435,187,1,1b,73,3,43,
,,,,,,,,,,,,,,,,,,,,,,,,,,images/exp1a_trial_18_colour1_distractors1_l.png,l,1,030,001,2021-04-26_12h22.18.381,searchDisc4,2020.2.10,MacIntel,60,,,space,0.264,1,1,0.509,,0,436,436,18,1,1a,18,1,1,
,,,,,,,,,,,,,,,,,,,,,,,,,,images/exp2a_trial_75_colour0_distractors0_l.png,l,1,030,001,2021-04-26_12h22.18.381,searchDisc4,2020.2.10,MacIntel,60,,,space,0.23,1,1,0.531,,0,437,437,303,1,2a,75,0,0,
,,,,,,,,,,,,,,,,,,,,,,,,,,images/exp1b_trial_38_colour1_distractors1_r.png,r,2,030,001,2021-04-26_12h22.18.381,searchDisc4,2020.2.10,MacIntel,60,,,space,0.198,2,1,0.677,,0,438,438,152,1,1b,38,1,1,
,,,,,,,,,,,,,,,,,,,,,,,,,,images/exp2a_trial_13_colour3_distractors4_r.png,r,2,030,001,2021-04-26_12h22.18.381,searchDisc4,2020.2.10,MacIntel,60,,,space,0.231,2,1,0.612,,0,439,439,241,1,2a,13,3,4,
,,,,,,,,,,,,,,,,,,,,,,,,,,images/exp2c_trial_40_colour1_distractors9_r.png,r,2,030,001,2021-04-26_12h22.18.381,searchDisc4,2020.2.10,MacIntel,60,,,space,0.233,2,1,0.554,,0,440,440,496,1,2c,40,1,9,
,,,,,,,,,,,,,,,,,,,,,,,,,,images/exp1b_trial_70_colour3_distractors9_l.png,l,1,030,001,2021-04-26_12h22.18.381,searchDisc4,2020.2.10,MacIntel,60,,,space,0.23,1,1,0.671,,0,441,441,184,1,1b,70,3,9,
,,,,,,,,,,,,,,,,,,,,,,,,,,images/exp2b_trial_23_colour1_distractors43_l.png,l,1,030,001,2021-04-26_12h22.18.381,searchDisc4,2020.2.10,MacIntel,60,,,space,0.232,1,1,0.538,,0,442,442,365,1,2b,23,1,43,
,,,,,,,,,,,,,,,,,,,,,,,,,,images/exp2c_trial_90_colour3_distractors9_r.png,r,2,030,001,2021-04-26_12h22.18.381,searchDisc4,2020.2.10,MacIntel,60,,,space,0.245,2,1,0.797,,0,443,443,546,1,2c,90,3,9,
,,,,,,,,,,,,,,,,,,,,,,,,,,images/exp1a_trial_108_colour3_distractors9_l.png,l,1,030,001,2021-04-26_12h22.18.381,searchDisc4,2020.2.10,MacIntel,60,,,space,0.269,1,1,0.608,,0,444,444,108,1,1a,108,3,9,
,,,,,,,,,,,,,,,,,,,,,,,,,,images/exp1a_trial_62_colour2_distractors1_l.png,l,1,030,001,2021-04-26_12h22.18.381,searchDisc4,2020.2.10,MacIntel,60,,,space,0.275,1,1,0.536,,0,445,445,62,1,1a,62,2,1,
,,,,,,,,,,,,,,,,,,,,,,,,,,images/exp2b_trial_38_colour1_distractors1_r.png,r,2,030,001,2021-04-26_12h22.18.381,searchDisc4,2020.2.10,MacIntel,60,,,space,0.273,2,1,0.54,,0,446,446,380,1,2b,38,1,1,
,,,,,,,,,,,,,,,,,,,,,,,,,,images/exp2a_trial_58_colour1_distractors9_l.png,l,1,030,001,2021-04-26_12h22.18.381,searchDisc4,2020.2.10,MacIntel,60,,,space,0.264,1,1,0.602,,0,447,447,286,1,2a,58,1,9,
,,,,,,,,,,,,,,,,,,,,,,,,,,images/exp2b_trial_62_colour2_distractors1_l.png,l,1,030,001,2021-04-26_12h22.18.381,searchDisc4,2020.2.10,MacIntel,60,,,space,0.275,1,1,0.543,,0,448,448,404,1,2b,62,2,1,
,,,,,,,,,,,,,,,,,,,,,,,,,,images/exp1a_trial_37_colour0_distractors0_l.png,l,1,030,001,2021-04-26_12h22.18.381,searchDisc4,2020.2.10,MacIntel,60,,,space,0.212,1,1,0.564,,0,449,449,37,1,1a,37,0,0,
,,,,,,,,,,,,,,,,,,,,,,,,,,images/exp2a_trial_17_colour3_distractors43_r.png,r,2,030,001,2021-04-26_12h22.18.381,searchDisc4,2020.2.10,MacIntel,60,,,space,0.233,2,1,0.658,,0,450,450,245,1,2a,17,3,43,
,,,,,,,,,,,,,,,,,,,,,,,,,,images/exp2a_trial_90_colour3_distractors9_r.png,r,2,030,001,2021-04-26_12h22.18.381,searchDisc4,2020.2.10,MacIntel,60,,,space,0.266,2,1,0.612,,0,451,451,318,1,2a,90,3,9,
,,,,,,,,,,,,,,,,,,,,,,,,,,images/exp1a_trial_113_colour0_distractors0_l.png,l,1,030,001,2021-04-26_12h22.18.381,searchDisc4,2020.2.10,MacIntel,60,,,space,0.263,1,1,0.511,,0,452,452,113,1,1a,113,0,0,
,,,,,,,,,,,,,,,,,,,,,,,,,,images/exp1a_trial_10_colour2_distractors31_r.png,r,2,030,001,2021-04-26_12h22.18.381,searchDisc4,2020.2.10,MacIntel,60,,,space,0.264,2,1,0.594,,0,453,453,10,1,1a,10,2,31,
,,,,,,,,,,,,,,,,,,,,,,,,,,images/exp2a_trial_46_colour2_distractors9_r.png,r,2,030,001,2021-04-26_12h22.18.381,searchDisc4,2020.2.10,MacIntel,60,,,space,0.212,2,1,0.564,,0,454,454,274,1,2a,46,2,9,
,,,,,,,,,,,,,,,,,,,,,,,,,,images/exp1b_trial_112_colour0_distractors0_r.png,r,2,030,001,2021-04-26_12h22.18.381,searchDisc4,2020.2.10,MacIntel,60,,,space,0.264,2,1,0.534,,0,455,455,226,1,1b,112,0,0,
,,,,,,,,,,,,,,,,,,,,,,,,,,images/exp1b_trial_62_colour2_distractors1_l.png,l,1,030,001,2021-04-26_12h22.18.381,searchDisc4,2020.2.10,MacIntel,60,,,space,0.265,1,1,0.592,,0,456,456,176,1,1b,62,2,1,
,,,,,,,,,,,,,,,,,,,,,,,,,,images/exp2a_trial_20_colour1_distractors9_l.png,l,1,030,001,2021-04-26_12h22.18.381,searchDisc4,2020.2.10,MacIntel,60,,,space,0.299,1,1,0.571,,0,457,457,248,1,2a,20,1,9,
,,,,,,,,,,,,,,,,,,,,,,,,,,images/exp2c_trial_86_colour2_distractors31_r.png,r,2,030,001,2021-04-26_12h22.18.381,searchDisc4,2020.2.10,MacIntel,60,,,space,0.264,2,1,0.638,,0,458,458,542,1,2c,86,2,31,
,,,,,,,,,,,,,,,,,,,,,,,,,,images/exp1b_trial_86_colour2_distractors31_r.png,r,2,030,001,2021-04-26_12h22.18.381,searchDisc4,2020.2.10,MacIntel,60,,,space,0.272,1,0,0.763,,0,459,459,200,1,1b,86,2,31,
,,,,,,,,,,,,,,,,,,,,,,,,,,images/exp1a_trial_48_colour2_distractors31_r.png,r,2,030,001,2021-04-26_12h22.18.381,searchDisc4,2020.2.10,MacIntel,60,,,space,0.333,2,1,0.607,,0,460,460,48,1,1a,48,2,31,
,,,,,,,,,,,,,,,,,,,,,,,,,,images/exp1a_trial_92_colour3_distractors31_r.png,r,2,030,001,2021-04-26_12h22.18.381,searchDisc4,2020.2.10,MacIntel,60,,,space,0.233,2,1,0.674,,0,461,461,92,1,1a,92,3,31,
,,,,,,,,,,,,,,,,,,,,,,,,,,images/exp1b_trial_52_colour3_distractors9_r.png,r,2,030,001,2021-04-26_12h22.18.381,searchDisc4,2020.2.10,MacIntel,60,,,space,0.231,2,1,0.675,,0,462,462,166,1,1b,52,3,9,
,,,,,,,,,,,,,,,,,,,,,,,,,,images/exp1b_trial_35_colour3_distractors43_l.png,l,1,030,001,2021-04-26_12h22.18.381,searchDisc4,2020.2.10,MacIntel,60,,,space,0.203,1,1,2.041,,0,463,463,149,1,1b,35,3,43,
,,,,,,,,,,,,,,,,,,,,,,,,,,images/exp2a_trial_5_colour1_distractors43_r.png,r,2,030,001,2021-04-26_12h22.18.381,searchDisc4,2020.2.10,MacIntel,60,,,space,0.267,2,1,0.663,,0,464,464,233,1,2a,5,1,43,
,,,,,,,,,,,,,,,,,,,,,,,,,,images/exp2c_trial_88_colour3_distractors1_r.png,r,2,030,001,2021-04-26_12h22.18.381,searchDisc4,2020.2.10,MacIntel,60,,,space,0.264,2,1,0.659,,0,465,465,544,1,2c,88,3,1,
,,,,,,,,,,,,,,,,,,,,,,,,,,images/exp2a_trial_55_colour3_distractors43_r.png,r,2,030,001,2021-04-26_12h22.18.381,searchDisc4,2020.2.10,MacIntel,60,,,space,0.265,2,1,0.57,,0,466,466,283,1,2a,55,3,43,
,,,,,,,,,,,,,,,,,,,,,,,,,,images/exp1a_trial_69_colour3_distractors4_l.png,l,1,030,001,2021-04-26_12h22.18.381,searchDisc4,2020.2.10,MacIntel,60,,,space,0.266,1,1,0.641,,0,467,467,69,1,1a,69,3,4,
,,,,,,,,,,,,,,,,,,,,,,,,,,images/exp2a_trial_42_colour1_distractors31_r.png,r,2,030,001,2021-04-26_12h22.18.381,searchDisc4,2020.2.10,MacIntel,60,,,space,0.331,2,1,0.759,,0,468,468,270,1,2a,42,1,31,
,,,,,,,,,,,,,,,,,,,,,,,,,,images/exp2c_trial_31_colour3_distractors4_l.png,l,1,030,001,2021-04-26_12h22.18.381,searchDisc4,2020.2.10,MacIntel,60,,,space,0.247,1,1,0.509,,0,469,469,487,1,2c,31,3,4,
,,,,,,,,,,,,,,,,,,,,,,,,,,images/exp1a_trial_3_colour1_distractors19_r.png,r,2,030,001,2021-04-26_12h22.18.381,searchDisc4,2020.2.10,MacIntel,60,,,space,0.274,2,1,0.611,,0,470,470,3,1,1a,3,1,19,
,,,,,,,,,,,,,,,,,,,,,,,,,,images/exp1b_trial_54_colour3_distractors31_r.png,r,2,030,001,2021-04-26_12h22.18.381,searchDisc4,2020.2.10,MacIntel,60,,,space,0.213,2,1,0.92,,0,471,471,168,1,1b,54,3,31,
,,,,,,,,,,,,,,,,,,,,,,,,,,images/exp2c_trial_0_colour1_distractors1_r.png,r,2,030,001,2021-04-26_12h22.18.381,searchDisc4,2020.2.10,MacIntel,60,,,space,0.233,2,1,0.575,,0,472,472,456,1,2c,0,1,1,
,,,,,,,,,,,,,,,,,,,,,,,,,,images/exp1a_trial_70_colour3_distractors9_l.png,l,1,030,001,2021-04-26_12h22.18.381,searchDisc4,2020.2.10,MacIntel,60,,,space,0.169,1,1,0.707,,0,473,473,70,1,1a,70,3,9,
,,,,,,,,,,,,,,,,,,,,,,,,,,images/exp2a_trial_104_colour2_distractors31_l.png,l,1,030,001,2021-04-26_12h22.18.381,searchDisc4,2020.2.10,MacIntel,60,,,space,0.174,1,1,0.617,,0,474,474,332,1,2a,104,2,31,
,,,,,,,,,,,,,,,,,,,,,,,,,,images/exp1b_trial_92_colour3_distractors31_r.png,r,2,030,001,2021-04-26_12h22.18.381,searchDisc4,2020.2.10,MacIntel,60,,,space,0.198,2,1,0.675,,0,475,475,206,1,1b,92,3,31,
,,,,,,,,,,,,,,,,,,,,,,,,,,images/exp2c_trial_72_colour3_distractors31_l.png,l,1,030,001,2021-04-26_12h22.18.381,searchDisc4,2020.2.10,MacIntel,60,,,space,0.205,1,1,0.71,,0,476,476,528,1,2c,72,3,31,
,,,,,,,,,,,,,,,,,,,,,,,,,,images/exp2b_trial_29_colour2_distractors43_l.png,l,1,030,001,2021-04-26_12h22.18.381,searchDisc4,2020.2.10,MacIntel,60,,,space,0.204,1,1,0.668,,0,477,477,371,1,2b,29,2,43,
,,,,,,,,,,,,,,,,,,,,,,,,,,images/exp2a_trial_30_colour3_distractors1_l.png,l,1,030,001,2021-04-26_12h22.18.381,searchDisc4,2020.2.10,MacIntel,60,,,space,0.187,1,1,0.576,,0,478,478,258,1,2a,30,3,1,
,,,,,,,,,,,,,,,,,,,,,,,,,,images/exp2b_trial_96_colour1_distractors9_l.png,l,1,030,001,2021-04-26_12h22.18.381,searchDisc4,2020.2.10,MacIntel,60,,,space,0.23,1,1,0.696,,0,479,479,438,1,2b,96,1,9,
,,,,,,,,,,,,,,,,,,,,,,,,,,images/exp1a_trial_71_colour3_distractors19_l.png,l,1,030,001,2021-04-26_12h22.18.381,searchDisc4,2020.2.10,MacIntel,60,,,space,0.211,1,1,0.573,,0,480,480,71,1,1a,71,3,19,
,,,,,,,,,,,,,,,,,,,,,,,,,,images/exp2c_trial_39_colour1_distractors4_r.png,r,2,030,001,2021-04-26_12h22.18.381,searchDisc4,2020.2.10,MacIntel,60,,,space,0.198,2,1,0.607,,0,481,481,495,1,2c,39,1,4,
,,,,,,,,,,,,,,,,,,,,,,,,,,images/exp2b_trial_48_colour2_distractors31_r.png,r,2,030,001,2021-04-26_12h22.18.381,searchDisc4,2020.2.10,MacIntel,60,,,space,0.17,2,1,0.74,,0,482,482,390,1,2b,48,2,31,
