X Scale,Y Scale,key_resp_10.keys,key_resp_10.rt,key_resp_11.keys,key_resp_11.rt,key_resp_12.keys,key_resp_12.rt,key_resp_13.keys,key_resp_13.rt,key_resp_5.keys,key_resp_5.rt,key_resp_8.keys,key_resp_8.rt,key_resp_6.keys,key_resp_6.rt,key_resp_7.keys,key_resp_7.rt,key_resp_4.keys,key_resp_4.corr,key_resp_4.rt,trials_2.thisRepN,trials_2.thisTrialN,trials_2.thisN,trials_2.thisIndex,trials_2.ran,ImageFile,targ_side,correctAnswer,participant,session,date,expName,psychopyVersion,OS,frameRate,key_resp_3.keys,key_resp_3.rt,key_resp_9.keys,key_resp_9.rt,key_resp_2.keys,key_resp_2.corr,key_resp_2.rt,key_resp.keys,trials.thisRepN,trials.thisTrialN,trials.thisN,trials.thisIndex,trials.ran,exp,trial,colour,distNo,key_resp.rt
22.9,22.3,space,2.015295,space,2.16807,space,1.278145,space,1.300065,space,0.35717,space,6.769285,space,1.815195,space,1.52657,2,1,1.65534,0,0,0,6,1,Practice arrays/exp1a_trial_12_colour3_distractors1_r.png,r,2,030,001,2021-04-24_21h14.49.982,searchDisc4,2020.2.10,Win32,60,,,,,,,,,,,,,,,,,,
,,,,,,,,,,,,,,,,space,0.731215,2,1,0.76482,0,1,1,8,1,Practice arrays/exp1a_trial_16_colour3_distractors31_r.png,r,2,030,001,2021-04-24_21h14.49.982,searchDisc4,2020.2.10,Win32,60,,,,,,,,,,,,,,,,,,
,,,,,,,,,,,,,,,,space,0.348525,2,1,1.041185,0,2,2,5,1,Practice arrays/exp1a_trial_10_colour2_distractors31_r.png,r,2,030,001,2021-04-24_21h14.49.982,searchDisc4,2020.2.10,Win32,60,,,,,,,,,,,,,,,,,,
,,,,,,,,,,,,,,,,space,0.48825,1,1,0.909445,0,3,3,17,1,Practice arrays/exp1a_trial_35_colour3_distractors43_l.png,l,1,030,001,2021-04-24_21h14.49.982,searchDisc4,2020.2.10,Win32,60,,,,,,,,,,,,,,,,,,
,,,,,,,,,,,,,,,,space,0.558765,1,1,3.403425,0,4,4,13,1,Practice arrays/exp1a_trial_28_colour2_distractors31_l.png,l,1,030,001,2021-04-24_21h14.49.982,searchDisc4,2020.2.10,Win32,60,,,,,,,,,,,,,,,,,,
,,,,,,,,,,,,,,,,space,1.646415,1,1,0.91148,0,5,5,11,1,Practice arrays/exp1a_trial_21_colour1_distractors19_l.png,l,1,030,001,2021-04-24_21h14.49.982,searchDisc4,2020.2.10,Win32,60,,,,,,,,,,,,,,,,,,
,,,,,,,,,,,,,,,,space,0.19549,1,1,0.65527,0,6,6,16,1,Practice arrays/exp1a_trial_33_colour3_distractors19_l.png,l,1,030,001,2021-04-24_21h14.49.982,searchDisc4,2020.2.10,Win32,60,,,,,,,,,,,,,,,,,,
,,,,,,,,,,,,,,,,space,0.336865,2,1,0.47279,0,7,7,1,1,Practice arrays/exp1a_trial_3_colour1_distractors19_r.png,r,2,030,001,2021-04-24_21h14.49.982,searchDisc4,2020.2.10,Win32,60,,,,,,,,,,,,,,,,,,
,,,,,,,,,,,,,,,,space,0.223415,1,1,0.735605,0,8,8,14,1,Practice arrays/exp1a_trial_29_colour2_distractors43_l.png,l,1,030,001,2021-04-24_21h14.49.982,searchDisc4,2020.2.10,Win32,60,,,,,,,,,,,,,,,,,,
,,,,,,,,,,,,,,,,space,0.182425,1,1,0.737065,0,9,9,10,1,Practice arrays/exp1a_trial_20_colour1_distractors9_l.png,l,1,030,001,2021-04-24_21h14.49.982,searchDisc4,2020.2.10,Win32,60,,,,,,,,,,,,,,,,,,
,,,,,,,,,,,,,,,,space,0.16623,2,1,0.502225,0,10,10,18,1,Practice arrays/exp1a_trial_36_colour0_distractors0_r.png,r,2,030,001,2021-04-24_21h14.49.982,searchDisc4,2020.2.10,Win32,60,,,,,,,,,,,,,,,,,,
,,,,,,,,,,,,,,,,space,0.423635,1,1,0.939325,0,11,11,9,1,Practice arrays/exp1a_trial_19_colour1_distractors4_l.png,l,1,030,001,2021-04-24_21h14.49.982,searchDisc4,2020.2.10,Win32,60,,,,,,,,,,,,,,,,,,
,,,,,,,,,,,,,,,,space,0.390495,1,1,0.62602,0,12,12,19,1,Practice arrays/exp1a_trial_37_colour0_distractors0_l.png,l,1,030,001,2021-04-24_21h14.49.982,searchDisc4,2020.2.10,Win32,60,,,,,,,,,,,,,,,,,,
,,,,,,,,,,,,,,,,space,0.41038,2,1,0.488325,0,13,13,0,1,Practice arrays/exp1a_trial_0_colour1_distractors1_r.png,r,2,030,001,2021-04-24_21h14.49.982,searchDisc4,2020.2.10,Win32,60,,,,,,,,,,,,,,,,,,
,,,,,,,,,,,,,,,,space,0.282375,2,1,0.74126,0,14,14,3,1,Practice arrays/exp1a_trial_7_colour2_distractors4_r.png,r,2,030,001,2021-04-24_21h14.49.982,searchDisc4,2020.2.10,Win32,60,,,,,,,,,,,,,,,,,,
,,,,,,,,,,,,,,,,space,0.292315,2,1,0.478625,0,15,15,4,1,Practice arrays/exp1a_trial_8_colour2_distractors9_r.png,r,2,030,001,2021-04-24_21h14.49.982,searchDisc4,2020.2.10,Win32,60,,,,,,,,,,,,,,,,,,
,,,,,,,,,,,,,,,,space,0.39097,2,1,0.610335,0,16,16,7,1,Practice arrays/exp1a_trial_13_colour3_distractors4_r.png,r,2,030,001,2021-04-24_21h14.49.982,searchDisc4,2020.2.10,Win32,60,,,,,,,,,,,,,,,,,,
,,,,,,,,,,,,,,,,space,0.36934,2,1,0.68449,0,17,17,2,1,Practice arrays/exp1a_trial_5_colour1_distractors43_r.png,r,2,030,001,2021-04-24_21h14.49.982,searchDisc4,2020.2.10,Win32,60,,,,,,,,,,,,,,,,,,
,,,,,,,,,,,,,,,,space,0.39288,1,1,1.12844,0,18,18,12,1,Practice arrays/exp1a_trial_25_colour2_distractors4_l.png,l,1,030,001,2021-04-24_21h14.49.982,searchDisc4,2020.2.10,Win32,60,,,,,,,,,,,,,,,,,,
,,,,,,,,,,,,,,,,space,0.11862,1,1,0.632165,0,19,19,15,1,Practice arrays/exp1a_trial_32_colour3_distractors9_l.png,l,1,030,001,2021-04-24_21h14.49.982,searchDisc4,2020.2.10,Win32,60,,,,,,,,,,,,,,,,,,
,,,,,,,,,,,,,,,,,,,,,,,,,,images/exp2a_trial_110_colour3_distractors31_l.png,l,1,030,001,2021-04-24_21h14.49.982,searchDisc4,2020.2.10,Win32,60,space,42.24172,space,0.36256,1,1,0.919875,,0,0,0,338,1,2a,110,3,31,
,,,,,,,,,,,,,,,,,,,,,,,,,,images/exp1a_trial_3_colour1_distractors19_r.png,r,2,030,001,2021-04-24_21h14.49.982,searchDisc4,2020.2.10,Win32,60,,,space,0.162265,2,1,0.640165,,0,1,1,3,1,1a,3,1,19,
,,,,,,,,,,,,,,,,,,,,,,,,,,images/exp1b_trial_51_colour3_distractors4_r.png,r,2,030,001,2021-04-24_21h14.49.982,searchDisc4,2020.2.10,Win32,60,,,space,0.08848,2,1,0.9876,,0,2,2,165,1,1b,51,3,4,
,,,,,,,,,,,,,,,,,,,,,,,,,,images/exp1a_trial_14_colour3_distractors9_r.png,r,2,030,001,2021-04-24_21h14.49.982,searchDisc4,2020.2.10,Win32,60,,,space,0.14616,2,1,0.567575,,0,3,3,14,1,1a,14,3,9,
,,,,,,,,,,,,,,,,,,,,,,,,,,images/exp2b_trial_59_colour1_distractors19_l.png,l,1,030,001,2021-04-24_21h14.49.982,searchDisc4,2020.2.10,Win32,60,,,space,0.147135,1,1,0.554855,,0,4,4,401,1,2b,59,1,19,
,,,,,,,,,,,,,,,,,,,,,,,,,,images/exp1b_trial_56_colour1_distractors1_l.png,l,1,030,001,2021-04-24_21h14.49.982,searchDisc4,2020.2.10,Win32,60,,,space,0.13223,1,1,0.848225,,0,5,5,170,1,1b,56,1,1,
,,,,,,,,,,,,,,,,,,,,,,,,,,images/exp2c_trial_19_colour1_distractors4_l.png,l,1,030,001,2021-04-24_21h14.49.982,searchDisc4,2020.2.10,Win32,60,,,space,0.138525,1,1,0.651455,,0,6,6,475,1,2c,19,1,4,
,,,,,,,,,,,,,,,,,,,,,,,,,,images/exp1b_trial_39_colour1_distractors4_r.png,r,2,030,001,2021-04-24_21h14.49.982,searchDisc4,2020.2.10,Win32,60,,,space,0.140795,2,1,0.72866,,0,7,7,153,1,1b,39,1,4,
,,,,,,,,,,,,,,,,,,,,,,,,,,images/exp2c_trial_108_colour3_distractors9_l.png,l,1,030,001,2021-04-24_21h14.49.982,searchDisc4,2020.2.10,Win32,60,,,space,0.090375,1,1,0.764685,,0,8,8,564,1,2c,108,3,9,
,,,,,,,,,,,,,,,,,,,,,,,,,,images/exp2b_trial_105_colour2_distractors43_l.png,l,1,030,001,2021-04-24_21h14.49.982,searchDisc4,2020.2.10,Win32,60,,,space,0.09684,1,1,0.69474,,0,9,9,447,1,2b,105,2,43,
,,,,,,,,,,,,,,,,,,,,,,,,,,images/exp2b_trial_8_colour2_distractors9_r.png,r,2,030,001,2021-04-24_21h14.49.982,searchDisc4,2020.2.10,Win32,60,,,space,0.097985,2,1,0.6134,,0,10,10,350,1,2b,8,2,9,
,,,,,,,,,,,,,,,,,,,,,,,,,,images/exp2c_trial_99_colour1_distractors43_l.png,l,1,030,001,2021-04-24_21h14.49.982,searchDisc4,2020.2.10,Win32,60,,,space,0.06713,1,1,0.67184,,0,11,11,555,1,2c,99,1,43,
,,,,,,,,,,,,,,,,,,,,,,,,,,images/exp2c_trial_47_colour2_distractors19_r.png,r,2,030,001,2021-04-24_21h14.49.982,searchDisc4,2020.2.10,Win32,60,,,space,0.08826,2,1,0.719555,,0,12,12,503,1,2c,47,2,19,
,,,,,,,,,,,,,,,,,,,,,,,,,,images/exp2c_trial_65_colour2_distractors19_l.png,l,1,030,001,2021-04-24_21h14.49.982,searchDisc4,2020.2.10,Win32,60,,,space,0.07357,1,1,0.661295,,0,13,13,521,1,2c,65,2,19,
,,,,,,,,,,,,,,,,,,,,,,,,,,images/exp2c_trial_110_colour3_distractors31_l.png,l,1,030,001,2021-04-24_21h14.49.982,searchDisc4,2020.2.10,Win32,60,,,space,0.090855,1,1,0.676235,,0,14,14,566,1,2c,110,3,31,
,,,,,,,,,,,,,,,,,,,,,,,,,,images/exp2c_trial_27_colour2_distractors19_l.png,l,1,030,001,2021-04-24_21h14.49.982,searchDisc4,2020.2.10,Win32,60,,,space,0.085245,1,1,0.86681,,0,15,15,483,1,2c,27,2,19,
,,,,,,,,,,,,,,,,,,,,,,,,,,images/exp1a_trial_32_colour3_distractors9_l.png,l,1,030,001,2021-04-24_21h14.49.982,searchDisc4,2020.2.10,Win32,60,,,space,0.08174,1,1,1.53275,,0,16,16,32,1,1a,32,3,9,
,,,,,,,,,,,,,,,,,,,,,,,,,,images/exp1b_trial_88_colour3_distractors1_r.png,r,2,030,001,2021-04-24_21h14.49.982,searchDisc4,2020.2.10,Win32,60,,,space,0.07566,2,1,0.846085,,0,17,17,202,1,1b,88,3,1,
,,,,,,,,,,,,,,,,,,,,,,,,,,images/exp2b_trial_74_colour0_distractors0_r.png,r,2,030,001,2021-04-24_21h14.49.982,searchDisc4,2020.2.10,Win32,60,,,space,0.08704,2,1,0.623695,,0,18,18,416,1,2b,74,0,0,
,,,,,,,,,,,,,,,,,,,,,,,,,,images/exp2c_trial_106_colour3_distractors1_l.png,l,1,030,001,2021-04-24_21h14.49.982,searchDisc4,2020.2.10,Win32,60,,,space,0.063915,1,1,0.55695,,0,19,19,562,1,2c,106,3,1,
,,,,,,,,,,,,,,,,,,,,,,,,,,images/exp2c_trial_11_colour2_distractors43_r.png,r,2,030,001,2021-04-24_21h14.49.982,searchDisc4,2020.2.10,Win32,60,,,space,0.07105,2,1,0.71288,,0,20,20,467,1,2c,11,2,43,
,,,,,,,,,,,,,,,,,,,,,,,,,,images/exp2a_trial_26_colour2_distractors9_l.png,l,1,030,001,2021-04-24_21h14.49.982,searchDisc4,2020.2.10,Win32,60,,,space,0.05287,1,1,0.545015,,0,21,21,254,1,2a,26,2,9,
,,,,,,,,,,,,,,,,,,,,,,,,,,images/exp2a_trial_73_colour3_distractors43_l.png,l,1,030,001,2021-04-24_21h14.49.982,searchDisc4,2020.2.10,Win32,60,,,space,0.049095,1,1,0.868195,,0,22,22,301,1,2a,73,3,43,
,,,,,,,,,,,,,,,,,,,,,,,,,,images/exp2b_trial_112_colour0_distractors0_r.png,r,2,030,001,2021-04-24_21h14.49.982,searchDisc4,2020.2.10,Win32,60,,,space,0.100125,2,1,1.308025,,0,23,23,454,1,2b,112,0,0,
,,,,,,,,,,,,,,,,,,,,,,,,,,images/exp1a_trial_84_colour2_distractors9_r.png,r,2,030,001,2021-04-24_21h14.49.982,searchDisc4,2020.2.10,Win32,60,,,space,0.398905,2,1,0.597185,,0,24,24,84,1,1a,84,2,9,
,,,,,,,,,,,,,,,,,,,,,,,,,,images/exp2a_trial_34_colour3_distractors31_l.png,l,1,030,001,2021-04-24_21h14.49.982,searchDisc4,2020.2.10,Win32,60,,,space,0.09026,1,1,0.81616,,0,25,25,262,1,2a,34,3,31,
,,,,,,,,,,,,,,,,,,,,,,,,,,images/exp1b_trial_60_colour1_distractors31_l.png,l,1,030,001,2021-04-24_21h14.49.982,searchDisc4,2020.2.10,Win32,60,,,space,0.06615,1,1,1.30083,,0,26,26,174,1,1b,60,1,31,
,,,,,,,,,,,,,,,,,,,,,,,,,,images/exp2b_trial_65_colour2_distractors19_l.png,l,1,030,001,2021-04-24_21h14.49.982,searchDisc4,2020.2.10,Win32,60,,,space,0.082605,1,1,0.66262,,0,27,27,407,1,2b,65,2,19,
,,,,,,,,,,,,,,,,,,,,,,,,,,images/exp1a_trial_50_colour3_distractors1_r.png,r,2,030,001,2021-04-24_21h14.49.982,searchDisc4,2020.2.10,Win32,60,,,space,0.07775,2,1,0.689525,,0,28,28,50,1,1a,50,3,1,
,,,,,,,,,,,,,,,,,,,,,,,,,,images/exp2b_trial_63_colour2_distractors4_l.png,l,1,030,001,2021-04-24_21h14.49.982,searchDisc4,2020.2.10,Win32,60,,,space,0.30453,1,1,0.946235,,0,29,29,405,1,2b,63,2,4,
,,,,,,,,,,,,,,,,,,,,,,,,,,images/exp2c_trial_83_colour2_distractors4_r.png,r,2,030,001,2021-04-24_21h14.49.982,searchDisc4,2020.2.10,Win32,60,,,space,0.160575,2,1,1.078365,,0,30,30,539,1,2c,83,2,4,
,,,,,,,,,,,,,,,,,,,,,,,,,,images/exp2c_trial_0_colour1_distractors1_r.png,r,2,030,001,2021-04-24_21h14.49.982,searchDisc4,2020.2.10,Win32,60,,,space,0.228115,2,1,0.954265,,0,31,31,456,1,2c,0,1,1,
,,,,,,,,,,,,,,,,,,,,,,,,,,images/exp2b_trial_34_colour3_distractors31_l.png,l,1,030,001,2021-04-24_21h14.49.982,searchDisc4,2020.2.10,Win32,60,,,space,0.149175,1,1,0.694355,,0,32,32,376,1,2b,34,3,31,
,,,,,,,,,,,,,,,,,,,,,,,,,,images/exp1b_trial_67_colour2_distractors43_l.png,l,1,030,001,2021-04-24_21h14.49.982,searchDisc4,2020.2.10,Win32,60,,,space,0.16963,1,1,0.76727,,0,33,33,181,1,1b,67,2,43,
,,,,,,,,,,,,,,,,,,,,,,,,,,images/exp2a_trial_70_colour3_distractors9_l.png,l,1,030,001,2021-04-24_21h14.49.982,searchDisc4,2020.2.10,Win32,60,,,space,0.14247,1,1,0.625825,,0,34,34,298,1,2a,70,3,9,
,,,,,,,,,,,,,,,,,,,,,,,,,,images/exp1a_trial_100_colour2_distractors1_l.png,l,1,030,001,2021-04-24_21h14.49.982,searchDisc4,2020.2.10,Win32,60,,,space,0.16231,2,0,0.69364,,0,35,35,100,1,1a,100,2,1,
,,,,,,,,,,,,,,,,,,,,,,,,,,images/exp2c_trial_38_colour1_distractors1_r.png,r,2,030,001,2021-04-24_21h14.49.982,searchDisc4,2020.2.10,Win32,60,,,space,0.21559,2,1,0.817615,,0,36,36,494,1,2c,38,1,1,
,,,,,,,,,,,,,,,,,,,,,,,,,,images/exp1b_trial_27_colour2_distractors19_l.png,l,1,030,001,2021-04-24_21h14.49.982,searchDisc4,2020.2.10,Win32,60,,,space,0.118165,1,1,1.460415,,0,37,37,141,1,1b,27,2,19,
,,,,,,,,,,,,,,,,,,,,,,,,,,images/exp2b_trial_35_colour3_distractors43_l.png,l,1,030,001,2021-04-24_21h14.49.982,searchDisc4,2020.2.10,Win32,60,,,space,0.107855,1,1,0.642115,,0,38,38,377,1,2b,35,3,43,
,,,,,,,,,,,,,,,,,,,,,,,,,,images/exp1a_trial_48_colour2_distractors31_r.png,r,2,030,001,2021-04-24_21h14.49.982,searchDisc4,2020.2.10,Win32,60,,,space,0.092985,2,1,0.569555,,0,39,39,48,1,1a,48,2,31,
,,,,,,,,,,,,,,,,,,,,,,,,,,images/exp2b_trial_10_colour2_distractors31_r.png,r,2,030,001,2021-04-24_21h14.49.982,searchDisc4,2020.2.10,Win32,60,,,space,0.082595,2,1,0.81974,,0,40,40,352,1,2b,10,2,31,
,,,,,,,,,,,,,,,,,,,,,,,,,,images/exp1b_trial_43_colour1_distractors43_r.png,r,2,030,001,2021-04-24_21h14.49.982,searchDisc4,2020.2.10,Win32,60,,,space,0.07539,2,1,0.78547,,0,41,41,157,1,1b,43,1,43,
,,,,,,,,,,,,,,,,,,,,,,,,,,images/exp2a_trial_97_colour1_distractors19_l.png,l,1,030,001,2021-04-24_21h14.49.982,searchDisc4,2020.2.10,Win32,60,,,space,0.081115,1,1,0.754475,,0,42,42,325,1,2a,97,1,19,
,,,,,,,,,,,,,,,,,,,,,,,,,,images/exp2c_trial_98_colour1_distractors31_l.png,l,1,030,001,2021-04-24_21h14.49.982,searchDisc4,2020.2.10,Win32,60,,,space,0.100785,1,1,0.66728,,0,43,43,554,1,2c,98,1,31,
,,,,,,,,,,,,,,,,,,,,,,,,,,images/exp2c_trial_7_colour2_distractors4_r.png,r,2,030,001,2021-04-24_21h14.49.982,searchDisc4,2020.2.10,Win32,60,,,space,0.064075,2,1,0.647445,,0,44,44,463,1,2c,7,2,4,
,,,,,,,,,,,,,,,,,,,,,,,,,,images/exp1a_trial_41_colour1_distractors19_r.png,r,2,030,001,2021-04-24_21h14.49.982,searchDisc4,2020.2.10,Win32,60,,,space,0.06317,2,1,0.78888,,0,45,45,41,1,1a,41,1,19,
,,,,,,,,,,,,,,,,,,,,,,,,,,images/exp1b_trial_78_colour1_distractors9_r.png,r,2,030,001,2021-04-24_21h14.49.982,searchDisc4,2020.2.10,Win32,60,,,space,0.028975,2,1,1.56658,,0,46,46,192,1,1b,78,1,9,
,,,,,,,,,,,,,,,,,,,,,,,,,,images/exp2b_trial_95_colour1_distractors4_l.png,l,1,030,001,2021-04-24_21h14.49.982,searchDisc4,2020.2.10,Win32,60,,,space,0.069625,1,1,0.5852,,0,47,47,437,1,2b,95,1,4,
,,,,,,,,,,,,,,,,,,,,,,,,,,images/exp2c_trial_16_colour3_distractors31_r.png,r,2,030,001,2021-04-24_21h14.49.982,searchDisc4,2020.2.10,Win32,60,,,space,0.071235,2,1,0.571505,,0,48,48,472,1,2c,16,3,31,
,,,,,,,,,,,,,,,,,,,,,,,,,,images/exp2c_trial_9_colour2_distractors19_r.png,r,2,030,001,2021-04-24_21h14.49.982,searchDisc4,2020.2.10,Win32,60,,,space,0.054985,2,1,0.674215,,0,49,49,465,1,2c,9,2,19,
,,,,,,,,,,,,,,,,,,,,,,,,,,images/exp2c_trial_111_colour3_distractors43_l.png,l,1,030,001,2021-04-24_21h14.49.982,searchDisc4,2020.2.10,Win32,60,,,space,0.057575,1,1,0.71827,,0,50,50,567,1,2c,111,3,43,
,,,,,,,,,,,,,,,,,,,,,,,,,,images/exp1a_trial_21_colour1_distractors19_l.png,l,1,030,001,2021-04-24_21h14.49.982,searchDisc4,2020.2.10,Win32,60,,,space,0.071465,1,1,0.68477,,0,51,51,21,1,1a,21,1,19,
,,,,,,,,,,,,,,,,,,,,,,,,,,images/exp1b_trial_91_colour3_distractors19_r.png,r,2,030,001,2021-04-24_21h14.49.982,searchDisc4,2020.2.10,Win32,60,,,space,0.07016,2,1,2.122115,,0,52,52,205,1,1b,91,3,19,
,,,,,,,,,,,,,,,,,,,,,,,,,,images/exp1b_trial_76_colour1_distractors1_r.png,r,2,030,001,2021-04-24_21h14.49.982,searchDisc4,2020.2.10,Win32,60,,,space,0.087125,2,1,0.73254,,0,53,53,190,1,1b,76,1,1,
,,,,,,,,,,,,,,,,,,,,,,,,,,images/exp1a_trial_33_colour3_distractors19_l.png,l,1,030,001,2021-04-24_21h14.49.982,searchDisc4,2020.2.10,Win32,60,,,space,0.07007,1,1,0.606855,,0,54,54,33,1,1a,33,3,19,
,,,,,,,,,,,,,,,,,,,,,,,,,,images/exp1a_trial_12_colour3_distractors1_r.png,r,2,030,001,2021-04-24_21h14.49.982,searchDisc4,2020.2.10,Win32,60,,,space,0.06831,2,1,0.550425,,0,55,55,12,1,1a,12,3,1,
,,,,,,,,,,,,,,,,,,,,,,,,,,images/exp2b_trial_48_colour2_distractors31_r.png,r,2,030,001,2021-04-24_21h14.49.982,searchDisc4,2020.2.10,Win32,60,,,space,0.064485,2,1,0.56432,,0,56,56,390,1,2b,48,2,31,
,,,,,,,,,,,,,,,,,,,,,,,,,,images/exp2c_trial_69_colour3_distractors4_l.png,l,1,030,001,2021-04-24_21h14.49.982,searchDisc4,2020.2.10,Win32,60,,,space,0.043375,1,1,0.73187,,0,57,57,525,1,2c,69,3,4,
,,,,,,,,,,,,,,,,,,,,,,,,,,images/exp2b_trial_47_colour2_distractors19_r.png,r,2,030,001,2021-04-24_21h14.49.982,searchDisc4,2020.2.10,Win32,60,,,space,0.04596,2,1,0.624815,,0,58,58,389,1,2b,47,2,19,
,,,,,,,,,,,,,,,,,,,,,,,,,,images/exp2b_trial_42_colour1_distractors31_r.png,r,2,030,001,2021-04-24_21h14.49.982,searchDisc4,2020.2.10,Win32,60,,,space,0.039295,2,1,0.61339,space,0,59,59,384,1,2b,42,1,31,0.032145
,,,,,,,,,,,,,,,,,,,,,,,,,,images/exp2c_trial_48_colour2_distractors31_r.png,r,2,030,001,2021-04-24_21h14.49.982,searchDisc4,2020.2.10,Win32,60,,,space,0.907615,2,1,0.544555,,0,60,60,504,1,2c,48,2,31,
,,,,,,,,,,,,,,,,,,,,,,,,,,images/exp2a_trial_65_colour2_distractors19_l.png,l,1,030,001,2021-04-24_21h14.49.982,searchDisc4,2020.2.10,Win32,60,,,space,0.077575,1,1,0.53674,,0,61,61,293,1,2a,65,2,19,
,,,,,,,,,,,,,,,,,,,,,,,,,,images/exp2b_trial_6_colour2_distractors1_r.png,r,2,030,001,2021-04-24_21h14.49.982,searchDisc4,2020.2.10,Win32,60,,,space,0.046035,2,1,0.481075,,0,62,62,348,1,2b,6,2,1,
,,,,,,,,,,,,,,,,,,,,,,,,,,images/exp2a_trial_105_colour2_distractors43_l.png,l,1,030,001,2021-04-24_21h14.49.982,searchDisc4,2020.2.10,Win32,60,,,space,0.049255,1,1,0.64523,,0,63,63,333,1,2a,105,2,43,
,,,,,,,,,,,,,,,,,,,,,,,,,,images/exp2a_trial_3_colour1_distractors19_r.png,r,2,030,001,2021-04-24_21h14.49.982,searchDisc4,2020.2.10,Win32,60,,,space,0.033665,2,1,1.009715,,0,64,64,231,1,2a,3,1,19,
,,,,,,,,,,,,,,,,,,,,,,,,,,images/exp1a_trial_87_colour2_distractors43_r.png,r,2,030,001,2021-04-24_21h14.49.982,searchDisc4,2020.2.10,Win32,60,,,space,0.069115,2,1,2.44552,,0,65,65,87,1,1a,87,2,43,
,,,,,,,,,,,,,,,,,,,,,,,,,,images/exp2c_trial_112_colour0_distractors0_r.png,r,2,030,001,2021-04-24_21h14.49.982,searchDisc4,2020.2.10,Win32,60,,,space,0.068465,2,1,0.731995,,0,66,66,568,1,2c,112,0,0,
,,,,,,,,,,,,,,,,,,,,,,,,,,images/exp2c_trial_76_colour1_distractors1_r.png,r,2,030,001,2021-04-24_21h14.49.982,searchDisc4,2020.2.10,Win32,60,,,space,0.056285,2,1,0.529195,,0,67,67,532,1,2c,76,1,1,
,,,,,,,,,,,,,,,,,,,,,,,,,,images/exp2a_trial_76_colour1_distractors1_r.png,r,2,030,001,2021-04-24_21h14.49.982,searchDisc4,2020.2.10,Win32,60,,,space,0.061685,2,1,0.57379,,0,68,68,304,1,2a,76,1,1,
,,,,,,,,,,,,,,,,,,,,,,,,,,images/exp2b_trial_33_colour3_distractors19_l.png,l,1,030,001,2021-04-24_21h14.49.982,searchDisc4,2020.2.10,Win32,60,,,space,0.056395,1,1,0.62427,,0,69,69,375,1,2b,33,3,19,
,,,,,,,,,,,,,,,,,,,,,,,,,,images/exp1a_trial_108_colour3_distractors9_l.png,l,1,030,001,2021-04-24_21h14.49.982,searchDisc4,2020.2.10,Win32,60,,,space,0.073165,1,1,0.60684,,0,70,70,108,1,1a,108,3,9,
,,,,,,,,,,,,,,,,,,,,,,,,,,images/exp2b_trial_103_colour2_distractors19_l.png,l,1,030,001,2021-04-24_21h14.49.982,searchDisc4,2020.2.10,Win32,60,,,space,0.042525,1,1,0.65124,,0,71,71,445,1,2b,103,2,19,
,,,,,,,,,,,,,,,,,,,,,,,,,,images/exp2b_trial_93_colour3_distractors43_r.png,r,2,030,001,2021-04-24_21h14.49.982,searchDisc4,2020.2.10,Win32,60,,,space,0.047355,2,1,0.91439,,0,72,72,435,1,2b,93,3,43,
,,,,,,,,,,,,,,,,,,,,,,,,,,images/exp2a_trial_99_colour1_distractors43_l.png,l,1,030,001,2021-04-24_21h14.49.982,searchDisc4,2020.2.10,Win32,60,,,space,0.03867,1,1,0.785295,,0,73,73,327,1,2a,99,1,43,
,,,,,,,,,,,,,,,,,,,,,,,,,,images/exp1a_trial_98_colour1_distractors31_l.png,l,1,030,001,2021-04-24_21h14.49.982,searchDisc4,2020.2.10,Win32,60,,,space,0.06311,1,1,0.819675,,0,74,74,98,1,1a,98,1,31,
,,,,,,,,,,,,,,,,,,,,,,,,,,images/exp1b_trial_26_colour2_distractors9_l.png,l,1,030,001,2021-04-24_21h14.49.982,searchDisc4,2020.2.10,Win32,60,,,space,0.05068,1,1,0.851805,,0,75,75,140,1,1b,26,2,9,
,,,,,,,,,,,,,,,,,,,,,,,,,,images/exp2a_trial_7_colour2_distractors4_r.png,r,2,030,001,2021-04-24_21h14.49.982,searchDisc4,2020.2.10,Win32,60,,,space,0.079195,2,1,0.57705,,0,76,76,235,1,2a,7,2,4,
,,,,,,,,,,,,,,,,,,,,,,,,,,images/exp1a_trial_68_colour3_distractors1_l.png,l,1,030,001,2021-04-24_21h14.49.982,searchDisc4,2020.2.10,Win32,60,,,space,0.06047,1,1,0.68982,,0,77,77,68,1,1a,68,3,1,
,,,,,,,,,,,,,,,,,,,,,,,,,,images/exp2c_trial_6_colour2_distractors1_r.png,r,2,030,001,2021-04-24_21h14.49.982,searchDisc4,2020.2.10,Win32,60,,,space,0.03307,2,1,0.66655,,0,78,78,462,1,2c,6,2,1,
,,,,,,,,,,,,,,,,,,,,,,,,,,images/exp2a_trial_102_colour2_distractors9_l.png,l,1,030,001,2021-04-24_21h14.49.982,searchDisc4,2020.2.10,Win32,60,,,space,0.017715,1,1,0.535325,,0,79,79,330,1,2a,102,2,9,
,,,,,,,,,,,,,,,,,,,,,,,,,,images/exp2a_trial_37_colour0_distractors0_l.png,l,1,030,001,2021-04-24_21h14.49.982,searchDisc4,2020.2.10,Win32,60,,,space,0.06856,1,1,0.58945,,0,80,80,265,1,2a,37,0,0,
,,,,,,,,,,,,,,,,,,,,,,,,,,images/exp1a_trial_37_colour0_distractors0_l.png,l,1,030,001,2021-04-24_21h14.49.982,searchDisc4,2020.2.10,Win32,60,,,space,0.031075,1,1,0.60507,,0,81,81,37,1,1a,37,0,0,
,,,,,,,,,,,,,,,,,,,,,,,,,,images/exp2c_trial_79_colour1_distractors19_r.png,r,2,030,001,2021-04-24_21h14.49.982,searchDisc4,2020.2.10,Win32,60,,,space,0.0563,2,1,0.680115,,0,82,82,535,1,2c,79,1,19,
,,,,,,,,,,,,,,,,,,,,,,,,,,images/exp2a_trial_40_colour1_distractors9_r.png,r,2,030,001,2021-04-24_21h14.49.982,searchDisc4,2020.2.10,Win32,60,,,space,0.04731,2,1,0.688945,,0,83,83,268,1,2a,40,1,9,
,,,,,,,,,,,,,,,,,,,,,,,,,,images/exp2b_trial_26_colour2_distractors9_l.png,l,1,030,001,2021-04-24_21h14.49.982,searchDisc4,2020.2.10,Win32,60,,,space,0.36892,1,1,0.51893,,0,84,84,368,1,2b,26,2,9,
,,,,,,,,,,,,,,,,,,,,,,,,,,images/exp2c_trial_109_colour3_distractors19_l.png,l,1,030,001,2021-04-24_21h14.49.982,searchDisc4,2020.2.10,Win32,60,,,space,0.062715,1,1,0.6952,,0,85,85,565,1,2c,109,3,19,
,,,,,,,,,,,,,,,,,,,,,,,,,,images/exp1b_trial_18_colour1_distractors1_l.png,l,1,030,001,2021-04-24_21h14.49.982,searchDisc4,2020.2.10,Win32,60,,,space,0.029915,1,1,0.647755,,0,86,86,132,1,1b,18,1,1,
,,,,,,,,,,,,,,,,,,,,,,,,,,images/exp1b_trial_65_colour2_distractors19_l.png,l,1,030,001,2021-04-24_21h14.49.982,searchDisc4,2020.2.10,Win32,60,,,space,0.07295,1,1,1.23866,,0,87,87,179,1,1b,65,2,19,
,,,,,,,,,,,,,,,,,,,,,,,,,,images/exp1b_trial_75_colour0_distractors0_l.png,l,1,030,001,2021-04-24_21h14.49.982,searchDisc4,2020.2.10,Win32,60,,,space,0.05361,1,1,0.623945,,0,88,88,189,1,1b,75,0,0,
,,,,,,,,,,,,,,,,,,,,,,,,,,images/exp2c_trial_30_colour3_distractors1_l.png,l,1,030,001,2021-04-24_21h14.49.982,searchDisc4,2020.2.10,Win32,60,,,space,0.041085,1,1,0.68741,,0,89,89,486,1,2c,30,3,1,
,,,,,,,,,,,,,,,,,,,,,,,,,,images/exp2a_trial_5_colour1_distractors43_r.png,r,2,030,001,2021-04-24_21h14.49.982,searchDisc4,2020.2.10,Win32,60,,,space,0.0426,2,1,0.95419,,0,90,90,233,1,2a,5,1,43,
,,,,,,,,,,,,,,,,,,,,,,,,,,images/exp2b_trial_62_colour2_distractors1_l.png,l,1,030,001,2021-04-24_21h14.49.982,searchDisc4,2020.2.10,Win32,60,,,space,0.03046,1,1,0.824505,,0,91,91,404,1,2b,62,2,1,
,,,,,,,,,,,,,,,,,,,,,,,,,,images/exp2b_trial_54_colour3_distractors31_r.png,r,2,030,001,2021-04-24_21h14.49.982,searchDisc4,2020.2.10,Win32,60,,,space,0.01426,2,1,0.686085,,0,92,92,396,1,2b,54,3,31,
,,,,,,,,,,,,,,,,,,,,,,,,,,images/exp2b_trial_82_colour2_distractors1_r.png,r,2,030,001,2021-04-24_21h14.49.982,searchDisc4,2020.2.10,Win32,60,,,space,0.01051,2,1,0.80115,,0,93,93,424,1,2b,82,2,1,
,,,,,,,,,,,,,,,,,,,,,,,,,,images/exp2a_trial_43_colour1_distractors43_r.png,r,2,030,001,2021-04-24_21h14.49.982,searchDisc4,2020.2.10,Win32,60,,,space,0.00163,2,1,0.64703,,0,94,94,271,1,2a,43,1,43,
,,,,,,,,,,,,,,,,,,,,,,,,,,images/exp2a_trial_49_colour2_distractors43_r.png,r,2,030,001,2021-04-24_21h14.49.982,searchDisc4,2020.2.10,Win32,60,,,space,0.008065,2,1,0.652015,,0,95,95,277,1,2a,49,2,43,
,,,,,,,,,,,,,,,,,,,,,,,,,,images/exp2b_trial_53_colour3_distractors19_r.png,r,2,030,001,2021-04-24_21h14.49.982,searchDisc4,2020.2.10,Win32,60,,,space,0.058585,1,0,0.695955,,0,96,96,395,1,2b,53,3,19,
,,,,,,,,,,,,,,,,,,,,,,,,,,images/exp1b_trial_9_colour2_distractors19_r.png,r,2,030,001,2021-04-24_21h14.49.982,searchDisc4,2020.2.10,Win32,60,,,space,0.483825,2,1,0.918175,,0,97,97,123,1,1b,9,2,19,
,,,,,,,,,,,,,,,,,,,,,,,,,,images/exp2c_trial_59_colour1_distractors19_l.png,l,1,030,001,2021-04-24_21h14.49.982,searchDisc4,2020.2.10,Win32,60,,,space,0.01629,1,1,0.67494,,0,98,98,515,1,2c,59,1,19,
,,,,,,,,,,,,,,,,,,,,,,,,,,images/exp1b_trial_33_colour3_distractors19_l.png,l,1,030,001,2021-04-24_21h14.49.982,searchDisc4,2020.2.10,Win32,60,,,space,0.031105,1,1,1.622255,,0,99,99,147,1,1b,33,3,19,
,,,,,,,,,,,,,,,,,,,,,,,,,,images/exp1b_trial_68_colour3_distractors1_l.png,l,1,030,001,2021-04-24_21h14.49.982,searchDisc4,2020.2.10,Win32,60,,,space,0.110305,1,1,0.66003,,0,100,100,182,1,1b,68,3,1,
,,,,,,,,,,,,,,,,,,,,,,,,,,images/exp2a_trial_85_colour2_distractors19_r.png,r,2,030,001,2021-04-24_21h14.49.982,searchDisc4,2020.2.10,Win32,60,,,space,0.02118,2,1,0.90951,,0,101,101,313,1,2a,85,2,19,
,,,,,,,,,,,,,,,,,,,,,,,,,,images/exp1a_trial_81_colour1_distractors43_r.png,r,2,030,001,2021-04-24_21h14.49.982,searchDisc4,2020.2.10,Win32,60,,,space,0.08183,2,1,0.66341,,0,102,102,81,1,1a,81,1,43,
,,,,,,,,,,,,,,,,,,,,,,,,,,images/exp2a_trial_86_colour2_distractors31_r.png,r,2,030,001,2021-04-24_21h14.49.982,searchDisc4,2020.2.10,Win32,60,,,space,0.07362,2,1,0.591255,,0,103,103,314,1,2a,86,2,31,
,,,,,,,,,,,,,,,,,,,,,,,,,,images/exp2b_trial_76_colour1_distractors1_r.png,r,2,030,001,2021-04-24_21h14.49.982,searchDisc4,2020.2.10,Win32,60,,,space,0.062,2,1,0.57101,,0,104,104,418,1,2b,76,1,1,
,,,,,,,,,,,,,,,,,,,,,,,,,,images/exp2c_trial_63_colour2_distractors4_l.png,l,1,030,001,2021-04-24_21h14.49.982,searchDisc4,2020.2.10,Win32,60,,,space,0.08291,1,1,0.64378,,0,105,105,519,1,2c,63,2,4,
,,,,,,,,,,,,,,,,,,,,,,,,,,images/exp2c_trial_105_colour2_distractors43_l.png,l,1,030,001,2021-04-24_21h14.49.982,searchDisc4,2020.2.10,Win32,60,,,space,0.088905,1,1,0.88091,,0,106,106,561,1,2c,105,2,43,
,,,,,,,,,,,,,,,,,,,,,,,,,,images/exp2c_trial_100_colour2_distractors1_l.png,l,1,030,001,2021-04-24_21h14.49.982,searchDisc4,2020.2.10,Win32,60,,,space,0.07522,1,1,0.664735,,0,107,107,556,1,2c,100,2,1,
,,,,,,,,,,,,,,,,,,,,,,,,,,images/exp2c_trial_85_colour2_distractors19_r.png,r,2,030,001,2021-04-24_21h14.49.982,searchDisc4,2020.2.10,Win32,60,,,space,0.07302,2,1,0.71756,,0,108,108,541,1,2c,85,2,19,
,,,,,,,,,,,,,,,,,,,,,,,,,,images/exp1a_trial_63_colour2_distractors4_l.png,l,1,030,001,2021-04-24_21h14.49.982,searchDisc4,2020.2.10,Win32,60,,,space,0.083455,1,1,0.771,,0,109,109,63,1,1a,63,2,4,
,,,,,,,,,,,,,,,,,,,,,,,,,,images/exp1a_trial_104_colour2_distractors31_l.png,l,1,030,001,2021-04-24_21h14.49.982,searchDisc4,2020.2.10,Win32,60,,,space,0.060345,1,1,0.6259,,0,110,110,104,1,1a,104,2,31,
,,,,,,,,,,,,,,,,,,,,,,,,,,images/exp1b_trial_44_colour2_distractors1_r.png,r,2,030,001,2021-04-24_21h14.49.982,searchDisc4,2020.2.10,Win32,60,,,space,0.08193,2,1,0.65835,,0,111,111,158,1,1b,44,2,1,
,,,,,,,,,,,,,,,,,,,,,,,,,,images/exp2a_trial_112_colour0_distractors0_r.png,r,2,030,001,2021-04-24_21h14.49.982,searchDisc4,2020.2.10,Win32,60,,,space,0.062695,2,1,0.58015,,0,112,112,340,1,2a,112,0,0,
,,,,,,,,,,,,,,,,,,,,,,,,,,images/exp2a_trial_59_colour1_distractors19_l.png,l,1,030,001,2021-04-24_21h14.49.982,searchDisc4,2020.2.10,Win32,60,,,space,0.04008,1,1,0.57837,,0,113,113,287,1,2a,59,1,19,
,,,,,,,,,,,,,,,,,,,,,,,,,,images/exp2a_trial_91_colour3_distractors19_r.png,r,2,030,001,2021-04-24_21h14.49.982,searchDisc4,2020.2.10,Win32,60,,,space,0.061095,2,1,0.55554,,0,114,114,319,1,2a,91,3,19,
,,,,,,,,,,,,,,,,,,,,,,,,,,images/exp2a_trial_57_colour1_distractors4_l.png,l,1,030,001,2021-04-24_21h14.49.982,searchDisc4,2020.2.10,Win32,60,,,space,0.05653,1,1,0.831995,,0,115,115,285,1,2a,57,1,4,
,,,,,,,,,,,,,,,,,,,,,,,,,,images/exp2c_trial_2_colour1_distractors9_r.png,r,2,030,001,2021-04-24_21h14.49.982,searchDisc4,2020.2.10,Win32,60,,,space,0.080145,2,1,0.61266,,0,116,116,458,1,2c,2,1,9,
,,,,,,,,,,,,,,,,,,,,,,,,,,images/exp2c_trial_39_colour1_distractors4_r.png,r,2,030,001,2021-04-24_21h14.49.982,searchDisc4,2020.2.10,Win32,60,,,space,0.077855,2,1,0.679555,,0,117,117,495,1,2c,39,1,4,
,,,,,,,,,,,,,,,,,,,,,,,,,,images/exp2c_trial_8_colour2_distractors9_r.png,r,2,030,001,2021-04-24_21h14.49.982,searchDisc4,2020.2.10,Win32,60,,,space,0.06518,2,1,0.826965,,0,118,118,464,1,2c,8,2,9,
,,,,,,,,,,,,,,,,,,,,,,,,,,images/exp1a_trial_24_colour2_distractors1_l.png,l,1,030,001,2021-04-24_21h14.49.982,searchDisc4,2020.2.10,Win32,60,,,space,0.08146,1,1,0.82803,space,0,119,119,24,1,1a,24,2,1,0.0569
,,,,,,,,,,,,,,,,,,,,,,,,,,images/exp2a_trial_72_colour3_distractors31_l.png,l,1,030,001,2021-04-24_21h14.49.982,searchDisc4,2020.2.10,Win32,60,,,space,0.93455,1,1,0.60825,,0,120,120,300,1,2a,72,3,31,
,,,,,,,,,,,,,,,,,,,,,,,,,,images/exp2a_trial_44_colour2_distractors1_r.png,r,2,030,001,2021-04-24_21h14.49.982,searchDisc4,2020.2.10,Win32,60,,,space,0.070255,2,1,0.676465,,0,121,121,272,1,2a,44,2,1,
,,,,,,,,,,,,,,,,,,,,,,,,,,images/exp2c_trial_35_colour3_distractors43_l.png,l,1,030,001,2021-04-24_21h14.49.982,searchDisc4,2020.2.10,Win32,60,,,space,0.06693,1,1,0.705035,,0,122,122,491,1,2c,35,3,43,
,,,,,,,,,,,,,,,,,,,,,,,,,,images/exp2b_trial_9_colour2_distractors19_r.png,r,2,030,001,2021-04-24_21h14.49.982,searchDisc4,2020.2.10,Win32,60,,,space,0.057345,2,1,0.612,,0,123,123,351,1,2b,9,2,19,
,,,,,,,,,,,,,,,,,,,,,,,,,,images/exp2c_trial_82_colour2_distractors1_r.png,r,2,030,001,2021-04-24_21h14.49.982,searchDisc4,2020.2.10,Win32,60,,,space,0.072925,2,1,0.65901,,0,124,124,538,1,2c,82,2,1,
,,,,,,,,,,,,,,,,,,,,,,,,,,images/exp1b_trial_29_colour2_distractors43_l.png,l,1,030,001,2021-04-24_21h14.49.982,searchDisc4,2020.2.10,Win32,60,,,space,0.29469,1,1,1.211835,,0,125,125,143,1,1b,29,2,43,
,,,,,,,,,,,,,,,,,,,,,,,,,,images/exp2a_trial_98_colour1_distractors31_l.png,l,1,030,001,2021-04-24_21h14.49.982,searchDisc4,2020.2.10,Win32,60,,,space,0.06502,1,1,0.974875,,0,126,126,326,1,2a,98,1,31,
,,,,,,,,,,,,,,,,,,,,,,,,,,images/exp1b_trial_61_colour1_distractors43_l.png,l,1,030,001,2021-04-24_21h14.49.982,searchDisc4,2020.2.10,Win32,60,,,space,0.07677,1,1,1.298425,,0,127,127,175,1,1b,61,1,43,
,,,,,,,,,,,,,,,,,,,,,,,,,,images/exp2c_trial_51_colour3_distractors4_r.png,r,2,030,001,2021-04-24_21h14.49.982,searchDisc4,2020.2.10,Win32,60,,,space,0.029525,2,1,0.6869,,0,128,128,507,1,2c,51,3,4,
,,,,,,,,,,,,,,,,,,,,,,,,,,images/exp1b_trial_90_colour3_distractors9_r.png,r,2,030,001,2021-04-24_21h14.49.982,searchDisc4,2020.2.10,Win32,60,,,space,0.058735,2,1,0.605785,,0,129,129,204,1,1b,90,3,9,
,,,,,,,,,,,,,,,,,,,,,,,,,,images/exp2c_trial_49_colour2_distractors43_r.png,r,2,030,001,2021-04-24_21h14.49.982,searchDisc4,2020.2.10,Win32,60,,,space,0.064915,2,1,0.58916,,0,130,130,505,1,2c,49,2,43,
,,,,,,,,,,,,,,,,,,,,,,,,,,images/exp1a_trial_23_colour1_distractors43_l.png,l,1,030,001,2021-04-24_21h14.49.982,searchDisc4,2020.2.10,Win32,60,,,space,0.06301,1,1,0.813285,,0,131,131,23,1,1a,23,1,43,
,,,,,,,,,,,,,,,,,,,,,,,,,,images/exp2b_trial_61_colour1_distractors43_l.png,l,1,030,001,2021-04-24_21h14.49.982,searchDisc4,2020.2.10,Win32,60,,,space,0.0476,1,1,0.75359,,0,132,132,403,1,2b,61,1,43,
,,,,,,,,,,,,,,,,,,,,,,,,,,images/exp2a_trial_66_colour2_distractors31_l.png,l,1,030,001,2021-04-24_21h14.49.982,searchDisc4,2020.2.10,Win32,60,,,space,0.03826,1,1,0.65952,,0,133,133,294,1,2a,66,2,31,
,,,,,,,,,,,,,,,,,,,,,,,,,,images/exp1b_trial_57_colour1_distractors4_l.png,l,1,030,001,2021-04-24_21h14.49.982,searchDisc4,2020.2.10,Win32,60,,,space,0.05775,1,1,0.788975,,0,134,134,171,1,1b,57,1,4,
,,,,,,,,,,,,,,,,,,,,,,,,,,images/exp2b_trial_96_colour1_distractors9_l.png,l,1,030,001,2021-04-24_21h14.49.982,searchDisc4,2020.2.10,Win32,60,,,space,0.05726,1,1,0.624665,,0,135,135,438,1,2b,96,1,9,
,,,,,,,,,,,,,,,,,,,,,,,,,,images/exp1a_trial_101_colour2_distractors4_l.png,l,1,030,001,2021-04-24_21h14.49.982,searchDisc4,2020.2.10,Win32,60,,,space,0.065015,1,1,0.606055,,0,136,136,101,1,1a,101,2,4,
,,,,,,,,,,,,,,,,,,,,,,,,,,images/exp1b_trial_16_colour3_distractors31_r.png,r,2,030,001,2021-04-24_21h14.49.982,searchDisc4,2020.2.10,Win32,60,,,space,0.047195,2,1,4.75084,,0,137,137,130,1,1b,16,3,31,
,,,,,,,,,,,,,,,,,,,,,,,,,,images/exp1a_trial_62_colour2_distractors1_l.png,l,1,030,001,2021-04-24_21h14.49.982,searchDisc4,2020.2.10,Win32,60,,,space,0.06475,1,1,0.75819,,0,138,138,62,1,1a,62,2,1,
,,,,,,,,,,,,,,,,,,,,,,,,,,images/exp2c_trial_101_colour2_distractors4_l.png,l,1,030,001,2021-04-24_21h14.49.982,searchDisc4,2020.2.10,Win32,60,,,space,0.05692,1,1,0.8824,,0,139,139,557,1,2c,101,2,4,
,,,,,,,,,,,,,,,,,,,,,,,,,,images/exp1a_trial_7_colour2_distractors4_r.png,r,2,030,001,2021-04-24_21h14.49.982,searchDisc4,2020.2.10,Win32,60,,,space,0.040695,2,1,0.57958,,0,140,140,7,1,1a,7,2,4,
,,,,,,,,,,,,,,,,,,,,,,,,,,images/exp1b_trial_113_colour0_distractors0_l.png,l,1,030,001,2021-04-24_21h14.49.982,searchDisc4,2020.2.10,Win32,60,,,space,0.04427,1,1,0.634115,,0,141,141,227,1,1b,113,0,0,
,,,,,,,,,,,,,,,,,,,,,,,,,,images/exp2c_trial_37_colour0_distractors0_l.png,l,1,030,001,2021-04-24_21h14.49.982,searchDisc4,2020.2.10,Win32,60,,,space,0.04178,1,1,0.55366,,0,142,142,493,1,2c,37,0,0,
,,,,,,,,,,,,,,,,,,,,,,,,,,images/exp2c_trial_10_colour2_distractors31_r.png,r,2,030,001,2021-04-24_21h14.49.982,searchDisc4,2020.2.10,Win32,60,,,space,0.051685,2,1,0.56871,,0,143,143,466,1,2c,10,2,31,
,,,,,,,,,,,,,,,,,,,,,,,,,,images/exp2a_trial_29_colour2_distractors43_l.png,l,1,030,001,2021-04-24_21h14.49.982,searchDisc4,2020.2.10,Win32,60,,,space,0.056235,1,1,0.558315,,0,144,144,257,1,2a,29,2,43,
,,,,,,,,,,,,,,,,,,,,,,,,,,images/exp2b_trial_84_colour2_distractors9_r.png,r,2,030,001,2021-04-24_21h14.49.982,searchDisc4,2020.2.10,Win32,60,,,space,0.020875,2,1,0.57853,,0,145,145,426,1,2b,84,2,9,
,,,,,,,,,,,,,,,,,,,,,,,,,,images/exp1a_trial_69_colour3_distractors4_l.png,l,1,030,001,2021-04-24_21h14.49.982,searchDisc4,2020.2.10,Win32,60,,,space,0.04072,1,1,0.56548,,0,146,146,69,1,1a,69,3,4,
,,,,,,,,,,,,,,,,,,,,,,,,,,images/exp1a_trial_113_colour0_distractors0_l.png,l,1,030,001,2021-04-24_21h14.49.982,searchDisc4,2020.2.10,Win32,60,,,space,0.038625,1,1,0.582255,,0,147,147,113,1,1a,113,0,0,
,,,,,,,,,,,,,,,,,,,,,,,,,,images/exp1a_trial_86_colour2_distractors31_r.png,r,2,030,001,2021-04-24_21h14.49.982,searchDisc4,2020.2.10,Win32,60,,,space,0.028465,2,1,0.75788,,0,148,148,86,1,1a,86,2,31,
,,,,,,,,,,,,,,,,,,,,,,,,,,images/exp2c_trial_50_colour3_distractors1_r.png,r,2,030,001,2021-04-24_21h14.49.982,searchDisc4,2020.2.10,Win32,60,,,space,0.047165,2,1,0.954985,,0,149,149,506,1,2c,50,3,1,
,,,,,,,,,,,,,,,,,,,,,,,,,,images/exp2a_trial_69_colour3_distractors4_l.png,l,1,030,001,2021-04-24_21h14.49.982,searchDisc4,2020.2.10,Win32,60,,,space,0.02838,1,1,0.63266,,0,150,150,297,1,2a,69,3,4,
,,,,,,,,,,,,,,,,,,,,,,,,,,images/exp2c_trial_89_colour3_distractors4_r.png,r,2,030,001,2021-04-24_21h14.49.982,searchDisc4,2020.2.10,Win32,60,,,space,0.05264,2,1,0.60724,,0,151,151,545,1,2c,89,3,4,
,,,,,,,,,,,,,,,,,,,,,,,,,,images/exp1a_trial_53_colour3_distractors19_r.png,r,2,030,001,2021-04-24_21h14.49.982,searchDisc4,2020.2.10,Win32,60,,,space,0.017455,2,1,0.71633,,0,152,152,53,1,1a,53,3,19,
,,,,,,,,,,,,,,,,,,,,,,,,,,images/exp1a_trial_85_colour2_distractors19_r.png,r,2,030,001,2021-04-24_21h14.49.982,searchDisc4,2020.2.10,Win32,60,,,space,0.003555,2,1,1.028875,,0,153,153,85,1,1a,85,2,19,
,,,,,,,,,,,,,,,,,,,,,,,,,,images/exp1a_trial_59_colour1_distractors19_l.png,l,1,030,001,2021-04-24_21h14.49.982,searchDisc4,2020.2.10,Win32,60,,,space,0.0146,1,1,0.6775,,0,154,154,59,1,1a,59,1,19,
,,,,,,,,,,,,,,,,,,,,,,,,,,images/exp2a_trial_108_colour3_distractors9_l.png,l,1,030,001,2021-04-24_21h14.49.982,searchDisc4,2020.2.10,Win32,60,,,space,0.036065,1,1,0.618735,,0,155,155,336,1,2a,108,3,9,
,,,,,,,,,,,,,,,,,,,,,,,,,,images/exp2a_trial_75_colour0_distractors0_l.png,l,1,030,001,2021-04-24_21h14.49.982,searchDisc4,2020.2.10,Win32,60,,,space,0.036215,1,1,0.902625,,0,156,156,303,1,2a,75,0,0,
,,,,,,,,,,,,,,,,,,,,,,,,,,images/exp2a_trial_13_colour3_distractors4_r.png,r,2,030,001,2021-04-24_21h14.49.982,searchDisc4,2020.2.10,Win32,60,,,space,0.03863,2,1,0.72015,,0,157,157,241,1,2a,13,3,4,
,,,,,,,,,,,,,,,,,,,,,,,,,,images/exp1b_trial_92_colour3_distractors31_r.png,r,2,030,001,2021-04-24_21h14.49.982,searchDisc4,2020.2.10,Win32,60,,,space,0.02058,2,1,1.900495,,0,158,158,206,1,1b,92,3,31,
,,,,,,,,,,,,,,,,,,,,,,,,,,images/exp1a_trial_111_colour3_distractors43_l.png,l,1,030,001,2021-04-24_21h14.49.982,searchDisc4,2020.2.10,Win32,60,,,space,0.033475,1,1,0.71611,,0,159,159,111,1,1a,111,3,43,
,,,,,,,,,,,,,,,,,,,,,,,,,,images/exp2b_trial_3_colour1_distractors19_r.png,r,2,030,001,2021-04-24_21h14.49.982,searchDisc4,2020.2.10,Win32,60,,,space,0.080745,2,1,0.600615,,0,160,160,345,1,2b,3,1,19,
,,,,,,,,,,,,,,,,,,,,,,,,,,images/exp2a_trial_74_colour0_distractors0_r.png,r,2,030,001,2021-04-24_21h14.49.982,searchDisc4,2020.2.10,Win32,60,,,space,0.046385,2,1,0.60835,,0,161,161,302,1,2a,74,0,0,
,,,,,,,,,,,,,,,,,,,,,,,,,,images/exp2c_trial_18_colour1_distractors1_l.png,l,1,030,001,2021-04-24_21h14.49.982,searchDisc4,2020.2.10,Win32,60,,,space,0.03503,1,1,0.59126,,0,162,162,474,1,2c,18,1,1,
,,,,,,,,,,,,,,,,,,,,,,,,,,images/exp1a_trial_18_colour1_distractors1_l.png,l,1,030,001,2021-04-24_21h14.49.982,searchDisc4,2020.2.10,Win32,60,,,space,0.01002,1,1,0.69781,,0,163,163,18,1,1a,18,1,1,
,,,,,,,,,,,,,,,,,,,,,,,,,,images/exp2c_trial_25_colour2_distractors4_l.png,l,1,030,001,2021-04-24_21h14.49.982,searchDisc4,2020.2.10,Win32,60,,,space,0.024845,1,1,0.59667,,0,164,164,481,1,2c,25,2,4,
,,,,,,,,,,,,,,,,,,,,,,,,,,images/exp1a_trial_20_colour1_distractors9_l.png,l,1,030,001,2021-04-24_21h14.49.982,searchDisc4,2020.2.10,Win32,60,,,space,0.04249,1,1,0.6187,,0,165,165,20,1,1a,20,1,9,
,,,,,,,,,,,,,,,,,,,,,,,,,,images/exp2c_trial_22_colour1_distractors31_l.png,l,1,030,001,2021-04-24_21h14.49.982,searchDisc4,2020.2.10,Win32,60,,,space,0.26779,1,1,0.85859,,0,166,166,478,1,2c,22,1,31,
,,,,,,,,,,,,,,,,,,,,,,,,,,images/exp1b_trial_74_colour0_distractors0_r.png,r,2,030,001,2021-04-24_21h14.49.982,searchDisc4,2020.2.10,Win32,60,,,space,0.07664,2,1,0.543595,,0,167,167,188,1,1b,74,0,0,
,,,,,,,,,,,,,,,,,,,,,,,,,,images/exp2b_trial_43_colour1_distractors43_r.png,r,2,030,001,2021-04-24_21h14.49.982,searchDisc4,2020.2.10,Win32,60,,,space,0.049185,2,1,0.64701,,0,168,168,385,1,2b,43,1,43,
,,,,,,,,,,,,,,,,,,,,,,,,,,images/exp2b_trial_37_colour0_distractors0_l.png,l,1,030,001,2021-04-24_21h14.49.982,searchDisc4,2020.2.10,Win32,60,,,space,0.044985,1,1,0.63727,,0,169,169,379,1,2b,37,0,0,
,,,,,,,,,,,,,,,,,,,,,,,,,,images/exp1b_trial_20_colour1_distractors9_l.png,l,1,030,001,2021-04-24_21h14.49.982,searchDisc4,2020.2.10,Win32,60,,,space,0.012985,1,1,0.6441,,0,170,170,134,1,1b,20,1,9,
,,,,,,,,,,,,,,,,,,,,,,,,,,images/exp2c_trial_90_colour3_distractors9_r.png,r,2,030,001,2021-04-24_21h14.49.982,searchDisc4,2020.2.10,Win32,60,,,space,0.054405,2,1,0.595125,,0,171,171,546,1,2c,90,3,9,
,,,,,,,,,,,,,,,,,,,,,,,,,,images/exp1b_trial_28_colour2_distractors31_l.png,l,1,030,001,2021-04-24_21h14.49.982,searchDisc4,2020.2.10,Win32,60,,,space,0.04757,1,1,0.879775,,0,172,172,142,1,1b,28,2,31,
,,,,,,,,,,,,,,,,,,,,,,,,,,images/exp2a_trial_96_colour1_distractors9_l.png,l,1,030,001,2021-04-24_21h14.49.982,searchDisc4,2020.2.10,Win32,60,,,space,0.02846,1,1,0.898675,,0,173,173,324,1,2a,96,1,9,
,,,,,,,,,,,,,,,,,,,,,,,,,,images/exp2c_trial_104_colour2_distractors31_l.png,l,1,030,001,2021-04-24_21h14.49.982,searchDisc4,2020.2.10,Win32,60,,,space,0.01957,1,1,0.92298,,0,174,174,560,1,2c,104,2,31,
,,,,,,,,,,,,,,,,,,,,,,,,,,images/exp2c_trial_3_colour1_distractors19_r.png,r,2,030,001,2021-04-24_21h14.49.982,searchDisc4,2020.2.10,Win32,60,,,space,0.057485,2,1,0.636925,,0,175,175,459,1,2c,3,1,19,
,,,,,,,,,,,,,,,,,,,,,,,,,,images/exp2a_trial_50_colour3_distractors1_r.png,r,2,030,001,2021-04-24_21h14.49.982,searchDisc4,2020.2.10,Win32,60,,,space,0.054035,2,1,0.63134,,0,176,176,278,1,2a,50,3,1,
,,,,,,,,,,,,,,,,,,,,,,,,,,images/exp2a_trial_23_colour1_distractors43_l.png,l,1,030,001,2021-04-24_21h14.49.982,searchDisc4,2020.2.10,Win32,60,,,space,0.04116,1,1,0.680805,,0,177,177,251,1,2a,23,1,43,
,,,,,,,,,,,,,,,,,,,,,,,,,,images/exp1b_trial_17_colour3_distractors43_r.png,r,2,030,001,2021-04-24_21h14.49.982,searchDisc4,2020.2.10,Win32,60,,,space,0.04033,2,1,2.76623,,0,178,178,131,1,1b,17,3,43,
,,,,,,,,,,,,,,,,,,,,,,,,,,images/exp1a_trial_10_colour2_distractors31_r.png,r,2,030,001,2021-04-24_21h14.49.982,searchDisc4,2020.2.10,Win32,60,,,space,0.07913,2,1,1.25922,space,0,179,179,10,1,1a,10,2,31,0.056785
,,,,,,,,,,,,,,,,,,,,,,,,,,images/exp2a_trial_100_colour2_distractors1_l.png,l,1,030,001,2021-04-24_21h14.49.982,searchDisc4,2020.2.10,Win32,60,,,space,0.853755,1,1,0.518405,,0,180,180,328,1,2a,100,2,1,
,,,,,,,,,,,,,,,,,,,,,,,,,,images/exp1a_trial_16_colour3_distractors31_r.png,r,2,030,001,2021-04-24_21h14.49.982,searchDisc4,2020.2.10,Win32,60,,,space,0.047645,2,1,0.85439,,0,181,181,16,1,1a,16,3,31,
,,,,,,,,,,,,,,,,,,,,,,,,,,images/exp2c_trial_28_colour2_distractors31_l.png,l,1,030,001,2021-04-24_21h14.49.982,searchDisc4,2020.2.10,Win32,60,,,space,0.03651,1,1,0.898715,,0,182,182,484,1,2c,28,2,31,
,,,,,,,,,,,,,,,,,,,,,,,,,,images/exp1a_trial_70_colour3_distractors9_l.png,l,1,030,001,2021-04-24_21h14.49.982,searchDisc4,2020.2.10,Win32,60,,,space,0.03572,1,1,0.77476,,0,183,183,70,1,1a,70,3,9,
,,,,,,,,,,,,,,,,,,,,,,,,,,images/exp1a_trial_58_colour1_distractors9_l.png,l,1,030,001,2021-04-24_21h14.49.982,searchDisc4,2020.2.10,Win32,60,,,space,0.026385,1,1,0.567745,,0,184,184,58,1,1a,58,1,9,
,,,,,,,,,,,,,,,,,,,,,,,,,,images/exp1b_trial_55_colour3_distractors43_r.png,r,2,030,001,2021-04-24_21h14.49.982,searchDisc4,2020.2.10,Win32,60,,,space,0.028625,,0,,,0,185,185,169,1,1b,55,3,43,
,,,,,,,,,,,,,,,,,,,,,,,,,,images/exp1a_trial_54_colour3_distractors31_r.png,r,2,030,001,2021-04-24_21h14.49.982,searchDisc4,2020.2.10,Win32,60,,,space,0.61868,2,1,0.51413,,0,186,186,54,1,1a,54,3,31,
,,,,,,,,,,,,,,,,,,,,,,,,,,images/exp2b_trial_68_colour3_distractors1_l.png,l,1,030,001,2021-04-24_21h14.49.982,searchDisc4,2020.2.10,Win32,60,,,space,0.038885,1,1,0.910985,,0,187,187,410,1,2b,68,3,1,
,,,,,,,,,,,,,,,,,,,,,,,,,,images/exp2a_trial_68_colour3_distractors1_l.png,l,1,030,001,2021-04-24_21h14.49.982,searchDisc4,2020.2.10,Win32,60,,,space,0.04085,1,1,0.52297,,0,188,188,296,1,2a,68,3,1,
,,,,,,,,,,,,,,,,,,,,,,,,,,images/exp2a_trial_2_colour1_distractors9_r.png,r,2,030,001,2021-04-24_21h14.49.982,searchDisc4,2020.2.10,Win32,60,,,space,0.045315,2,1,1.364185,,0,189,189,230,1,2a,2,1,9,
,,,,,,,,,,,,,,,,,,,,,,,,,,images/exp1b_trial_109_colour3_distractors19_l.png,l,1,030,001,2021-04-24_21h14.49.982,searchDisc4,2020.2.10,Win32,60,,,space,0.02309,1,1,1.42802,,0,190,190,223,1,1b,109,3,19,
,,,,,,,,,,,,,,,,,,,,,,,,,,images/exp1b_trial_52_colour3_distractors9_r.png,r,2,030,001,2021-04-24_21h14.49.982,searchDisc4,2020.2.10,Win32,60,,,space,0.03116,2,1,0.96949,,0,191,191,166,1,1b,52,3,9,
,,,,,,,,,,,,,,,,,,,,,,,,,,images/exp1b_trial_24_colour2_distractors1_l.png,l,1,030,001,2021-04-24_21h14.49.982,searchDisc4,2020.2.10,Win32,60,,,space,0.038435,1,1,0.6941,,0,192,192,138,1,1b,24,2,1,
,,,,,,,,,,,,,,,,,,,,,,,,,,images/exp2b_trial_70_colour3_distractors9_l.png,l,1,030,001,2021-04-24_21h14.49.982,searchDisc4,2020.2.10,Win32,60,,,space,0.033455,1,1,0.81203,,0,193,193,412,1,2b,70,3,9,
,,,,,,,,,,,,,,,,,,,,,,,,,,images/exp2c_trial_26_colour2_distractors9_l.png,l,1,030,001,2021-04-24_21h14.49.982,searchDisc4,2020.2.10,Win32,60,,,space,0.030385,1,1,0.663975,,0,194,194,482,1,2c,26,2,9,
,,,,,,,,,,,,,,,,,,,,,,,,,,images/exp2a_trial_16_colour3_distractors31_r.png,r,2,030,001,2021-04-24_21h14.49.982,searchDisc4,2020.2.10,Win32,60,,,space,0.02748,2,1,0.64345,,0,195,195,244,1,2a,16,3,31,
,,,,,,,,,,,,,,,,,,,,,,,,,,images/exp1b_trial_62_colour2_distractors1_l.png,l,1,030,001,2021-04-24_21h14.49.982,searchDisc4,2020.2.10,Win32,60,,,space,0.041065,1,1,0.881605,,0,196,196,176,1,1b,62,2,1,
,,,,,,,,,,,,,,,,,,,,,,,,,,images/exp1a_trial_43_colour1_distractors43_r.png,r,2,030,001,2021-04-24_21h14.49.982,searchDisc4,2020.2.10,Win32,60,,,space,0.023295,2,1,0.909195,,0,197,197,43,1,1a,43,1,43,
,,,,,,,,,,,,,,,,,,,,,,,,,,images/exp2a_trial_107_colour3_distractors4_l.png,l,1,030,001,2021-04-24_21h14.49.982,searchDisc4,2020.2.10,Win32,60,,,space,0.500735,1,1,0.48567,,0,198,198,335,1,2a,107,3,4,
,,,,,,,,,,,,,,,,,,,,,,,,,,images/exp1b_trial_81_colour1_distractors43_r.png,r,2,030,001,2021-04-24_21h14.49.982,searchDisc4,2020.2.10,Win32,60,,,space,0.06187,2,1,0.763165,,0,199,199,195,1,1b,81,1,43,
,,,,,,,,,,,,,,,,,,,,,,,,,,images/exp2a_trial_17_colour3_distractors43_r.png,r,2,030,001,2021-04-24_21h14.49.982,searchDisc4,2020.2.10,Win32,60,,,space,0.054155,2,1,0.73134,,0,200,200,245,1,2a,17,3,43,
,,,,,,,,,,,,,,,,,,,,,,,,,,images/exp2b_trial_5_colour1_distractors43_r.png,r,2,030,001,2021-04-24_21h14.49.982,searchDisc4,2020.2.10,Win32,60,,,space,0.00549,2,1,0.63788,,0,201,201,347,1,2b,5,1,43,
,,,,,,,,,,,,,,,,,,,,,,,,,,images/exp2b_trial_57_colour1_distractors4_l.png,l,1,030,001,2021-04-24_21h14.49.982,searchDisc4,2020.2.10,Win32,60,,,space,0.06993,1,1,0.54735,,0,202,202,399,1,2b,57,1,4,
,,,,,,,,,,,,,,,,,,,,,,,,,,images/exp2b_trial_36_colour0_distractors0_r.png,r,2,030,001,2021-04-24_21h14.49.982,searchDisc4,2020.2.10,Win32,60,,,space,0.054655,2,1,0.51702,,0,203,203,378,1,2b,36,0,0,
,,,,,,,,,,,,,,,,,,,,,,,,,,images/exp1b_trial_106_colour3_distractors1_l.png,l,1,030,001,2021-04-24_21h14.49.982,searchDisc4,2020.2.10,Win32,60,,,space,0.056305,1,1,0.678825,,0,204,204,220,1,1b,106,3,1,
,,,,,,,,,,,,,,,,,,,,,,,,,,images/exp2c_trial_72_colour3_distractors31_l.png,l,1,030,001,2021-04-24_21h14.49.982,searchDisc4,2020.2.10,Win32,60,,,space,0.054305,1,1,0.867235,,0,205,205,528,1,2c,72,3,31,
,,,,,,,,,,,,,,,,,,,,,,,,,,images/exp1a_trial_79_colour1_distractors19_r.png,r,2,030,001,2021-04-24_21h14.49.982,searchDisc4,2020.2.10,Win32,60,,,space,0.030975,2,1,0.611085,,0,206,206,79,1,1a,79,1,19,
,,,,,,,,,,,,,,,,,,,,,,,,,,images/exp1b_trial_64_colour2_distractors9_l.png,l,1,030,001,2021-04-24_21h14.49.982,searchDisc4,2020.2.10,Win32,60,,,space,0.045275,1,1,0.952815,,0,207,207,178,1,1b,64,2,9,
,,,,,,,,,,,,,,,,,,,,,,,,,,images/exp2b_trial_80_colour1_distractors31_r.png,r,2,030,001,2021-04-24_21h14.49.982,searchDisc4,2020.2.10,Win32,60,,,space,0.04195,2,1,0.770605,,0,208,208,422,1,2b,80,1,31,
,,,,,,,,,,,,,,,,,,,,,,,,,,images/exp2c_trial_92_colour3_distractors31_r.png,r,2,030,001,2021-04-24_21h14.49.982,searchDisc4,2020.2.10,Win32,60,,,space,0.033195,2,1,0.75266,,0,209,209,548,1,2c,92,3,31,
,,,,,,,,,,,,,,,,,,,,,,,,,,images/exp1b_trial_40_colour1_distractors9_r.png,r,2,030,001,2021-04-24_21h14.49.982,searchDisc4,2020.2.10,Win32,60,,,space,0.024795,2,1,1.078205,,0,210,210,154,1,1b,40,1,9,
,,,,,,,,,,,,,,,,,,,,,,,,,,images/exp2b_trial_40_colour1_distractors9_r.png,r,2,030,001,2021-04-24_21h14.49.982,searchDisc4,2020.2.10,Win32,60,,,space,0.05493,2,1,0.5598,,0,211,211,382,1,2b,40,1,9,
,,,,,,,,,,,,,,,,,,,,,,,,,,images/exp2c_trial_95_colour1_distractors4_l.png,l,1,030,001,2021-04-24_21h14.49.982,searchDisc4,2020.2.10,Win32,60,,,space,0.0781,1,1,0.539005,,0,212,212,551,1,2c,95,1,4,
,,,,,,,,,,,,,,,,,,,,,,,,,,images/exp1b_trial_59_colour1_distractors19_l.png,l,1,030,001,2021-04-24_21h14.49.982,searchDisc4,2020.2.10,Win32,60,,,space,0.07222,1,1,0.746565,,0,213,213,173,1,1b,59,1,19,
,,,,,,,,,,,,,,,,,,,,,,,,,,images/exp1a_trial_47_colour2_distractors19_r.png,r,2,030,001,2021-04-24_21h14.49.982,searchDisc4,2020.2.10,Win32,60,,,space,0.07037,2,1,0.738985,,0,214,214,47,1,1a,47,2,19,
,,,,,,,,,,,,,,,,,,,,,,,,,,images/exp1a_trial_13_colour3_distractors4_r.png,r,2,030,001,2021-04-24_21h14.49.982,searchDisc4,2020.2.10,Win32,60,,,space,0.068595,2,1,0.61134,,0,215,215,13,1,1a,13,3,4,
,,,,,,,,,,,,,,,,,,,,,,,,,,images/exp2c_trial_86_colour2_distractors31_r.png,r,2,030,001,2021-04-24_21h14.49.982,searchDisc4,2020.2.10,Win32,60,,,space,0.06787,2,1,0.712375,,0,216,216,542,1,2c,86,2,31,
,,,,,,,,,,,,,,,,,,,,,,,,,,images/exp2a_trial_47_colour2_distractors19_r.png,r,2,030,001,2021-04-24_21h14.49.982,searchDisc4,2020.2.10,Win32,60,,,space,0.037865,2,1,0.62013,,0,217,217,275,1,2a,47,2,19,
,,,,,,,,,,,,,,,,,,,,,,,,,,images/exp1a_trial_19_colour1_distractors4_l.png,l,1,030,001,2021-04-24_21h14.49.982,searchDisc4,2020.2.10,Win32,60,,,space,0.03492,1,1,0.779695,,0,218,218,19,1,1a,19,1,4,
,,,,,,,,,,,,,,,,,,,,,,,,,,images/exp2a_trial_10_colour2_distractors31_r.png,r,2,030,001,2021-04-24_21h14.49.982,searchDisc4,2020.2.10,Win32,60,,,space,0.044265,2,1,0.565085,,0,219,219,238,1,2a,10,2,31,
,,,,,,,,,,,,,,,,,,,,,,,,,,images/exp1a_trial_89_colour3_distractors4_r.png,r,2,030,001,2021-04-24_21h14.49.982,searchDisc4,2020.2.10,Win32,60,,,space,0.04523,2,1,0.694055,,0,220,220,89,1,1a,89,3,4,
,,,,,,,,,,,,,,,,,,,,,,,,,,images/exp2c_trial_93_colour3_distractors43_r.png,r,2,030,001,2021-04-24_21h14.49.982,searchDisc4,2020.2.10,Win32,60,,,space,0.035045,2,1,0.53183,,0,221,221,549,1,2c,93,3,43,
,,,,,,,,,,,,,,,,,,,,,,,,,,images/exp2a_trial_63_colour2_distractors4_l.png,l,1,030,001,2021-04-24_21h14.49.982,searchDisc4,2020.2.10,Win32,60,,,space,0.055715,1,1,0.74411,,0,222,222,291,1,2a,63,2,4,
,,,,,,,,,,,,,,,,,,,,,,,,,,images/exp1a_trial_36_colour0_distractors0_r.png,r,2,030,001,2021-04-24_21h14.49.982,searchDisc4,2020.2.10,Win32,60,,,space,0.049125,2,1,0.51733,,0,223,223,36,1,1a,36,0,0,
,,,,,,,,,,,,,,,,,,,,,,,,,,images/exp2a_trial_30_colour3_distractors1_l.png,l,1,030,001,2021-04-24_21h14.49.982,searchDisc4,2020.2.10,Win32,60,,,space,0.05061,1,1,0.66633,,0,224,224,258,1,2a,30,3,1,
,,,,,,,,,,,,,,,,,,,,,,,,,,images/exp2c_trial_17_colour3_distractors43_r.png,r,2,030,001,2021-04-24_21h14.49.982,searchDisc4,2020.2.10,Win32,60,,,space,0.028655,2,1,0.519555,,0,225,225,473,1,2c,17,3,43,
,,,,,,,,,,,,,,,,,,,,,,,,,,images/exp2c_trial_42_colour1_distractors31_r.png,r,2,030,001,2021-04-24_21h14.49.982,searchDisc4,2020.2.10,Win32,60,,,space,0.045145,2,1,0.67492,,0,226,226,498,1,2c,42,1,31,
,,,,,,,,,,,,,,,,,,,,,,,,,,images/exp1a_trial_75_colour0_distractors0_l.png,l,1,030,001,2021-04-24_21h14.49.982,searchDisc4,2020.2.10,Win32,60,,,space,0.020415,1,1,0.63772,,0,227,227,75,1,1a,75,0,0,
,,,,,,,,,,,,,,,,,,,,,,,,,,images/exp2b_trial_50_colour3_distractors1_r.png,r,2,030,001,2021-04-24_21h14.49.982,searchDisc4,2020.2.10,Win32,60,,,space,0.050015,2,1,0.54974,,0,228,228,392,1,2b,50,3,1,
,,,,,,,,,,,,,,,,,,,,,,,,,,images/exp2b_trial_113_colour0_distractors0_l.png,l,1,030,001,2021-04-24_21h14.49.982,searchDisc4,2020.2.10,Win32,60,,,space,0.08839,1,1,0.53331,,0,229,229,455,1,2b,113,0,0,
,,,,,,,,,,,,,,,,,,,,,,,,,,images/exp2c_trial_15_colour3_distractors19_r.png,r,2,030,001,2021-04-24_21h14.49.982,searchDisc4,2020.2.10,Win32,60,,,space,0.066825,2,1,0.53076,,0,230,230,471,1,2c,15,3,19,
,,,,,,,,,,,,,,,,,,,,,,,,,,images/exp2b_trial_29_colour2_distractors43_l.png,l,1,030,001,2021-04-24_21h14.49.982,searchDisc4,2020.2.10,Win32,60,,,space,0.06968,1,1,0.601735,,0,231,231,371,1,2b,29,2,43,
,,,,,,,,,,,,,,,,,,,,,,,,,,images/exp1b_trial_87_colour2_distractors43_r.png,r,2,030,001,2021-04-24_21h14.49.982,searchDisc4,2020.2.10,Win32,60,,,space,0.05566,2,1,0.814085,,0,232,232,201,1,1b,87,2,43,
,,,,,,,,,,,,,,,,,,,,,,,,,,images/exp2b_trial_110_colour3_distractors31_l.png,l,1,030,001,2021-04-24_21h14.49.982,searchDisc4,2020.2.10,Win32,60,,,space,0.05012,1,1,0.62526,,0,233,233,452,1,2b,110,3,31,
,,,,,,,,,,,,,,,,,,,,,,,,,,images/exp1a_trial_56_colour1_distractors1_l.png,l,1,030,001,2021-04-24_21h14.49.982,searchDisc4,2020.2.10,Win32,60,,,space,0.054925,1,1,1.27676,,0,234,234,56,1,1a,56,1,1,
,,,,,,,,,,,,,,,,,,,,,,,,,,images/exp1a_trial_67_colour2_distractors43_l.png,l,1,030,001,2021-04-24_21h14.49.982,searchDisc4,2020.2.10,Win32,60,,,space,0.02636,1,1,0.97424,,0,235,235,67,1,1a,67,2,43,
,,,,,,,,,,,,,,,,,,,,,,,,,,images/exp1a_trial_99_colour1_distractors43_l.png,l,1,030,001,2021-04-24_21h14.49.982,searchDisc4,2020.2.10,Win32,60,,,space,0.040805,1,1,0.56529,,0,236,236,99,1,1a,99,1,43,
,,,,,,,,,,,,,,,,,,,,,,,,,,images/exp1a_trial_91_colour3_distractors19_r.png,r,2,030,001,2021-04-24_21h14.49.982,searchDisc4,2020.2.10,Win32,60,,,space,0.062895,2,1,0.640545,,0,237,237,91,1,1a,91,3,19,
,,,,,,,,,,,,,,,,,,,,,,,,,,images/exp1b_trial_12_colour3_distractors1_r.png,r,2,030,001,2021-04-24_21h14.49.982,searchDisc4,2020.2.10,Win32,60,,,space,0.068495,2,1,0.653365,,0,238,238,126,1,1b,12,3,1,
,,,,,,,,,,,,,,,,,,,,,,,,,,images/exp2a_trial_113_colour0_distractors0_l.png,l,1,030,001,2021-04-24_21h14.49.982,searchDisc4,2020.2.10,Win32,60,,,space,0.029885,1,1,0.614405,space,0,239,239,341,1,2a,113,0,0,0.05493
,,,,,,,,,,,,,,,,,,,,,,,,,,images/exp1a_trial_57_colour1_distractors4_l.png,l,1,030,001,2021-04-24_21h14.49.982,searchDisc4,2020.2.10,Win32,60,,,space,0.80601,1,1,0.678675,,0,240,240,57,1,1a,57,1,4,
,,,,,,,,,,,,,,,,,,,,,,,,,,images/exp2a_trial_77_colour1_distractors4_r.png,r,2,030,001,2021-04-24_21h14.49.982,searchDisc4,2020.2.10,Win32,60,,,space,0.048375,2,1,0.726105,,0,241,241,305,1,2a,77,1,4,
,,,,,,,,,,,,,,,,,,,,,,,,,,images/exp2a_trial_22_colour1_distractors31_l.png,l,1,030,001,2021-04-24_21h14.49.982,searchDisc4,2020.2.10,Win32,60,,,space,0.017905,1,1,0.611035,,0,242,242,250,1,2a,22,1,31,
,,,,,,,,,,,,,,,,,,,,,,,,,,images/exp1b_trial_69_colour3_distractors4_l.png,l,1,030,001,2021-04-24_21h14.49.982,searchDisc4,2020.2.10,Win32,60,,,space,0.047505,1,1,0.62456,,0,243,243,183,1,1b,69,3,4,
,,,,,,,,,,,,,,,,,,,,,,,,,,images/exp1b_trial_6_colour2_distractors1_r.png,r,2,030,001,2021-04-24_21h14.49.982,searchDisc4,2020.2.10,Win32,60,,,space,0.02228,2,1,0.6761,,0,244,244,120,1,1b,6,2,1,
,,,,,,,,,,,,,,,,,,,,,,,,,,images/exp1b_trial_15_colour3_distractors19_r.png,r,2,030,001,2021-04-24_21h14.49.982,searchDisc4,2020.2.10,Win32,60,,,space,0.01908,2,1,2.42791,,0,245,245,129,1,1b,15,3,19,
,,,,,,,,,,,,,,,,,,,,,,,,,,images/exp1a_trial_52_colour3_distractors9_r.png,r,2,030,001,2021-04-24_21h14.49.982,searchDisc4,2020.2.10,Win32,60,,,space,0.06006,2,1,0.59151,,0,246,246,52,1,1a,52,3,9,
,,,,,,,,,,,,,,,,,,,,,,,,,,images/exp2a_trial_11_colour2_distractors43_r.png,r,2,030,001,2021-04-24_21h14.49.982,searchDisc4,2020.2.10,Win32,60,,,space,0.051215,2,1,0.64193,,0,247,247,239,1,2a,11,2,43,
,,,,,,,,,,,,,,,,,,,,,,,,,,images/exp2c_trial_88_colour3_distractors1_r.png,r,2,030,001,2021-04-24_21h14.49.982,searchDisc4,2020.2.10,Win32,60,,,space,0.030965,2,1,0.56472,,0,248,248,544,1,2c,88,3,1,
,,,,,,,,,,,,,,,,,,,,,,,,,,images/exp2a_trial_25_colour2_distractors4_l.png,l,1,030,001,2021-04-24_21h14.49.982,searchDisc4,2020.2.10,Win32,60,,,space,0.05098,1,1,0.606175,,0,249,249,253,1,2a,25,2,4,
,,,,,,,,,,,,,,,,,,,,,,,,,,images/exp1a_trial_39_colour1_distractors4_r.png,r,2,030,001,2021-04-24_21h14.49.982,searchDisc4,2020.2.10,Win32,60,,,space,0.02047,2,1,0.63619,,0,250,250,39,1,1a,39,1,4,
,,,,,,,,,,,,,,,,,,,,,,,,,,images/exp2b_trial_60_colour1_distractors31_l.png,l,1,030,001,2021-04-24_21h14.49.982,searchDisc4,2020.2.10,Win32,60,,,space,0.018295,1,1,0.611785,,0,251,251,402,1,2b,60,1,31,
,,,,,,,,,,,,,,,,,,,,,,,,,,images/exp2a_trial_95_colour1_distractors4_l.png,l,1,030,001,2021-04-24_21h14.49.982,searchDisc4,2020.2.10,Win32,60,,,space,0.02231,1,1,0.70279,,0,252,252,323,1,2a,95,1,4,
,,,,,,,,,,,,,,,,,,,,,,,,,,images/exp1b_trial_103_colour2_distractors19_l.png,l,1,030,001,2021-04-24_21h14.49.982,searchDisc4,2020.2.10,Win32,60,,,space,0.01239,1,1,0.710095,,0,253,253,217,1,1b,103,2,19,
,,,,,,,,,,,,,,,,,,,,,,,,,,images/exp2c_trial_45_colour2_distractors4_r.png,r,2,030,001,2021-04-24_21h14.49.982,searchDisc4,2020.2.10,Win32,60,,,space,0.018375,2,1,0.7066,,0,254,254,501,1,2c,45,2,4,
,,,,,,,,,,,,,,,,,,,,,,,,,,images/exp1b_trial_77_colour1_distractors4_r.png,r,2,030,001,2021-04-24_21h14.49.982,searchDisc4,2020.2.10,Win32,60,,,space,0.0413,2,1,0.65782,,0,255,255,191,1,1b,77,1,4,
,,,,,,,,,,,,,,,,,,,,,,,,,,images/exp1b_trial_83_colour2_distractors4_r.png,r,2,030,001,2021-04-24_21h14.49.982,searchDisc4,2020.2.10,Win32,60,,,space,0.029295,2,1,0.57833,,0,256,256,197,1,1b,83,2,4,
,,,,,,,,,,,,,,,,,,,,,,,,,,images/exp1b_trial_105_colour2_distractors43_l.png,l,1,030,001,2021-04-24_21h14.49.982,searchDisc4,2020.2.10,Win32,60,,,space,0.032235,1,1,1.46105,,0,257,257,219,1,1b,105,2,43,
,,,,,,,,,,,,,,,,,,,,,,,,,,images/exp2b_trial_66_colour2_distractors31_l.png,l,1,030,001,2021-04-24_21h14.49.982,searchDisc4,2020.2.10,Win32,60,,,space,0.027655,1,1,0.675925,,0,258,258,408,1,2b,66,2,31,
,,,,,,,,,,,,,,,,,,,,,,,,,,images/exp2b_trial_17_colour3_distractors43_r.png,r,2,030,001,2021-04-24_21h14.49.982,searchDisc4,2020.2.10,Win32,60,,,space,0.02109,2,1,0.58298,,0,259,259,359,1,2b,17,3,43,
,,,,,,,,,,,,,,,,,,,,,,,,,,images/exp1a_trial_38_colour1_distractors1_r.png,r,2,030,001,2021-04-24_21h14.49.982,searchDisc4,2020.2.10,Win32,60,,,space,0.033165,2,1,1.04271,,0,260,260,38,1,1a,38,1,1,
,,,,,,,,,,,,,,,,,,,,,,,,,,images/exp2a_trial_79_colour1_distractors19_r.png,r,2,030,001,2021-04-24_21h14.49.982,searchDisc4,2020.2.10,Win32,60,,,space,0.44631,2,1,0.77511,,0,261,261,307,1,2a,79,1,19,
,,,,,,,,,,,,,,,,,,,,,,,,,,images/exp1b_trial_10_colour2_distractors31_r.png,r,2,030,001,2021-04-24_21h14.49.982,searchDisc4,2020.2.10,Win32,60,,,space,0.00645,2,1,0.88631,,0,262,262,124,1,1b,10,2,31,
,,,,,,,,,,,,,,,,,,,,,,,,,,images/exp2b_trial_41_colour1_distractors19_r.png,r,2,030,001,2021-04-24_21h14.49.982,searchDisc4,2020.2.10,Win32,60,,,space,0.79072,2,1,0.57098,,0,263,263,383,1,2b,41,1,19,
,,,,,,,,,,,,,,,,,,,,,,,,,,images/exp1a_trial_106_colour3_distractors1_l.png,l,1,030,001,2021-04-24_21h14.49.982,searchDisc4,2020.2.10,Win32,60,,,space,0.031465,1,1,0.642335,,0,264,264,106,1,1a,106,3,1,
,,,,,,,,,,,,,,,,,,,,,,,,,,images/exp2b_trial_25_colour2_distractors4_l.png,l,1,030,001,2021-04-24_21h14.49.982,searchDisc4,2020.2.10,Win32,60,,,space,0.030555,1,1,0.592405,,0,265,265,367,1,2b,25,2,4,
,,,,,,,,,,,,,,,,,,,,,,,,,,images/exp2a_trial_71_colour3_distractors19_l.png,l,1,030,001,2021-04-24_21h14.49.982,searchDisc4,2020.2.10,Win32,60,,,space,0.028025,1,1,0.605405,,0,266,266,299,1,2a,71,3,19,
,,,,,,,,,,,,,,,,,,,,,,,,,,images/exp2b_trial_23_colour1_distractors43_l.png,l,1,030,001,2021-04-24_21h14.49.982,searchDisc4,2020.2.10,Win32,60,,,space,0.019415,1,1,0.571825,,0,267,267,365,1,2b,23,1,43,
,,,,,,,,,,,,,,,,,,,,,,,,,,images/exp1a_trial_40_colour1_distractors9_r.png,r,2,030,001,2021-04-24_21h14.49.982,searchDisc4,2020.2.10,Win32,60,,,space,0.026115,2,1,0.5782,,0,268,268,40,1,1a,40,1,9,
,,,,,,,,,,,,,,,,,,,,,,,,,,images/exp2a_trial_90_colour3_distractors9_r.png,r,2,030,001,2021-04-24_21h14.49.982,searchDisc4,2020.2.10,Win32,60,,,space,0.01786,2,1,0.70408,,0,269,269,318,1,2a,90,3,9,
,,,,,,,,,,,,,,,,,,,,,,,,,,images/exp1b_trial_73_colour3_distractors43_l.png,l,1,030,001,2021-04-24_21h14.49.982,searchDisc4,2020.2.10,Win32,60,,,space,0.02118,1,1,1.165125,,0,270,270,187,1,1b,73,3,43,
,,,,,,,,,,,,,,,,,,,,,,,,,,images/exp2b_trial_21_colour1_distractors19_l.png,l,1,030,001,2021-04-24_21h14.49.982,searchDisc4,2020.2.10,Win32,60,,,space,0.037035,1,1,0.781985,,0,271,271,363,1,2b,21,1,19,
,,,,,,,,,,,,,,,,,,,,,,,,,,images/exp2c_trial_97_colour1_distractors19_l.png,l,1,030,001,2021-04-24_21h14.49.982,searchDisc4,2020.2.10,Win32,60,,,space,0.013495,1,1,0.59258,,0,272,272,553,1,2c,97,1,19,
,,,,,,,,,,,,,,,,,,,,,,,,,,images/exp2a_trial_89_colour3_distractors4_r.png,r,2,030,001,2021-04-24_21h14.49.982,searchDisc4,2020.2.10,Win32,60,,,space,0.015935,1,0,0.6857,,0,273,273,317,1,2a,89,3,4,
,,,,,,,,,,,,,,,,,,,,,,,,,,images/exp2b_trial_4_colour1_distractors31_r.png,r,2,030,001,2021-04-24_21h14.49.982,searchDisc4,2020.2.10,Win32,60,,,space,0.00974,2,1,0.624245,,0,274,274,346,1,2b,4,1,31,
,,,,,,,,,,,,,,,,,,,,,,,,,,images/exp1b_trial_35_colour3_distractors43_l.png,l,1,030,001,2021-04-24_21h14.49.982,searchDisc4,2020.2.10,Win32,60,,,space,0.033195,1,1,0.96753,,0,275,275,149,1,1b,35,3,43,
,,,,,,,,,,,,,,,,,,,,,,,,,,images/exp2a_trial_94_colour1_distractors1_l.png,l,1,030,001,2021-04-24_21h14.49.982,searchDisc4,2020.2.10,Win32,60,,,space,0.02533,1,1,0.82558,,0,276,276,322,1,2a,94,1,1,
,,,,,,,,,,,,,,,,,,,,,,,,,,images/exp2c_trial_29_colour2_distractors43_l.png,l,1,030,001,2021-04-24_21h14.49.982,searchDisc4,2020.2.10,Win32,60,,,space,0.02794,1,1,0.63072,,0,277,277,485,1,2c,29,2,43,
,,,,,,,,,,,,,,,,,,,,,,,,,,images/exp2b_trial_13_colour3_distractors4_r.png,r,2,030,001,2021-04-24_21h14.49.982,searchDisc4,2020.2.10,Win32,60,,,space,0.01976,2,1,0.749105,,0,278,278,355,1,2b,13,3,4,
,,,,,,,,,,,,,,,,,,,,,,,,,,images/exp2a_trial_64_colour2_distractors9_l.png,l,1,030,001,2021-04-24_21h14.49.982,searchDisc4,2020.2.10,Win32,60,,,space,0.007095,1,1,0.631905,,0,279,279,292,1,2a,64,2,9,
,,,,,,,,,,,,,,,,,,,,,,,,,,images/exp1a_trial_35_colour3_distractors43_l.png,l,1,030,001,2021-04-24_21h14.49.982,searchDisc4,2020.2.10,Win32,60,,,space,0.0068,1,1,0.64099,,0,280,280,35,1,1a,35,3,43,
,,,,,,,,,,,,,,,,,,,,,,,,,,images/exp2a_trial_36_colour0_distractors0_r.png,r,2,030,001,2021-04-24_21h14.49.982,searchDisc4,2020.2.10,Win32,60,,,space,0.016045,2,1,0.5919,,0,281,281,264,1,2a,36,0,0,
,,,,,,,,,,,,,,,,,,,,,,,,,,images/exp2c_trial_80_colour1_distractors31_r.png,r,2,030,001,2021-04-24_21h14.49.982,searchDisc4,2020.2.10,Win32,60,,,space,0.696345,2,1,0.60747,,0,282,282,536,1,2c,80,1,31,
,,,,,,,,,,,,,,,,,,,,,,,,,,images/exp2b_trial_97_colour1_distractors19_l.png,l,1,030,001,2021-04-24_21h14.49.982,searchDisc4,2020.2.10,Win32,60,,,space,0.005895,1,1,0.75195,,0,283,283,439,1,2b,97,1,19,
,,,,,,,,,,,,,,,,,,,,,,,,,,images/exp2c_trial_102_colour2_distractors9_l.png,l,1,030,001,2021-04-24_21h14.49.982,searchDisc4,2020.2.10,Win32,60,,,space,0.01991,1,1,0.94772,,0,284,284,558,1,2c,102,2,9,
,,,,,,,,,,,,,,,,,,,,,,,,,,images/exp1b_trial_107_colour3_distractors4_l.png,l,1,030,001,2021-04-24_21h14.49.982,searchDisc4,2020.2.10,Win32,60,,,space,0.395725,1,1,1.440185,,0,285,285,221,1,1b,107,3,4,
,,,,,,,,,,,,,,,,,,,,,,,,,,images/exp1a_trial_4_colour1_distractors31_r.png,r,2,030,001,2021-04-24_21h14.49.982,searchDisc4,2020.2.10,Win32,60,,,space,0.2697,2,1,0.56926,,0,286,286,4,1,1a,4,1,31,
,,,,,,,,,,,,,,,,,,,,,,,,,,images/exp2b_trial_108_colour3_distractors9_l.png,l,1,030,001,2021-04-24_21h14.49.982,searchDisc4,2020.2.10,Win32,60,,,space,0.14711,1,1,0.775165,,0,287,287,450,1,2b,108,3,9,
,,,,,,,,,,,,,,,,,,,,,,,,,,images/exp2c_trial_46_colour2_distractors9_r.png,r,2,030,001,2021-04-24_21h14.49.982,searchDisc4,2020.2.10,Win32,60,,,space,0.30295,2,1,0.680615,,0,288,288,502,1,2c,46,2,9,
,,,,,,,,,,,,,,,,,,,,,,,,,,images/exp1b_trial_11_colour2_distractors43_r.png,r,2,030,001,2021-04-24_21h14.49.982,searchDisc4,2020.2.10,Win32,60,,,space,0.29484,2,1,2.240795,,0,289,289,125,1,1b,11,2,43,
,,,,,,,,,,,,,,,,,,,,,,,,,,images/exp2c_trial_71_colour3_distractors19_l.png,l,1,030,001,2021-04-24_21h14.49.982,searchDisc4,2020.2.10,Win32,60,,,space,0.09971,1,1,0.873245,,0,290,290,527,1,2c,71,3,19,
,,,,,,,,,,,,,,,,,,,,,,,,,,images/exp2a_trial_46_colour2_distractors9_r.png,r,2,030,001,2021-04-24_21h14.49.982,searchDisc4,2020.2.10,Win32,60,,,space,0.534965,2,1,0.589955,,0,291,291,274,1,2a,46,2,9,
,,,,,,,,,,,,,,,,,,,,,,,,,,images/exp1b_trial_21_colour1_distractors19_l.png,l,1,030,001,2021-04-24_21h14.49.982,searchDisc4,2020.2.10,Win32,60,,,space,0.52538,1,1,1.91421,,0,292,292,135,1,1b,21,1,19,
,,,,,,,,,,,,,,,,,,,,,,,,,,images/exp2a_trial_106_colour3_distractors1_l.png,l,1,030,001,2021-04-24_21h14.49.982,searchDisc4,2020.2.10,Win32,60,,,space,0.090535,1,1,0.9572,,0,293,293,334,1,2a,106,3,1,
,,,,,,,,,,,,,,,,,,,,,,,,,,images/exp2a_trial_8_colour2_distractors9_r.png,r,2,030,001,2021-04-24_21h14.49.982,searchDisc4,2020.2.10,Win32,60,,,space,0.508085,2,1,0.523145,,0,294,294,236,1,2a,8,2,9,
,,,,,,,,,,,,,,,,,,,,,,,,,,images/exp2c_trial_60_colour1_distractors31_l.png,l,1,030,001,2021-04-24_21h14.49.982,searchDisc4,2020.2.10,Win32,60,,,space,0.342435,1,1,0.664435,,0,295,295,516,1,2c,60,1,31,
,,,,,,,,,,,,,,,,,,,,,,,,,,images/exp2c_trial_20_colour1_distractors9_l.png,l,1,030,001,2021-04-24_21h14.49.982,searchDisc4,2020.2.10,Win32,60,,,space,0.247115,1,1,0.655455,,0,296,296,476,1,2c,20,1,9,
,,,,,,,,,,,,,,,,,,,,,,,,,,images/exp2b_trial_69_colour3_distractors4_l.png,l,1,030,001,2021-04-24_21h14.49.982,searchDisc4,2020.2.10,Win32,60,,,space,0.321375,1,1,0.66777,,0,297,297,411,1,2b,69,3,4,
,,,,,,,,,,,,,,,,,,,,,,,,,,images/exp1b_trial_95_colour1_distractors4_l.png,l,1,030,001,2021-04-24_21h14.49.982,searchDisc4,2020.2.10,Win32,60,,,space,0.265645,1,1,0.6801,,0,298,298,209,1,1b,95,1,4,
,,,,,,,,,,,,,,,,,,,,,,,,,,images/exp2a_trial_32_colour3_distractors9_l.png,l,1,030,001,2021-04-24_21h14.49.982,searchDisc4,2020.2.10,Win32,60,,,space,0.240285,1,1,0.568545,space,0,299,299,260,1,2a,32,3,9,0.206585
,,,,,,,,,,,,,,,,,,,,,,,,,,images/exp2b_trial_92_colour3_distractors31_r.png,r,2,030,001,2021-04-24_21h14.49.982,searchDisc4,2020.2.10,Win32,60,,,space,3.305445,2,1,0.99469,,0,300,300,434,1,2b,92,3,31,
,,,,,,,,,,,,,,,,,,,,,,,,,,images/exp1b_trial_96_colour1_distractors9_l.png,l,1,030,001,2021-04-24_21h14.49.982,searchDisc4,2020.2.10,Win32,60,,,space,0.126435,1,1,0.72098,,0,301,301,210,1,1b,96,1,9,
,,,,,,,,,,,,,,,,,,,,,,,,,,images/exp1a_trial_105_colour2_distractors43_l.png,l,1,030,001,2021-04-24_21h14.49.982,searchDisc4,2020.2.10,Win32,60,,,space,0.110125,1,1,0.661675,,0,302,302,105,1,1a,105,2,43,
,,,,,,,,,,,,,,,,,,,,,,,,,,images/exp1b_trial_79_colour1_distractors19_r.png,r,2,030,001,2021-04-24_21h14.49.982,searchDisc4,2020.2.10,Win32,60,,,space,0.127605,2,1,0.858405,,0,303,303,193,1,1b,79,1,19,
,,,,,,,,,,,,,,,,,,,,,,,,,,images/exp2b_trial_89_colour3_distractors4_r.png,r,2,030,001,2021-04-24_21h14.49.982,searchDisc4,2020.2.10,Win32,60,,,space,0.26328,2,1,0.60635,,0,304,304,431,1,2b,89,3,4,
,,,,,,,,,,,,,,,,,,,,,,,,,,images/exp2c_trial_73_colour3_distractors43_l.png,l,1,030,001,2021-04-24_21h14.49.982,searchDisc4,2020.2.10,Win32,60,,,space,0.15515,1,1,0.531495,,0,305,305,529,1,2c,73,3,43,
,,,,,,,,,,,,,,,,,,,,,,,,,,images/exp2b_trial_83_colour2_distractors4_r.png,r,2,030,001,2021-04-24_21h14.49.982,searchDisc4,2020.2.10,Win32,60,,,space,0.11076,2,1,0.767645,,0,306,306,425,1,2b,83,2,4,
,,,,,,,,,,,,,,,,,,,,,,,,,,images/exp2b_trial_31_colour3_distractors4_l.png,l,1,030,001,2021-04-24_21h14.49.982,searchDisc4,2020.2.10,Win32,60,,,space,0.090095,1,1,0.642075,,0,307,307,373,1,2b,31,3,4,
,,,,,,,,,,,,,,,,,,,,,,,,,,images/exp1a_trial_9_colour2_distractors19_r.png,r,2,030,001,2021-04-24_21h14.49.982,searchDisc4,2020.2.10,Win32,60,,,space,0.101585,2,1,0.65095,,0,308,308,9,1,1a,9,2,19,
,,,,,,,,,,,,,,,,,,,,,,,,,,images/exp2a_trial_78_colour1_distractors9_r.png,r,2,030,001,2021-04-24_21h14.49.982,searchDisc4,2020.2.10,Win32,60,,,space,0.078975,2,1,0.68604,,0,309,309,306,1,2a,78,1,9,
,,,,,,,,,,,,,,,,,,,,,,,,,,images/exp1b_trial_7_colour2_distractors4_r.png,r,2,030,001,2021-04-24_21h14.49.982,searchDisc4,2020.2.10,Win32,60,,,space,0.084085,2,1,0.684805,,0,310,310,121,1,1b,7,2,4,
,,,,,,,,,,,,,,,,,,,,,,,,,,images/exp2c_trial_91_colour3_distractors19_r.png,r,2,030,001,2021-04-24_21h14.49.982,searchDisc4,2020.2.10,Win32,60,,,space,0.072845,2,1,0.56347,,0,311,311,547,1,2c,91,3,19,
,,,,,,,,,,,,,,,,,,,,,,,,,,images/exp2a_trial_92_colour3_distractors31_r.png,r,2,030,001,2021-04-24_21h14.49.982,searchDisc4,2020.2.10,Win32,60,,,space,0.08337,2,1,0.72707,,0,312,312,320,1,2a,92,3,31,
,,,,,,,,,,,,,,,,,,,,,,,,,,images/exp2b_trial_28_colour2_distractors31_l.png,l,1,030,001,2021-04-24_21h14.49.982,searchDisc4,2020.2.10,Win32,60,,,space,0.07596,1,1,0.6066,,0,313,313,370,1,2b,28,2,31,
,,,,,,,,,,,,,,,,,,,,,,,,,,images/exp1a_trial_45_colour2_distractors4_r.png,r,2,030,001,2021-04-24_21h14.49.982,searchDisc4,2020.2.10,Win32,60,,,space,0.09205,2,1,0.695235,,0,314,314,45,1,1a,45,2,4,
,,,,,,,,,,,,,,,,,,,,,,,,,,images/exp1a_trial_61_colour1_distractors43_l.png,l,1,030,001,2021-04-24_21h14.49.982,searchDisc4,2020.2.10,Win32,60,,,space,0.08652,1,1,0.56051,,0,315,315,61,1,1a,61,1,43,
,,,,,,,,,,,,,,,,,,,,,,,,,,images/exp1b_trial_47_colour2_distractors19_r.png,r,2,030,001,2021-04-24_21h14.49.982,searchDisc4,2020.2.10,Win32,60,,,space,0.08206,2,1,1.321035,,0,316,316,161,1,1b,47,2,19,
,,,,,,,,,,,,,,,,,,,,,,,,,,images/exp1a_trial_112_colour0_distractors0_r.png,r,2,030,001,2021-04-24_21h14.49.982,searchDisc4,2020.2.10,Win32,60,,,space,0.09864,2,1,0.640335,,0,317,317,112,1,1a,112,0,0,
,,,,,,,,,,,,,,,,,,,,,,,,,,images/exp1a_trial_83_colour2_distractors4_r.png,r,2,030,001,2021-04-24_21h14.49.982,searchDisc4,2020.2.10,Win32,60,,,space,0.103535,2,1,0.858875,,0,318,318,83,1,1a,83,2,4,
,,,,,,,,,,,,,,,,,,,,,,,,,,images/exp2a_trial_104_colour2_distractors31_l.png,l,1,030,001,2021-04-24_21h14.49.982,searchDisc4,2020.2.10,Win32,60,,,space,0.07551,1,1,0.722545,,0,319,319,332,1,2a,104,2,31,
,,,,,,,,,,,,,,,,,,,,,,,,,,images/exp1a_trial_93_colour3_distractors43_r.png,r,2,030,001,2021-04-24_21h14.49.982,searchDisc4,2020.2.10,Win32,60,,,space,0.09934,2,1,0.761095,,0,320,320,93,1,1a,93,3,43,
,,,,,,,,,,,,,,,,,,,,,,,,,,images/exp2c_trial_64_colour2_distractors9_l.png,l,1,030,001,2021-04-24_21h14.49.982,searchDisc4,2020.2.10,Win32,60,,,space,0.07427,1,1,0.811755,,0,321,321,520,1,2c,64,2,9,
,,,,,,,,,,,,,,,,,,,,,,,,,,images/exp1a_trial_80_colour1_distractors31_r.png,r,2,030,001,2021-04-24_21h14.49.982,searchDisc4,2020.2.10,Win32,60,,,space,0.061665,2,1,0.71726,,0,322,322,80,1,1a,80,1,31,
,,,,,,,,,,,,,,,,,,,,,,,,,,images/exp2c_trial_40_colour1_distractors9_r.png,r,2,030,001,2021-04-24_21h14.49.982,searchDisc4,2020.2.10,Win32,60,,,space,0.06312,2,1,0.623075,,0,323,323,496,1,2c,40,1,9,
,,,,,,,,,,,,,,,,,,,,,,,,,,images/exp2b_trial_86_colour2_distractors31_r.png,r,2,030,001,2021-04-24_21h14.49.982,searchDisc4,2020.2.10,Win32,60,,,space,0.076405,2,1,0.49455,,0,324,324,428,1,2b,86,2,31,
,,,,,,,,,,,,,,,,,,,,,,,,,,images/exp2b_trial_12_colour3_distractors1_r.png,r,2,030,001,2021-04-24_21h14.49.982,searchDisc4,2020.2.10,Win32,60,,,space,0.069725,2,1,0.67856,,0,325,325,354,1,2b,12,3,1,
,,,,,,,,,,,,,,,,,,,,,,,,,,images/exp2b_trial_106_colour3_distractors1_l.png,l,1,030,001,2021-04-24_21h14.49.982,searchDisc4,2020.2.10,Win32,60,,,space,0.05885,1,1,0.66797,,0,326,326,448,1,2b,106,3,1,
,,,,,,,,,,,,,,,,,,,,,,,,,,images/exp2a_trial_54_colour3_distractors31_r.png,r,2,030,001,2021-04-24_21h14.49.982,searchDisc4,2020.2.10,Win32,60,,,space,0.063515,2,1,0.58214,,0,327,327,282,1,2a,54,3,31,
,,,,,,,,,,,,,,,,,,,,,,,,,,images/exp1b_trial_98_colour1_distractors31_l.png,l,1,030,001,2021-04-24_21h14.49.982,searchDisc4,2020.2.10,Win32,60,,,space,0.07772,1,1,1.68536,,0,328,328,212,1,1b,98,1,31,
,,,,,,,,,,,,,,,,,,,,,,,,,,images/exp2a_trial_20_colour1_distractors9_l.png,l,1,030,001,2021-04-24_21h14.49.982,searchDisc4,2020.2.10,Win32,60,,,space,0.061795,1,1,0.54857,,0,329,329,248,1,2a,20,1,9,
,,,,,,,,,,,,,,,,,,,,,,,,,,images/exp2b_trial_14_colour3_distractors9_r.png,r,2,030,001,2021-04-24_21h14.49.982,searchDisc4,2020.2.10,Win32,60,,,space,0.07227,2,1,0.633045,,0,330,330,356,1,2b,14,3,9,
,,,,,,,,,,,,,,,,,,,,,,,,,,images/exp1b_trial_54_colour3_distractors31_r.png,r,2,030,001,2021-04-24_21h14.49.982,searchDisc4,2020.2.10,Win32,60,,,space,0.072135,2,1,1.079765,,0,331,331,168,1,1b,54,3,31,
,,,,,,,,,,,,,,,,,,,,,,,,,,images/exp2a_trial_31_colour3_distractors4_l.png,l,1,030,001,2021-04-24_21h14.49.982,searchDisc4,2020.2.10,Win32,60,,,space,0.077305,1,1,0.490455,,0,332,332,259,1,2a,31,3,4,
,,,,,,,,,,,,,,,,,,,,,,,,,,images/exp2c_trial_94_colour1_distractors1_l.png,l,1,030,001,2021-04-24_21h14.49.982,searchDisc4,2020.2.10,Win32,60,,,space,0.075195,1,1,0.629625,,0,333,333,550,1,2c,94,1,1,
,,,,,,,,,,,,,,,,,,,,,,,,,,images/exp2c_trial_41_colour1_distractors19_r.png,r,2,030,001,2021-04-24_21h14.49.982,searchDisc4,2020.2.10,Win32,60,,,space,0.053145,2,1,0.578305,,0,334,334,497,1,2c,41,1,19,
,,,,,,,,,,,,,,,,,,,,,,,,,,images/exp2b_trial_15_colour3_distractors19_r.png,r,2,030,001,2021-04-24_21h14.49.982,searchDisc4,2020.2.10,Win32,60,,,space,0.063115,2,1,1.216565,,0,335,335,357,1,2b,15,3,19,
,,,,,,,,,,,,,,,,,,,,,,,,,,images/exp2a_trial_21_colour1_distractors19_l.png,l,1,030,001,2021-04-24_21h14.49.982,searchDisc4,2020.2.10,Win32,60,,,space,0.04611,1,1,1.430735,,0,336,336,249,1,2a,21,1,19,
,,,,,,,,,,,,,,,,,,,,,,,,,,images/exp1b_trial_100_colour2_distractors1_l.png,l,1,030,001,2021-04-24_21h14.49.982,searchDisc4,2020.2.10,Win32,60,,,space,0.049145,1,1,0.51638,,0,337,337,214,1,1b,100,2,1,
,,,,,,,,,,,,,,,,,,,,,,,,,,images/exp2c_trial_14_colour3_distractors9_r.png,r,2,030,001,2021-04-24_21h14.49.982,searchDisc4,2020.2.10,Win32,60,,,space,0.041945,2,1,0.720535,,0,338,338,470,1,2c,14,3,9,
,,,,,,,,,,,,,,,,,,,,,,,,,,images/exp2a_trial_81_colour1_distractors43_r.png,r,2,030,001,2021-04-24_21h14.49.982,searchDisc4,2020.2.10,Win32,60,,,space,0.06495,2,1,0.592355,,0,339,339,309,1,2a,81,1,43,
,,,,,,,,,,,,,,,,,,,,,,,,,,images/exp1b_trial_14_colour3_distractors9_r.png,r,2,030,001,2021-04-24_21h14.49.982,searchDisc4,2020.2.10,Win32,60,,,space,0.04425,2,1,0.751195,,0,340,340,128,1,1b,14,3,9,
,,,,,,,,,,,,,,,,,,,,,,,,,,images/exp1a_trial_46_colour2_distractors9_r.png,r,2,030,001,2021-04-24_21h14.49.982,searchDisc4,2020.2.10,Win32,60,,,space,0.07922,2,1,0.73583,,0,341,341,46,1,1a,46,2,9,
,,,,,,,,,,,,,,,,,,,,,,,,,,images/exp2c_trial_31_colour3_distractors4_l.png,l,1,030,001,2021-04-24_21h14.49.982,searchDisc4,2020.2.10,Win32,60,,,space,0.075955,1,1,0.671725,,0,342,342,487,1,2c,31,3,4,
,,,,,,,,,,,,,,,,,,,,,,,,,,images/exp2c_trial_43_colour1_distractors43_r.png,r,2,030,001,2021-04-24_21h14.49.982,searchDisc4,2020.2.10,Win32,60,,,space,0.067195,2,1,0.60825,,0,343,343,499,1,2c,43,1,43,
,,,,,,,,,,,,,,,,,,,,,,,,,,images/exp1a_trial_2_colour1_distractors9_r.png,r,2,030,001,2021-04-24_21h14.49.982,searchDisc4,2020.2.10,Win32,60,,,space,0.082915,2,1,0.536775,,0,344,344,2,1,1a,2,1,9,
,,,,,,,,,,,,,,,,,,,,,,,,,,images/exp2b_trial_52_colour3_distractors9_r.png,r,2,030,001,2021-04-24_21h14.49.982,searchDisc4,2020.2.10,Win32,60,,,space,0.061,2,1,0.693625,,0,345,345,394,1,2b,52,3,9,
,,,,,,,,,,,,,,,,,,,,,,,,,,images/exp1b_trial_50_colour3_distractors1_r.png,r,2,030,001,2021-04-24_21h14.49.982,searchDisc4,2020.2.10,Win32,60,,,space,0.09184,2,1,0.722235,,0,346,346,164,1,1b,50,3,1,
,,,,,,,,,,,,,,,,,,,,,,,,,,images/exp2c_trial_54_colour3_distractors31_r.png,r,2,030,001,2021-04-24_21h14.49.982,searchDisc4,2020.2.10,Win32,60,,,space,0.057295,2,1,0.502365,,0,347,347,510,1,2c,54,3,31,
,,,,,,,,,,,,,,,,,,,,,,,,,,images/exp1a_trial_78_colour1_distractors9_r.png,r,2,030,001,2021-04-24_21h14.49.982,searchDisc4,2020.2.10,Win32,60,,,space,0.049855,2,1,0.48415,,0,348,348,78,1,1a,78,1,9,
,,,,,,,,,,,,,,,,,,,,,,,,,,images/exp2b_trial_85_colour2_distractors19_r.png,r,2,030,001,2021-04-24_21h14.49.982,searchDisc4,2020.2.10,Win32,60,,,space,0.124665,2,1,0.47434,,0,349,349,427,1,2b,85,2,19,
,,,,,,,,,,,,,,,,,,,,,,,,,,images/exp1b_trial_112_colour0_distractors0_r.png,r,2,030,001,2021-04-24_21h14.49.982,searchDisc4,2020.2.10,Win32,60,,,space,0.082385,2,1,0.451005,,0,350,350,226,1,1b,112,0,0,
,,,,,,,,,,,,,,,,,,,,,,,,,,images/exp1a_trial_27_colour2_distractors19_l.png,l,1,030,001,2021-04-24_21h14.49.982,searchDisc4,2020.2.10,Win32,60,,,space,0.06689,1,1,0.627415,,0,351,351,27,1,1a,27,2,19,
,,,,,,,,,,,,,,,,,,,,,,,,,,images/exp1b_trial_42_colour1_distractors31_r.png,r,2,030,001,2021-04-24_21h14.49.982,searchDisc4,2020.2.10,Win32,60,,,space,0.064605,2,1,0.928505,,0,352,352,156,1,1b,42,1,31,
,,,,,,,,,,,,,,,,,,,,,,,,,,images/exp2b_trial_45_colour2_distractors4_r.png,r,2,030,001,2021-04-24_21h14.49.982,searchDisc4,2020.2.10,Win32,60,,,space,0.06161,2,1,0.569105,,0,353,353,387,1,2b,45,2,4,
,,,,,,,,,,,,,,,,,,,,,,,,,,images/exp1a_trial_74_colour0_distractors0_r.png,r,2,030,001,2021-04-24_21h14.49.982,searchDisc4,2020.2.10,Win32,60,,,space,0.08042,2,1,0.52108,,0,354,354,74,1,1a,74,0,0,
,,,,,,,,,,,,,,,,,,,,,,,,,,images/exp2c_trial_77_colour1_distractors4_r.png,r,2,030,001,2021-04-24_21h14.49.982,searchDisc4,2020.2.10,Win32,60,,,space,0.05415,2,1,0.67469,,0,355,355,533,1,2c,77,1,4,
,,,,,,,,,,,,,,,,,,,,,,,,,,images/exp2a_trial_18_colour1_distractors1_l.png,l,1,030,001,2021-04-24_21h14.49.982,searchDisc4,2020.2.10,Win32,60,,,space,0.221555,1,1,0.60638,,0,356,356,246,1,2a,18,1,1,
,,,,,,,,,,,,,,,,,,,,,,,,,,images/exp1b_trial_63_colour2_distractors4_l.png,l,1,030,001,2021-04-24_21h14.49.982,searchDisc4,2020.2.10,Win32,60,,,space,0.34012,1,1,0.83024,,0,357,357,177,1,1b,63,2,4,
,,,,,,,,,,,,,,,,,,,,,,,,,,images/exp2a_trial_48_colour2_distractors31_r.png,r,2,030,001,2021-04-24_21h14.49.982,searchDisc4,2020.2.10,Win32,60,,,space,0.45084,2,1,0.581965,,0,358,358,276,1,2a,48,2,31,
,,,,,,,,,,,,,,,,,,,,,,,,,,images/exp2b_trial_58_colour1_distractors9_l.png,l,1,030,001,2021-04-24_21h14.49.982,searchDisc4,2020.2.10,Win32,60,,,space,0.38891,1,1,0.48815,space,0,359,359,400,1,2b,58,1,9,19.585545
,,,,,,,,,,,,,,,,,,,,,,,,,,images/exp2a_trial_9_colour2_distractors19_r.png,r,2,030,001,2021-04-24_21h14.49.982,searchDisc4,2020.2.10,Win32,60,,,space,0.560385,2,1,0.484705,,0,360,360,237,1,2a,9,2,19,
,,,,,,,,,,,,,,,,,,,,,,,,,,images/exp2b_trial_73_colour3_distractors43_l.png,l,1,030,001,2021-04-24_21h14.49.982,searchDisc4,2020.2.10,Win32,60,,,space,0.08294,1,1,0.627075,,0,361,361,415,1,2b,73,3,43,
,,,,,,,,,,,,,,,,,,,,,,,,,,images/exp2a_trial_61_colour1_distractors43_l.png,l,1,030,001,2021-04-24_21h14.49.982,searchDisc4,2020.2.10,Win32,60,,,space,0.101545,1,1,0.639745,,0,362,362,289,1,2a,61,1,43,
,,,,,,,,,,,,,,,,,,,,,,,,,,images/exp1b_trial_101_colour2_distractors4_l.png,l,1,030,001,2021-04-24_21h14.49.982,searchDisc4,2020.2.10,Win32,60,,,space,0.08896,1,1,0.639445,,0,363,363,215,1,1b,101,2,4,
,,,,,,,,,,,,,,,,,,,,,,,,,,images/exp1b_trial_5_colour1_distractors43_r.png,r,2,030,001,2021-04-24_21h14.49.982,searchDisc4,2020.2.10,Win32,60,,,space,0.051095,2,1,0.70076,,0,364,364,119,1,1b,5,1,43,
,,,,,,,,,,,,,,,,,,,,,,,,,,images/exp2a_trial_24_colour2_distractors1_l.png,l,1,030,001,2021-04-24_21h14.49.982,searchDisc4,2020.2.10,Win32,60,,,space,0.068765,1,1,0.623695,,0,365,365,252,1,2a,24,2,1,
,,,,,,,,,,,,,,,,,,,,,,,,,,images/exp2b_trial_49_colour2_distractors43_r.png,r,2,030,001,2021-04-24_21h14.49.982,searchDisc4,2020.2.10,Win32,60,,,space,0.07111,2,1,0.563125,,0,366,366,391,1,2b,49,2,43,
,,,,,,,,,,,,,,,,,,,,,,,,,,images/exp1b_trial_37_colour0_distractors0_l.png,l,1,030,001,2021-04-24_21h14.49.982,searchDisc4,2020.2.10,Win32,60,,,space,0.04838,1,1,0.577205,,0,367,367,151,1,1b,37,0,0,
,,,,,,,,,,,,,,,,,,,,,,,,,,images/exp2b_trial_30_colour3_distractors1_l.png,l,1,030,001,2021-04-24_21h14.49.982,searchDisc4,2020.2.10,Win32,60,,,space,0.06269,2,0,0.69853,,0,368,368,372,1,2b,30,3,1,
,,,,,,,,,,,,,,,,,,,,,,,,,,images/exp2c_trial_5_colour1_distractors43_r.png,r,2,030,001,2021-04-24_21h14.49.982,searchDisc4,2020.2.10,Win32,60,,,space,0.05739,2,1,0.761515,,0,369,369,461,1,2c,5,1,43,
,,,,,,,,,,,,,,,,,,,,,,,,,,images/exp2b_trial_7_colour2_distractors4_r.png,r,2,030,001,2021-04-24_21h14.49.982,searchDisc4,2020.2.10,Win32,60,,,space,0.06896,2,1,0.6488,,0,370,370,349,1,2b,7,2,4,
,,,,,,,,,,,,,,,,,,,,,,,,,,images/exp2b_trial_1_colour1_distractors4_r.png,r,2,030,001,2021-04-24_21h14.49.982,searchDisc4,2020.2.10,Win32,60,,,space,0.04224,2,1,0.519375,,0,371,371,343,1,2b,1,1,4,
,,,,,,,,,,,,,,,,,,,,,,,,,,images/exp2b_trial_90_colour3_distractors9_r.png,r,2,030,001,2021-04-24_21h14.49.982,searchDisc4,2020.2.10,Win32,60,,,space,0.057575,2,1,0.56674,,0,372,372,432,1,2b,90,3,9,
,,,,,,,,,,,,,,,,,,,,,,,,,,images/exp2b_trial_99_colour1_distractors43_l.png,l,1,030,001,2021-04-24_21h14.49.982,searchDisc4,2020.2.10,Win32,60,,,space,0.050465,1,1,0.56539,,0,373,373,441,1,2b,99,1,43,
,,,,,,,,,,,,,,,,,,,,,,,,,,images/exp2b_trial_81_colour1_distractors43_r.png,r,2,030,001,2021-04-24_21h14.49.982,searchDisc4,2020.2.10,Win32,60,,,space,0.065985,2,1,0.672815,,0,374,374,423,1,2b,81,1,43,
,,,,,,,,,,,,,,,,,,,,,,,,,,images/exp1b_trial_108_colour3_distractors9_l.png,l,1,030,001,2021-04-24_21h14.49.982,searchDisc4,2020.2.10,Win32,60,,,space,0.03569,1,1,1.35372,,0,375,375,222,1,1b,108,3,9,
,,,,,,,,,,,,,,,,,,,,,,,,,,images/exp2c_trial_53_colour3_distractors19_r.png,r,2,030,001,2021-04-24_21h14.49.982,searchDisc4,2020.2.10,Win32,60,,,space,0.066525,2,1,0.554495,,0,376,376,509,1,2c,53,3,19,
,,,,,,,,,,,,,,,,,,,,,,,,,,images/exp2c_trial_56_colour1_distractors1_l.png,l,1,030,001,2021-04-24_21h14.49.982,searchDisc4,2020.2.10,Win32,60,,,space,0.06677,1,1,0.564,,0,377,377,512,1,2c,56,1,1,
,,,,,,,,,,,,,,,,,,,,,,,,,,images/exp1b_trial_13_colour3_distractors4_r.png,r,2,030,001,2021-04-24_21h14.49.982,searchDisc4,2020.2.10,Win32,60,,,space,0.033,2,1,0.67459,,0,378,378,127,1,1b,13,3,4,
,,,,,,,,,,,,,,,,,,,,,,,,,,images/exp1b_trial_8_colour2_distractors9_r.png,r,2,030,001,2021-04-24_21h14.49.982,searchDisc4,2020.2.10,Win32,60,,,space,0.06979,2,1,0.74869,,0,379,379,122,1,1b,8,2,9,
,,,,,,,,,,,,,,,,,,,,,,,,,,images/exp1a_trial_28_colour2_distractors31_l.png,l,1,030,001,2021-04-24_21h14.49.982,searchDisc4,2020.2.10,Win32,60,,,space,0.046805,1,1,0.85589,,0,380,380,28,1,1a,28,2,31,
,,,,,,,,,,,,,,,,,,,,,,,,,,images/exp1a_trial_49_colour2_distractors43_r.png,r,2,030,001,2021-04-24_21h14.49.982,searchDisc4,2020.2.10,Win32,60,,,space,0.055255,2,1,0.58389,,0,381,381,49,1,1a,49,2,43,
,,,,,,,,,,,,,,,,,,,,,,,,,,images/exp2b_trial_19_colour1_distractors4_l.png,l,1,030,001,2021-04-24_21h14.49.982,searchDisc4,2020.2.10,Win32,60,,,space,0.04912,1,1,0.555435,,0,382,382,361,1,2b,19,1,4,
,,,,,,,,,,,,,,,,,,,,,,,,,,images/exp1b_trial_22_colour1_distractors31_l.png,l,1,030,001,2021-04-24_21h14.49.982,searchDisc4,2020.2.10,Win32,60,,,space,0.055685,1,1,2.53393,,0,383,383,136,1,1b,22,1,31,
,,,,,,,,,,,,,,,,,,,,,,,,,,images/exp2a_trial_109_colour3_distractors19_l.png,l,1,030,001,2021-04-24_21h14.49.982,searchDisc4,2020.2.10,Win32,60,,,space,0.061315,1,1,0.543495,,0,384,384,337,1,2a,109,3,19,
,,,,,,,,,,,,,,,,,,,,,,,,,,images/exp1b_trial_53_colour3_distractors19_r.png,r,2,030,001,2021-04-24_21h14.49.982,searchDisc4,2020.2.10,Win32,60,,,space,0.05938,2,1,1.98189,,0,385,385,167,1,1b,53,3,19,
,,,,,,,,,,,,,,,,,,,,,,,,,,images/exp1b_trial_70_colour3_distractors9_l.png,l,1,030,001,2021-04-24_21h14.49.982,searchDisc4,2020.2.10,Win32,60,,,space,0.0605,1,1,1.17954,,0,386,386,184,1,1b,70,3,9,
,,,,,,,,,,,,,,,,,,,,,,,,,,images/exp2b_trial_79_colour1_distractors19_r.png,r,2,030,001,2021-04-24_21h14.49.982,searchDisc4,2020.2.10,Win32,60,,,space,0.06827,2,1,0.570655,,0,387,387,421,1,2b,79,1,19,
,,,,,,,,,,,,,,,,,,,,,,,,,,images/exp2a_trial_38_colour1_distractors1_r.png,r,2,030,001,2021-04-24_21h14.49.982,searchDisc4,2020.2.10,Win32,60,,,space,0.041555,2,1,0.768955,,0,388,388,266,1,2a,38,1,1,
,,,,,,,,,,,,,,,,,,,,,,,,,,images/exp2c_trial_96_colour1_distractors9_l.png,l,1,030,001,2021-04-24_21h14.49.982,searchDisc4,2020.2.10,Win32,60,,,space,0.04938,1,1,0.579985,,0,389,389,552,1,2c,96,1,9,
,,,,,,,,,,,,,,,,,,,,,,,,,,images/exp1a_trial_15_colour3_distractors19_r.png,r,2,030,001,2021-04-24_21h14.49.982,searchDisc4,2020.2.10,Win32,60,,,space,0.068695,2,1,0.532965,,0,390,390,15,1,1a,15,3,19,
,,,,,,,,,,,,,,,,,,,,,,,,,,images/exp1b_trial_19_colour1_distractors4_l.png,l,1,030,001,2021-04-24_21h14.49.982,searchDisc4,2020.2.10,Win32,60,,,space,0.05502,1,1,0.759905,,0,391,391,133,1,1b,19,1,4,
,,,,,,,,,,,,,,,,,,,,,,,,,,images/exp2b_trial_71_colour3_distractors19_l.png,l,1,030,001,2021-04-24_21h14.49.982,searchDisc4,2020.2.10,Win32,60,,,space,0.04475,1,1,0.566185,,0,392,392,413,1,2b,71,3,19,
,,,,,,,,,,,,,,,,,,,,,,,,,,images/exp1b_trial_97_colour1_distractors19_l.png,l,1,030,001,2021-04-24_21h14.49.982,searchDisc4,2020.2.10,Win32,60,,,space,0.056125,1,1,1.0352,,0,393,393,211,1,1b,97,1,19,
,,,,,,,,,,,,,,,,,,,,,,,,,,images/exp2a_trial_83_colour2_distractors4_r.png,r,2,030,001,2021-04-24_21h14.49.982,searchDisc4,2020.2.10,Win32,60,,,space,0.04462,2,1,0.775075,,0,394,394,311,1,2a,83,2,4,
,,,,,,,,,,,,,,,,,,,,,,,,,,images/exp2c_trial_34_colour3_distractors31_l.png,l,1,030,001,2021-04-24_21h14.49.982,searchDisc4,2020.2.10,Win32,60,,,space,0.06403,1,1,0.56892,,0,395,395,490,1,2c,34,3,31,
,,,,,,,,,,,,,,,,,,,,,,,,,,images/exp2c_trial_55_colour3_distractors43_r.png,r,2,030,001,2021-04-24_21h14.49.982,searchDisc4,2020.2.10,Win32,60,,,space,0.06706,2,1,0.73726,,0,396,396,511,1,2c,55,3,43,
,,,,,,,,,,,,,,,,,,,,,,,,,,images/exp2b_trial_101_colour2_distractors4_l.png,l,1,030,001,2021-04-24_21h14.49.982,searchDisc4,2020.2.10,Win32,60,,,space,0.026525,1,1,0.61389,,0,397,397,443,1,2b,101,2,4,
,,,,,,,,,,,,,,,,,,,,,,,,,,images/exp1a_trial_8_colour2_distractors9_r.png,r,2,030,001,2021-04-24_21h14.49.982,searchDisc4,2020.2.10,Win32,60,,,space,0.052475,2,1,0.5481,,0,398,398,8,1,1a,8,2,9,
,,,,,,,,,,,,,,,,,,,,,,,,,,images/exp2b_trial_18_colour1_distractors1_l.png,l,1,030,001,2021-04-24_21h14.49.982,searchDisc4,2020.2.10,Win32,60,,,space,0.052585,1,1,0.655485,,0,399,399,360,1,2b,18,1,1,
,,,,,,,,,,,,,,,,,,,,,,,,,,images/exp2a_trial_52_colour3_distractors9_r.png,r,2,030,001,2021-04-24_21h14.49.982,searchDisc4,2020.2.10,Win32,60,,,space,0.075945,2,1,0.571325,,0,400,400,280,1,2a,52,3,9,
,,,,,,,,,,,,,,,,,,,,,,,,,,images/exp1b_trial_41_colour1_distractors19_r.png,r,2,030,001,2021-04-24_21h14.49.982,searchDisc4,2020.2.10,Win32,60,,,space,0.04275,2,1,0.96474,,0,401,401,155,1,1b,41,1,19,
,,,,,,,,,,,,,,,,,,,,,,,,,,images/exp2a_trial_51_colour3_distractors4_r.png,r,2,030,001,2021-04-24_21h14.49.982,searchDisc4,2020.2.10,Win32,60,,,space,0.053675,2,1,0.684765,,0,402,402,279,1,2a,51,3,4,
,,,,,,,,,,,,,,,,,,,,,,,,,,images/exp1a_trial_26_colour2_distractors9_l.png,l,1,030,001,2021-04-24_21h14.49.982,searchDisc4,2020.2.10,Win32,60,,,space,0.060855,1,1,1.010565,,0,403,403,26,1,1a,26,2,9,
,,,,,,,,,,,,,,,,,,,,,,,,,,images/exp2a_trial_82_colour2_distractors1_r.png,r,2,030,001,2021-04-24_21h14.49.982,searchDisc4,2020.2.10,Win32,60,,,space,0.066825,2,1,0.62052,,0,404,404,310,1,2a,82,2,1,
,,,,,,,,,,,,,,,,,,,,,,,,,,images/exp1a_trial_109_colour3_distractors19_l.png,l,1,030,001,2021-04-24_21h14.49.982,searchDisc4,2020.2.10,Win32,60,,,space,0.03649,1,1,0.61313,,0,405,405,109,1,1a,109,3,19,
,,,,,,,,,,,,,,,,,,,,,,,,,,images/exp1a_trial_82_colour2_distractors1_r.png,r,2,030,001,2021-04-24_21h14.49.982,searchDisc4,2020.2.10,Win32,60,,,space,0.069045,2,1,0.640675,,0,406,406,82,1,1a,82,2,1,
,,,,,,,,,,,,,,,,,,,,,,,,,,images/exp2c_trial_58_colour1_distractors9_l.png,l,1,030,001,2021-04-24_21h14.49.982,searchDisc4,2020.2.10,Win32,60,,,space,0.060795,1,1,0.507555,,0,407,407,514,1,2c,58,1,9,
,,,,,,,,,,,,,,,,,,,,,,,,,,images/exp1a_trial_76_colour1_distractors1_r.png,r,2,030,001,2021-04-24_21h14.49.982,searchDisc4,2020.2.10,Win32,60,,,space,0.049875,2,1,0.82351,,0,408,408,76,1,1a,76,1,1,
,,,,,,,,,,,,,,,,,,,,,,,,,,images/exp1b_trial_31_colour3_distractors4_l.png,l,1,030,001,2021-04-24_21h14.49.982,searchDisc4,2020.2.10,Win32,60,,,space,0.05769,1,1,0.973205,,0,409,409,145,1,1b,31,3,4,
,,,,,,,,,,,,,,,,,,,,,,,,,,images/exp1b_trial_4_colour1_distractors31_r.png,r,2,030,001,2021-04-24_21h14.49.982,searchDisc4,2020.2.10,Win32,60,,,space,0.06315,2,1,1.302505,,0,410,410,118,1,1b,4,1,31,
,,,,,,,,,,,,,,,,,,,,,,,,,,images/exp2c_trial_32_colour3_distractors9_l.png,l,1,030,001,2021-04-24_21h14.49.982,searchDisc4,2020.2.10,Win32,60,,,space,0.052525,1,1,0.678645,,0,411,411,488,1,2c,32,3,9,
,,,,,,,,,,,,,,,,,,,,,,,,,,images/exp1b_trial_84_colour2_distractors9_r.png,r,2,030,001,2021-04-24_21h14.49.982,searchDisc4,2020.2.10,Win32,60,,,space,0.047795,2,1,0.78053,,0,412,412,198,1,1b,84,2,9,
,,,,,,,,,,,,,,,,,,,,,,,,,,images/exp1b_trial_2_colour1_distractors9_r.png,r,2,030,001,2021-04-24_21h14.49.982,searchDisc4,2020.2.10,Win32,60,,,space,0.055825,2,1,0.753925,,0,413,413,116,1,1b,2,1,9,
,,,,,,,,,,,,,,,,,,,,,,,,,,images/exp2c_trial_61_colour1_distractors43_l.png,l,1,030,001,2021-04-24_21h14.49.982,searchDisc4,2020.2.10,Win32,60,,,space,0.064455,1,1,0.70316,,0,414,414,517,1,2c,61,1,43,
,,,,,,,,,,,,,,,,,,,,,,,,,,images/exp2b_trial_77_colour1_distractors4_r.png,r,2,030,001,2021-04-24_21h14.49.982,searchDisc4,2020.2.10,Win32,60,,,space,0.066565,2,1,0.63857,,0,415,415,419,1,2b,77,1,4,
,,,,,,,,,,,,,,,,,,,,,,,,,,images/exp1a_trial_71_colour3_distractors19_l.png,l,1,030,001,2021-04-24_21h14.49.982,searchDisc4,2020.2.10,Win32,60,,,space,0.049525,1,1,0.686575,,0,416,416,71,1,1a,71,3,19,
,,,,,,,,,,,,,,,,,,,,,,,,,,images/exp2a_trial_55_colour3_distractors43_r.png,r,2,030,001,2021-04-24_21h14.49.982,searchDisc4,2020.2.10,Win32,60,,,space,0.061395,2,1,0.603855,,0,417,417,283,1,2a,55,3,43,
,,,,,,,,,,,,,,,,,,,,,,,,,,images/exp2b_trial_88_colour3_distractors1_r.png,r,2,030,001,2021-04-24_21h14.49.982,searchDisc4,2020.2.10,Win32,60,,,space,0.052765,2,1,0.56007,,0,418,418,430,1,2b,88,3,1,
,,,,,,,,,,,,,,,,,,,,,,,,,,images/exp2b_trial_111_colour3_distractors43_l.png,l,1,030,001,2021-04-24_21h14.49.982,searchDisc4,2020.2.10,Win32,60,,,space,0.06984,1,1,0.590715,space,0,419,419,453,1,2b,111,3,43,0.06854
,,,,,,,,,,,,,,,,,,,,,,,,,,images/exp2a_trial_12_colour3_distractors1_r.png,r,2,030,001,2021-04-24_21h14.49.982,searchDisc4,2020.2.10,Win32,60,,,space,0.68593,2,1,0.51588,,0,420,420,240,1,2a,12,3,1,
,,,,,,,,,,,,,,,,,,,,,,,,,,images/exp2a_trial_27_colour2_distractors19_l.png,l,1,030,001,2021-04-24_21h14.49.982,searchDisc4,2020.2.10,Win32,60,,,space,0.07544,1,1,0.518155,,0,421,421,255,1,2a,27,2,19,
,,,,,,,,,,,,,,,,,,,,,,,,,,images/exp1b_trial_0_colour1_distractors1_r.png,r,2,030,001,2021-04-24_21h14.49.982,searchDisc4,2020.2.10,Win32,60,,,space,0.06442,2,1,0.743525,,0,422,422,114,1,1b,0,1,1,
,,,,,,,,,,,,,,,,,,,,,,,,,,images/exp2b_trial_64_colour2_distractors9_l.png,l,1,030,001,2021-04-24_21h14.49.982,searchDisc4,2020.2.10,Win32,60,,,space,0.064085,1,1,0.69357,,0,423,423,406,1,2b,64,2,9,
,,,,,,,,,,,,,,,,,,,,,,,,,,images/exp1b_trial_49_colour2_distractors43_r.png,r,2,030,001,2021-04-24_21h14.49.982,searchDisc4,2020.2.10,Win32,60,,,space,0.0558,2,1,0.65161,,0,424,424,163,1,1b,49,2,43,
,,,,,,,,,,,,,,,,,,,,,,,,,,images/exp2a_trial_60_colour1_distractors31_l.png,l,1,030,001,2021-04-24_21h14.49.982,searchDisc4,2020.2.10,Win32,60,,,space,0.050945,1,1,0.775125,,0,425,425,288,1,2a,60,1,31,
,,,,,,,,,,,,,,,,,,,,,,,,,,images/exp1a_trial_77_colour1_distractors4_r.png,r,2,030,001,2021-04-24_21h14.49.982,searchDisc4,2020.2.10,Win32,60,,,space,0.05904,2,1,0.582755,,0,426,426,77,1,1a,77,1,4,
,,,,,,,,,,,,,,,,,,,,,,,,,,images/exp2a_trial_53_colour3_distractors19_r.png,r,2,030,001,2021-04-24_21h14.49.982,searchDisc4,2020.2.10,Win32,60,,,space,0.04349,2,1,0.639475,,0,427,427,281,1,2a,53,3,19,
,,,,,,,,,,,,,,,,,,,,,,,,,,images/exp1b_trial_23_colour1_distractors43_l.png,l,1,030,001,2021-04-24_21h14.49.982,searchDisc4,2020.2.10,Win32,60,,,space,0.04755,1,1,1.04672,,0,428,428,137,1,1b,23,1,43,
,,,,,,,,,,,,,,,,,,,,,,,,,,images/exp2b_trial_98_colour1_distractors31_l.png,l,1,030,001,2021-04-24_21h14.49.982,searchDisc4,2020.2.10,Win32,60,,,space,0.051305,1,1,0.61306,,0,429,429,440,1,2b,98,1,31,
,,,,,,,,,,,,,,,,,,,,,,,,,,images/exp1b_trial_111_colour3_distractors43_l.png,l,1,030,001,2021-04-24_21h14.49.982,searchDisc4,2020.2.10,Win32,60,,,space,0.055855,1,1,0.69784,,0,430,430,225,1,1b,111,3,43,
,,,,,,,,,,,,,,,,,,,,,,,,,,images/exp2a_trial_33_colour3_distractors19_l.png,l,1,030,001,2021-04-24_21h14.49.982,searchDisc4,2020.2.10,Win32,60,,,space,0.040315,1,1,0.79358,,0,431,431,261,1,2a,33,3,19,
,,,,,,,,,,,,,,,,,,,,,,,,,,images/exp2a_trial_103_colour2_distractors19_l.png,l,1,030,001,2021-04-24_21h14.49.982,searchDisc4,2020.2.10,Win32,60,,,space,0.043365,1,1,0.547625,,0,432,432,331,1,2a,103,2,19,
,,,,,,,,,,,,,,,,,,,,,,,,,,images/exp1a_trial_97_colour1_distractors19_l.png,l,1,030,001,2021-04-24_21h14.49.982,searchDisc4,2020.2.10,Win32,60,,,space,0.0354,1,1,0.515435,,0,433,433,97,1,1a,97,1,19,
,,,,,,,,,,,,,,,,,,,,,,,,,,images/exp1b_trial_104_colour2_distractors31_l.png,l,1,030,001,2021-04-24_21h14.49.982,searchDisc4,2020.2.10,Win32,60,,,space,0.074105,2,0,1.177415,,0,434,434,218,1,1b,104,2,31,
,,,,,,,,,,,,,,,,,,,,,,,,,,images/exp1a_trial_73_colour3_distractors43_l.png,l,1,030,001,2021-04-24_21h14.49.982,searchDisc4,2020.2.10,Win32,60,,,space,0.47445,1,1,0.54722,,0,435,435,73,1,1a,73,3,43,
,,,,,,,,,,,,,,,,,,,,,,,,,,images/exp1b_trial_32_colour3_distractors9_l.png,l,1,030,001,2021-04-24_21h14.49.982,searchDisc4,2020.2.10,Win32,60,,,space,0.079005,1,1,1.29367,,0,436,436,146,1,1b,32,3,9,
,,,,,,,,,,,,,,,,,,,,,,,,,,images/exp1a_trial_17_colour3_distractors43_r.png,r,2,030,001,2021-04-24_21h14.49.982,searchDisc4,2020.2.10,Win32,60,,,space,0.1186,2,1,0.597485,,0,437,437,17,1,1a,17,3,43,
,,,,,,,,,,,,,,,,,,,,,,,,,,images/exp2a_trial_88_colour3_distractors1_r.png,r,2,030,001,2021-04-24_21h14.49.982,searchDisc4,2020.2.10,Win32,60,,,space,0.07558,2,1,0.653625,,0,438,438,316,1,2a,88,3,1,
,,,,,,,,,,,,,,,,,,,,,,,,,,images/exp2c_trial_74_colour0_distractors0_r.png,r,2,030,001,2021-04-24_21h14.49.982,searchDisc4,2020.2.10,Win32,60,,,space,0.11432,2,1,0.56131,,0,439,439,530,1,2c,74,0,0,
,,,,,,,,,,,,,,,,,,,,,,,,,,images/exp1a_trial_107_colour3_distractors4_l.png,l,1,030,001,2021-04-24_21h14.49.982,searchDisc4,2020.2.10,Win32,60,,,space,0.132875,1,1,0.4781,,0,440,440,107,1,1a,107,3,4,
,,,,,,,,,,,,,,,,,,,,,,,,,,images/exp2b_trial_107_colour3_distractors4_l.png,l,1,030,001,2021-04-24_21h14.49.982,searchDisc4,2020.2.10,Win32,60,,,space,0.12126,1,1,0.520125,,0,441,441,449,1,2b,107,3,4,
,,,,,,,,,,,,,,,,,,,,,,,,,,images/exp1b_trial_82_colour2_distractors1_r.png,r,2,030,001,2021-04-24_21h14.49.982,searchDisc4,2020.2.10,Win32,60,,,space,0.09981,2,1,0.915645,,0,442,442,196,1,1b,82,2,1,
,,,,,,,,,,,,,,,,,,,,,,,,,,images/exp2a_trial_6_colour2_distractors1_r.png,r,2,030,001,2021-04-24_21h14.49.982,searchDisc4,2020.2.10,Win32,60,,,space,0.08356,2,1,0.589305,,0,443,443,234,1,2a,6,2,1,
,,,,,,,,,,,,,,,,,,,,,,,,,,images/exp1a_trial_5_colour1_distractors43_r.png,r,2,030,001,2021-04-24_21h14.49.982,searchDisc4,2020.2.10,Win32,60,,,space,0.067915,2,1,0.628585,,0,444,444,5,1,1a,5,1,43,
,,,,,,,,,,,,,,,,,,,,,,,,,,images/exp2b_trial_46_colour2_distractors9_r.png,r,2,030,001,2021-04-24_21h14.49.982,searchDisc4,2020.2.10,Win32,60,,,space,0.073385,2,1,0.61325,,0,445,445,388,1,2b,46,2,9,
,,,,,,,,,,,,,,,,,,,,,,,,,,images/exp2c_trial_113_colour0_distractors0_l.png,l,1,030,001,2021-04-24_21h14.49.982,searchDisc4,2020.2.10,Win32,60,,,space,0.06319,1,1,0.55313,,0,446,446,569,1,2c,113,0,0,
,,,,,,,,,,,,,,,,,,,,,,,,,,images/exp2a_trial_39_colour1_distractors4_r.png,r,2,030,001,2021-04-24_21h14.49.982,searchDisc4,2020.2.10,Win32,60,,,space,0.047855,2,1,0.70831,,0,447,447,267,1,2a,39,1,4,
,,,,,,,,,,,,,,,,,,,,,,,,,,images/exp2a_trial_28_colour2_distractors31_l.png,l,1,030,001,2021-04-24_21h14.49.982,searchDisc4,2020.2.10,Win32,60,,,space,0.052875,1,1,0.621595,,0,448,448,256,1,2a,28,2,31,
,,,,,,,,,,,,,,,,,,,,,,,,,,images/exp2a_trial_101_colour2_distractors4_l.png,l,1,030,001,2021-04-24_21h14.49.982,searchDisc4,2020.2.10,Win32,60,,,space,0.081815,1,1,0.617245,,0,449,449,329,1,2a,101,2,4,
,,,,,,,,,,,,,,,,,,,,,,,,,,images/exp2c_trial_68_colour3_distractors1_l.png,l,1,030,001,2021-04-24_21h14.49.982,searchDisc4,2020.2.10,Win32,60,,,space,0.075855,1,1,0.568955,,0,450,450,524,1,2c,68,3,1,
,,,,,,,,,,,,,,,,,,,,,,,,,,images/exp1a_trial_30_colour3_distractors1_l.png,l,1,030,001,2021-04-24_21h14.49.982,searchDisc4,2020.2.10,Win32,60,,,space,0.081725,1,1,0.520155,,0,451,451,30,1,1a,30,3,1,
,,,,,,,,,,,,,,,,,,,,,,,,,,images/exp2a_trial_80_colour1_distractors31_r.png,r,2,030,001,2021-04-24_21h14.49.982,searchDisc4,2020.2.10,Win32,60,,,space,0.09731,2,1,0.536685,,0,452,452,308,1,2a,80,1,31,
,,,,,,,,,,,,,,,,,,,,,,,,,,images/exp2c_trial_44_colour2_distractors1_r.png,r,2,030,001,2021-04-24_21h14.49.982,searchDisc4,2020.2.10,Win32,60,,,space,0.062485,2,1,0.72211,,0,453,453,500,1,2c,44,2,1,
,,,,,,,,,,,,,,,,,,,,,,,,,,images/exp2b_trial_51_colour3_distractors4_r.png,r,2,030,001,2021-04-24_21h14.49.982,searchDisc4,2020.2.10,Win32,60,,,space,0.07653,2,1,0.935925,,0,454,454,393,1,2b,51,3,4,
,,,,,,,,,,,,,,,,,,,,,,,,,,images/exp1a_trial_29_colour2_distractors43_l.png,l,1,030,001,2021-04-24_21h14.49.982,searchDisc4,2020.2.10,Win32,60,,,space,0.072765,2,0,0.59476,,0,455,455,29,1,1a,29,2,43,
,,,,,,,,,,,,,,,,,,,,,,,,,,images/exp1a_trial_55_colour3_distractors43_r.png,r,2,030,001,2021-04-24_21h14.49.982,searchDisc4,2020.2.10,Win32,60,,,space,6.468205,2,1,0.7696,,0,456,456,55,1,1a,55,3,43,
,,,,,,,,,,,,,,,,,,,,,,,,,,images/exp2b_trial_78_colour1_distractors9_r.png,r,2,030,001,2021-04-24_21h14.49.982,searchDisc4,2020.2.10,Win32,60,,,space,0.088805,2,1,0.831985,,0,457,457,420,1,2b,78,1,9,
,,,,,,,,,,,,,,,,,,,,,,,,,,images/exp1a_trial_1_colour1_distractors4_r.png,r,2,030,001,2021-04-24_21h14.49.982,searchDisc4,2020.2.10,Win32,60,,,space,0.072105,2,1,0.692305,,0,458,458,1,1,1a,1,1,4,
,,,,,,,,,,,,,,,,,,,,,,,,,,images/exp2b_trial_102_colour2_distractors9_l.png,l,1,030,001,2021-04-24_21h14.49.982,searchDisc4,2020.2.10,Win32,60,,,space,0.04188,1,1,0.655375,,0,459,459,444,1,2b,102,2,9,
,,,,,,,,,,,,,,,,,,,,,,,,,,images/exp2a_trial_62_colour2_distractors1_l.png,l,1,030,001,2021-04-24_21h14.49.982,searchDisc4,2020.2.10,Win32,60,,,space,0.082145,1,1,0.57881,,0,460,460,290,1,2a,62,2,1,
,,,,,,,,,,,,,,,,,,,,,,,,,,images/exp2b_trial_55_colour3_distractors43_r.png,r,2,030,001,2021-04-24_21h14.49.982,searchDisc4,2020.2.10,Win32,60,,,space,0.07893,2,1,0.64525,,0,461,461,397,1,2b,55,3,43,
,,,,,,,,,,,,,,,,,,,,,,,,,,images/exp2b_trial_75_colour0_distractors0_l.png,l,1,030,001,2021-04-24_21h14.49.982,searchDisc4,2020.2.10,Win32,60,,,space,0.0829,1,1,0.592435,,0,462,462,417,1,2b,75,0,0,
,,,,,,,,,,,,,,,,,,,,,,,,,,images/exp2c_trial_84_colour2_distractors9_r.png,r,2,030,001,2021-04-24_21h14.49.982,searchDisc4,2020.2.10,Win32,60,,,space,0.07334,2,1,0.824665,,0,463,463,540,1,2c,84,2,9,
,,,,,,,,,,,,,,,,,,,,,,,,,,images/exp2b_trial_87_colour2_distractors43_r.png,r,2,030,001,2021-04-24_21h14.49.982,searchDisc4,2020.2.10,Win32,60,,,space,0.08496,2,1,0.790575,,0,464,464,429,1,2b,87,2,43,
,,,,,,,,,,,,,,,,,,,,,,,,,,images/exp1b_trial_80_colour1_distractors31_r.png,r,2,030,001,2021-04-24_21h14.49.982,searchDisc4,2020.2.10,Win32,60,,,space,0.054415,2,1,0.763165,,0,465,465,194,1,1b,80,1,31,
,,,,,,,,,,,,,,,,,,,,,,,,,,images/exp1a_trial_31_colour3_distractors4_l.png,l,1,030,001,2021-04-24_21h14.49.982,searchDisc4,2020.2.10,Win32,60,,,space,0.124235,1,1,0.61712,,0,466,466,31,1,1a,31,3,4,
,,,,,,,,,,,,,,,,,,,,,,,,,,images/exp2b_trial_2_colour1_distractors9_r.png,r,2,030,001,2021-04-24_21h14.49.982,searchDisc4,2020.2.10,Win32,60,,,space,0.07694,2,1,0.59897,,0,467,467,344,1,2b,2,1,9,
,,,,,,,,,,,,,,,,,,,,,,,,,,images/exp1a_trial_42_colour1_distractors31_r.png,r,2,030,001,2021-04-24_21h14.49.982,searchDisc4,2020.2.10,Win32,60,,,space,0.084025,2,1,0.55282,,0,468,468,42,1,1a,42,1,31,
,,,,,,,,,,,,,,,,,,,,,,,,,,images/exp1a_trial_6_colour2_distractors1_r.png,r,2,030,001,2021-04-24_21h14.49.982,searchDisc4,2020.2.10,Win32,60,,,space,0.0826,2,1,0.56461,,0,469,469,6,1,1a,6,2,1,
,,,,,,,,,,,,,,,,,,,,,,,,,,images/exp2b_trial_11_colour2_distractors43_r.png,r,2,030,001,2021-04-24_21h14.49.982,searchDisc4,2020.2.10,Win32,60,,,space,0.081925,2,1,0.497895,,0,470,470,353,1,2b,11,2,43,
,,,,,,,,,,,,,,,,,,,,,,,,,,images/exp1a_trial_66_colour2_distractors31_l.png,l,1,030,001,2021-04-24_21h14.49.982,searchDisc4,2020.2.10,Win32,60,,,space,0.08133,1,1,0.771575,,0,471,471,66,1,1a,66,2,31,
,,,,,,,,,,,,,,,,,,,,,,,,,,images/exp1b_trial_34_colour3_distractors31_l.png,l,1,030,001,2021-04-24_21h14.49.982,searchDisc4,2020.2.10,Win32,60,,,space,0.08874,1,1,0.77686,,0,472,472,148,1,1b,34,3,31,
,,,,,,,,,,,,,,,,,,,,,,,,,,images/exp2b_trial_16_colour3_distractors31_r.png,r,2,030,001,2021-04-24_21h14.49.982,searchDisc4,2020.2.10,Win32,60,,,space,0.087995,2,1,1.179345,,0,473,473,358,1,2b,16,3,31,
,,,,,,,,,,,,,,,,,,,,,,,,,,images/exp2c_trial_33_colour3_distractors19_l.png,l,1,030,001,2021-04-24_21h14.49.982,searchDisc4,2020.2.10,Win32,60,,,space,0.13155,1,1,0.598785,,0,474,474,489,1,2c,33,3,19,
,,,,,,,,,,,,,,,,,,,,,,,,,,images/exp2a_trial_87_colour2_distractors43_r.png,r,2,030,001,2021-04-24_21h14.49.982,searchDisc4,2020.2.10,Win32,60,,,space,0.08554,2,1,0.53168,,0,475,475,315,1,2a,87,2,43,
,,,,,,,,,,,,,,,,,,,,,,,,,,images/exp2c_trial_66_colour2_distractors31_l.png,l,1,030,001,2021-04-24_21h14.49.982,searchDisc4,2020.2.10,Win32,60,,,space,0.092085,1,1,0.52015,,0,476,476,522,1,2c,66,2,31,
