X Scale,Y Scale,key_resp_10.keys,key_resp_10.rt,key_resp_11.keys,key_resp_11.rt,key_resp_12.keys,key_resp_12.rt,key_resp_13.keys,key_resp_13.rt,key_resp_5.keys,key_resp_5.rt,key_resp_8.keys,key_resp_8.rt,key_resp_6.keys,key_resp_6.rt,key_resp_7.keys,key_resp_7.rt,key_resp_4.keys,key_resp_4.corr,key_resp_4.rt,trials_2.thisRepN,trials_2.thisTrialN,trials_2.thisN,trials_2.thisIndex,trials_2.ran,ImageFile,targ_side,correctAnswer,participant,session,date,expName,psychopyVersion,OS,frameRate,key_resp_3.keys,key_resp_3.rt,key_resp_9.keys,key_resp_9.rt,key_resp_2.keys,key_resp_2.corr,key_resp_2.rt,key_resp.keys,trials.thisRepN,trials.thisTrialN,trials.thisN,trials.thisIndex,trials.ran,exp,trial,colour,distNo,key_resp.rt
21.9,22.5,space,2.65265,space,5.597675,space,2.952605,space,1.682955,space,3.05466,space,3.0996,space,0.636595,space,14.90587,2,1,0.70537,0,0,0,7,1,Practice arrays/exp1a_trial_13_colour3_distractors4_r.png,r,2,031,001,2021-04-26_14h05.49.255,searchDisc4,2020.2.10,Win32,60,,,,,,,,,,,,,,,,,,
,,,,,,,,,,,,,,,,space,0.656955,2,0,0.50633,0,1,1,10,1,Practice arrays/exp1a_trial_20_colour1_distractors9_l.png,l,1,031,001,2021-04-26_14h05.49.255,searchDisc4,2020.2.10,Win32,60,,,,,,,,,,,,,,,,,,
,,,,,,,,,,,,,,,,space,0.472385,1,1,0.493415,0,2,2,19,1,Practice arrays/exp1a_trial_37_colour0_distractors0_l.png,l,1,031,001,2021-04-26_14h05.49.255,searchDisc4,2020.2.10,Win32,60,,,,,,,,,,,,,,,,,,
,,,,,,,,,,,,,,,,space,0.493885,1,1,0.49573,0,3,3,9,1,Practice arrays/exp1a_trial_19_colour1_distractors4_l.png,l,1,031,001,2021-04-26_14h05.49.255,searchDisc4,2020.2.10,Win32,60,,,,,,,,,,,,,,,,,,
,,,,,,,,,,,,,,,,space,0.55098,1,0,0.456465,0,4,4,0,1,Practice arrays/exp1a_trial_0_colour1_distractors1_r.png,r,2,031,001,2021-04-26_14h05.49.255,searchDisc4,2020.2.10,Win32,60,,,,,,,,,,,,,,,,,,
,,,,,,,,,,,,,,,,space,0.66753,2,1,0.555075,0,5,5,4,1,Practice arrays/exp1a_trial_8_colour2_distractors9_r.png,r,2,031,001,2021-04-26_14h05.49.255,searchDisc4,2020.2.10,Win32,60,,,,,,,,,,,,,,,,,,
,,,,,,,,,,,,,,,,space,0.068635,2,1,0.558115,0,6,6,6,1,Practice arrays/exp1a_trial_12_colour3_distractors1_r.png,r,2,031,001,2021-04-26_14h05.49.255,searchDisc4,2020.2.10,Win32,60,,,,,,,,,,,,,,,,,,
,,,,,,,,,,,,,,,,space,0.50371,2,1,0.495115,0,7,7,18,1,Practice arrays/exp1a_trial_36_colour0_distractors0_r.png,r,2,031,001,2021-04-26_14h05.49.255,searchDisc4,2020.2.10,Win32,60,,,,,,,,,,,,,,,,,,
,,,,,,,,,,,,,,,,space,0.524285,1,1,0.618925,0,8,8,14,1,Practice arrays/exp1a_trial_29_colour2_distractors43_l.png,l,1,031,001,2021-04-26_14h05.49.255,searchDisc4,2020.2.10,Win32,60,,,,,,,,,,,,,,,,,,
,,,,,,,,,,,,,,,,space,0.539645,2,1,0.79325,0,9,9,5,1,Practice arrays/exp1a_trial_10_colour2_distractors31_r.png,r,2,031,001,2021-04-26_14h05.49.255,searchDisc4,2020.2.10,Win32,60,,,,,,,,,,,,,,,,,,
,,,,,,,,,,,,,,,,space,0.50065,1,1,0.62501,0,10,10,17,1,Practice arrays/exp1a_trial_35_colour3_distractors43_l.png,l,1,031,001,2021-04-26_14h05.49.255,searchDisc4,2020.2.10,Win32,60,,,,,,,,,,,,,,,,,,
,,,,,,,,,,,,,,,,space,0.78626,2,1,0.688815,0,11,11,2,1,Practice arrays/exp1a_trial_5_colour1_distractors43_r.png,r,2,031,001,2021-04-26_14h05.49.255,searchDisc4,2020.2.10,Win32,60,,,,,,,,,,,,,,,,,,
,,,,,,,,,,,,,,,,space,0.78702,2,0,0.537225,0,12,12,13,1,Practice arrays/exp1a_trial_28_colour2_distractors31_l.png,l,1,031,001,2021-04-26_14h05.49.255,searchDisc4,2020.2.10,Win32,60,,,,,,,,,,,,,,,,,,
,,,,,,,,,,,,,,,,space,0.386995,1,1,0.513475,0,13,13,16,1,Practice arrays/exp1a_trial_33_colour3_distractors19_l.png,l,1,031,001,2021-04-26_14h05.49.255,searchDisc4,2020.2.10,Win32,60,,,,,,,,,,,,,,,,,,
,,,,,,,,,,,,,,,,space,0.750815,1,1,0.674185,0,14,14,12,1,Practice arrays/exp1a_trial_25_colour2_distractors4_l.png,l,1,031,001,2021-04-26_14h05.49.255,searchDisc4,2020.2.10,Win32,60,,,,,,,,,,,,,,,,,,
,,,,,,,,,,,,,,,,space,1.04006,2,1,0.48991,0,15,15,1,1,Practice arrays/exp1a_trial_3_colour1_distractors19_r.png,r,2,031,001,2021-04-26_14h05.49.255,searchDisc4,2020.2.10,Win32,60,,,,,,,,,,,,,,,,,,
,,,,,,,,,,,,,,,,space,0.63922,1,1,0.58768,0,16,16,15,1,Practice arrays/exp1a_trial_32_colour3_distractors9_l.png,l,1,031,001,2021-04-26_14h05.49.255,searchDisc4,2020.2.10,Win32,60,,,,,,,,,,,,,,,,,,
,,,,,,,,,,,,,,,,space,0.48275,2,1,0.469545,0,17,17,3,1,Practice arrays/exp1a_trial_7_colour2_distractors4_r.png,r,2,031,001,2021-04-26_14h05.49.255,searchDisc4,2020.2.10,Win32,60,,,,,,,,,,,,,,,,,,
,,,,,,,,,,,,,,,,space,0.105885,2,1,0.590415,0,18,18,8,1,Practice arrays/exp1a_trial_16_colour3_distractors31_r.png,r,2,031,001,2021-04-26_14h05.49.255,searchDisc4,2020.2.10,Win32,60,,,,,,,,,,,,,,,,,,
,,,,,,,,,,,,,,,,space,0.42745,1,1,0.68998,0,19,19,11,1,Practice arrays/exp1a_trial_21_colour1_distractors19_l.png,l,1,031,001,2021-04-26_14h05.49.255,searchDisc4,2020.2.10,Win32,60,,,,,,,,,,,,,,,,,,
,,,,,,,,,,,,,,,,,,,,,,,,,,images/exp2b_trial_88_colour3_distractors1_r.png,r,2,031,001,2021-04-26_14h05.49.255,searchDisc4,2020.2.10,Win32,60,space,1.24313,space,1.708615,1,0,0.71447,,0,0,0,430,1,2b,88,3,1,
,,,,,,,,,,,,,,,,,,,,,,,,,,images/exp2c_trial_71_colour3_distractors19_l.png,l,1,031,001,2021-04-26_14h05.49.255,searchDisc4,2020.2.10,Win32,60,,,space,0.855715,1,1,0.59051,,0,1,1,527,1,2c,71,3,19,
,,,,,,,,,,,,,,,,,,,,,,,,,,images/exp1a_trial_42_colour1_distractors31_r.png,r,2,031,001,2021-04-26_14h05.49.255,searchDisc4,2020.2.10,Win32,60,,,space,0.603075,2,1,0.57251,,0,2,2,42,1,1a,42,1,31,
,,,,,,,,,,,,,,,,,,,,,,,,,,images/exp1a_trial_97_colour1_distractors19_l.png,l,1,031,001,2021-04-26_14h05.49.255,searchDisc4,2020.2.10,Win32,60,,,space,1.03919,1,1,0.6235,,0,3,3,97,1,1a,97,1,19,
,,,,,,,,,,,,,,,,,,,,,,,,,,images/exp2c_trial_11_colour2_distractors43_r.png,r,2,031,001,2021-04-26_14h05.49.255,searchDisc4,2020.2.10,Win32,60,,,space,0.783075,2,1,0.940215,,0,4,4,467,1,2c,11,2,43,
,,,,,,,,,,,,,,,,,,,,,,,,,,images/exp2a_trial_70_colour3_distractors9_l.png,l,1,031,001,2021-04-26_14h05.49.255,searchDisc4,2020.2.10,Win32,60,,,space,0.579465,1,1,0.54347,,0,5,5,298,1,2a,70,3,9,
,,,,,,,,,,,,,,,,,,,,,,,,,,images/exp1b_trial_70_colour3_distractors9_l.png,l,1,031,001,2021-04-26_14h05.49.255,searchDisc4,2020.2.10,Win32,60,,,space,0.500335,1,1,0.757855,,0,6,6,184,1,1b,70,3,9,
,,,,,,,,,,,,,,,,,,,,,,,,,,images/exp1a_trial_91_colour3_distractors19_r.png,r,2,031,001,2021-04-26_14h05.49.255,searchDisc4,2020.2.10,Win32,60,,,space,0.189955,2,1,0.545835,,0,7,7,91,1,1a,91,3,19,
,,,,,,,,,,,,,,,,,,,,,,,,,,images/exp2a_trial_17_colour3_distractors43_r.png,r,2,031,001,2021-04-26_14h05.49.255,searchDisc4,2020.2.10,Win32,60,,,space,0.357465,1,0,0.602515,,0,8,8,245,1,2a,17,3,43,
,,,,,,,,,,,,,,,,,,,,,,,,,,images/exp1b_trial_53_colour3_distractors19_r.png,r,2,031,001,2021-04-26_14h05.49.255,searchDisc4,2020.2.10,Win32,60,,,space,0.618715,2,1,0.993515,,0,9,9,167,1,1b,53,3,19,
,,,,,,,,,,,,,,,,,,,,,,,,,,images/exp1b_trial_90_colour3_distractors9_r.png,r,2,031,001,2021-04-26_14h05.49.255,searchDisc4,2020.2.10,Win32,60,,,space,0.53179,2,1,0.766605,,0,10,10,204,1,1b,90,3,9,
,,,,,,,,,,,,,,,,,,,,,,,,,,images/exp2c_trial_90_colour3_distractors9_r.png,r,2,031,001,2021-04-26_14h05.49.255,searchDisc4,2020.2.10,Win32,60,,,space,0.467075,1,0,0.44311,,0,11,11,546,1,2c,90,3,9,
,,,,,,,,,,,,,,,,,,,,,,,,,,images/exp2a_trial_29_colour2_distractors43_l.png,l,1,031,001,2021-04-26_14h05.49.255,searchDisc4,2020.2.10,Win32,60,,,space,0.500175,1,1,0.60863,,0,12,12,257,1,2a,29,2,43,
,,,,,,,,,,,,,,,,,,,,,,,,,,images/exp1b_trial_40_colour1_distractors9_r.png,r,2,031,001,2021-04-26_14h05.49.255,searchDisc4,2020.2.10,Win32,60,,,space,0.465965,2,1,0.710395,,0,13,13,154,1,1b,40,1,9,
,,,,,,,,,,,,,,,,,,,,,,,,,,images/exp1a_trial_82_colour2_distractors1_r.png,r,2,031,001,2021-04-26_14h05.49.255,searchDisc4,2020.2.10,Win32,60,,,space,0.59278,2,1,0.727615,,0,14,14,82,1,1a,82,2,1,
,,,,,,,,,,,,,,,,,,,,,,,,,,images/exp2c_trial_70_colour3_distractors9_l.png,l,1,031,001,2021-04-26_14h05.49.255,searchDisc4,2020.2.10,Win32,60,,,space,0.634215,1,1,0.5911,,0,15,15,526,1,2c,70,3,9,
,,,,,,,,,,,,,,,,,,,,,,,,,,images/exp2c_trial_13_colour3_distractors4_r.png,r,2,031,001,2021-04-26_14h05.49.255,searchDisc4,2020.2.10,Win32,60,,,space,0.66974,2,1,0.575325,,0,16,16,469,1,2c,13,3,4,
,,,,,,,,,,,,,,,,,,,,,,,,,,images/exp2b_trial_21_colour1_distractors19_l.png,l,1,031,001,2021-04-26_14h05.49.255,searchDisc4,2020.2.10,Win32,60,,,space,0.56086,1,1,0.69502,,0,17,17,363,1,2b,21,1,19,
,,,,,,,,,,,,,,,,,,,,,,,,,,images/exp2c_trial_67_colour2_distractors43_l.png,l,1,031,001,2021-04-26_14h05.49.255,searchDisc4,2020.2.10,Win32,60,,,space,0.50785,1,1,0.75773,,0,18,18,523,1,2c,67,2,43,
,,,,,,,,,,,,,,,,,,,,,,,,,,images/exp2c_trial_104_colour2_distractors31_l.png,l,1,031,001,2021-04-26_14h05.49.255,searchDisc4,2020.2.10,Win32,60,,,space,0.4859,1,1,0.60801,,0,19,19,560,1,2c,104,2,31,
,,,,,,,,,,,,,,,,,,,,,,,,,,images/exp2c_trial_81_colour1_distractors43_r.png,r,2,031,001,2021-04-26_14h05.49.255,searchDisc4,2020.2.10,Win32,60,,,space,0.41731,2,1,0.68219,,0,20,20,537,1,2c,81,1,43,
,,,,,,,,,,,,,,,,,,,,,,,,,,images/exp1b_trial_16_colour3_distractors31_r.png,r,2,031,001,2021-04-26_14h05.49.255,searchDisc4,2020.2.10,Win32,60,,,space,0.34383,2,1,0.607305,,0,21,21,130,1,1b,16,3,31,
,,,,,,,,,,,,,,,,,,,,,,,,,,images/exp2a_trial_51_colour3_distractors4_r.png,r,2,031,001,2021-04-26_14h05.49.255,searchDisc4,2020.2.10,Win32,60,,,space,0.310875,2,1,0.582215,,0,22,22,279,1,2a,51,3,4,
,,,,,,,,,,,,,,,,,,,,,,,,,,images/exp1b_trial_67_colour2_distractors43_l.png,l,1,031,001,2021-04-26_14h05.49.255,searchDisc4,2020.2.10,Win32,60,,,space,0.299655,1,1,0.80758,,0,23,23,181,1,1b,67,2,43,
,,,,,,,,,,,,,,,,,,,,,,,,,,images/exp2b_trial_3_colour1_distractors19_r.png,r,2,031,001,2021-04-26_14h05.49.255,searchDisc4,2020.2.10,Win32,60,,,space,0.17662,2,1,0.58558,,0,24,24,345,1,2b,3,1,19,
,,,,,,,,,,,,,,,,,,,,,,,,,,images/exp1a_trial_108_colour3_distractors9_l.png,l,1,031,001,2021-04-26_14h05.49.255,searchDisc4,2020.2.10,Win32,60,,,space,0.335115,1,1,0.58602,,0,25,25,108,1,1a,108,3,9,
,,,,,,,,,,,,,,,,,,,,,,,,,,images/exp1a_trial_55_colour3_distractors43_r.png,r,2,031,001,2021-04-26_14h05.49.255,searchDisc4,2020.2.10,Win32,60,,,space,0.369935,2,1,0.62948,,0,26,26,55,1,1a,55,3,43,
,,,,,,,,,,,,,,,,,,,,,,,,,,images/exp2b_trial_87_colour2_distractors43_r.png,r,2,031,001,2021-04-26_14h05.49.255,searchDisc4,2020.2.10,Win32,60,,,space,0.66295,2,1,0.7071,,0,27,27,429,1,2b,87,2,43,
,,,,,,,,,,,,,,,,,,,,,,,,,,images/exp2c_trial_91_colour3_distractors19_r.png,r,2,031,001,2021-04-26_14h05.49.255,searchDisc4,2020.2.10,Win32,60,,,space,0.50024,2,1,0.65866,,0,28,28,547,1,2c,91,3,19,
,,,,,,,,,,,,,,,,,,,,,,,,,,images/exp1b_trial_57_colour1_distractors4_l.png,l,1,031,001,2021-04-26_14h05.49.255,searchDisc4,2020.2.10,Win32,60,,,space,0.539515,1,1,0.73392,,0,29,29,171,1,1b,57,1,4,
,,,,,,,,,,,,,,,,,,,,,,,,,,images/exp2c_trial_38_colour1_distractors1_r.png,r,2,031,001,2021-04-26_14h05.49.255,searchDisc4,2020.2.10,Win32,60,,,space,0.454775,2,1,0.62515,,0,30,30,494,1,2c,38,1,1,
,,,,,,,,,,,,,,,,,,,,,,,,,,images/exp2a_trial_30_colour3_distractors1_l.png,l,1,031,001,2021-04-26_14h05.49.255,searchDisc4,2020.2.10,Win32,60,,,space,0.392385,1,1,0.608085,,0,31,31,258,1,2a,30,3,1,
,,,,,,,,,,,,,,,,,,,,,,,,,,images/exp2a_trial_59_colour1_distractors19_l.png,l,1,031,001,2021-04-26_14h05.49.255,searchDisc4,2020.2.10,Win32,60,,,space,0.405245,1,1,0.907775,,0,32,32,287,1,2a,59,1,19,
,,,,,,,,,,,,,,,,,,,,,,,,,,images/exp2b_trial_113_colour0_distractors0_l.png,l,1,031,001,2021-04-26_14h05.49.255,searchDisc4,2020.2.10,Win32,60,,,space,0.5256,1,1,0.444405,,0,33,33,455,1,2b,113,0,0,
,,,,,,,,,,,,,,,,,,,,,,,,,,images/exp2a_trial_105_colour2_distractors43_l.png,l,1,031,001,2021-04-26_14h05.49.255,searchDisc4,2020.2.10,Win32,60,,,space,0.32375,1,1,0.57322,,0,34,34,333,1,2a,105,2,43,
,,,,,,,,,,,,,,,,,,,,,,,,,,images/exp1b_trial_69_colour3_distractors4_l.png,l,1,031,001,2021-04-26_14h05.49.255,searchDisc4,2020.2.10,Win32,60,,,space,0.28489,1,1,0.640965,,0,35,35,183,1,1b,69,3,4,
,,,,,,,,,,,,,,,,,,,,,,,,,,images/exp2a_trial_97_colour1_distractors19_l.png,l,1,031,001,2021-04-26_14h05.49.255,searchDisc4,2020.2.10,Win32,60,,,space,0.284875,1,1,0.517795,,0,36,36,325,1,2a,97,1,19,
,,,,,,,,,,,,,,,,,,,,,,,,,,images/exp2c_trial_54_colour3_distractors31_r.png,r,2,031,001,2021-04-26_14h05.49.255,searchDisc4,2020.2.10,Win32,60,,,space,0.37766,2,1,0.64003,,0,37,37,510,1,2c,54,3,31,
,,,,,,,,,,,,,,,,,,,,,,,,,,images/exp1a_trial_39_colour1_distractors4_r.png,r,2,031,001,2021-04-26_14h05.49.255,searchDisc4,2020.2.10,Win32,60,,,space,0.333965,2,1,0.50811,,0,38,38,39,1,1a,39,1,4,
,,,,,,,,,,,,,,,,,,,,,,,,,,images/exp2a_trial_89_colour3_distractors4_r.png,r,2,031,001,2021-04-26_14h05.49.255,searchDisc4,2020.2.10,Win32,60,,,space,0.37008,2,1,0.543725,,0,39,39,317,1,2a,89,3,4,
,,,,,,,,,,,,,,,,,,,,,,,,,,images/exp2c_trial_99_colour1_distractors43_l.png,l,1,031,001,2021-04-26_14h05.49.255,searchDisc4,2020.2.10,Win32,60,,,space,0.34592,1,1,0.593255,,0,40,40,555,1,2c,99,1,43,
,,,,,,,,,,,,,,,,,,,,,,,,,,images/exp1a_trial_81_colour1_distractors43_r.png,r,2,031,001,2021-04-26_14h05.49.255,searchDisc4,2020.2.10,Win32,60,,,space,0.361815,2,1,0.53582,,0,41,41,81,1,1a,81,1,43,
,,,,,,,,,,,,,,,,,,,,,,,,,,images/exp2a_trial_9_colour2_distractors19_r.png,r,2,031,001,2021-04-26_14h05.49.255,searchDisc4,2020.2.10,Win32,60,,,space,0.378995,2,1,0.527175,,0,42,42,237,1,2a,9,2,19,
,,,,,,,,,,,,,,,,,,,,,,,,,,images/exp2b_trial_105_colour2_distractors43_l.png,l,1,031,001,2021-04-26_14h05.49.255,searchDisc4,2020.2.10,Win32,60,,,space,0.38796,1,1,0.520435,,0,43,43,447,1,2b,105,2,43,
,,,,,,,,,,,,,,,,,,,,,,,,,,images/exp2c_trial_107_colour3_distractors4_l.png,l,1,031,001,2021-04-26_14h05.49.255,searchDisc4,2020.2.10,Win32,60,,,space,0.432845,1,1,0.565295,,0,44,44,563,1,2c,107,3,4,
,,,,,,,,,,,,,,,,,,,,,,,,,,images/exp2a_trial_14_colour3_distractors9_r.png,r,2,031,001,2021-04-26_14h05.49.255,searchDisc4,2020.2.10,Win32,60,,,space,0.394375,2,1,0.52355,,0,45,45,242,1,2a,14,3,9,
,,,,,,,,,,,,,,,,,,,,,,,,,,images/exp1a_trial_5_colour1_distractors43_r.png,r,2,031,001,2021-04-26_14h05.49.255,searchDisc4,2020.2.10,Win32,60,,,space,0.43527,2,1,0.633835,,0,46,46,5,1,1a,5,1,43,
,,,,,,,,,,,,,,,,,,,,,,,,,,images/exp1b_trial_47_colour2_distractors19_r.png,r,2,031,001,2021-04-26_14h05.49.255,searchDisc4,2020.2.10,Win32,60,,,space,0.35799,2,1,0.65556,,0,47,47,161,1,1b,47,2,19,
,,,,,,,,,,,,,,,,,,,,,,,,,,images/exp2b_trial_53_colour3_distractors19_r.png,r,2,031,001,2021-04-26_14h05.49.255,searchDisc4,2020.2.10,Win32,60,,,space,0.402475,2,1,0.62975,,0,48,48,395,1,2b,53,3,19,
,,,,,,,,,,,,,,,,,,,,,,,,,,images/exp1a_trial_17_colour3_distractors43_r.png,r,2,031,001,2021-04-26_14h05.49.255,searchDisc4,2020.2.10,Win32,60,,,space,0.423215,2,1,0.73571,,0,49,49,17,1,1a,17,3,43,
,,,,,,,,,,,,,,,,,,,,,,,,,,images/exp2b_trial_65_colour2_distractors19_l.png,l,1,031,001,2021-04-26_14h05.49.255,searchDisc4,2020.2.10,Win32,60,,,space,0.39852,1,1,0.665115,,0,50,50,407,1,2b,65,2,19,
,,,,,,,,,,,,,,,,,,,,,,,,,,images/exp2a_trial_34_colour3_distractors31_l.png,l,1,031,001,2021-04-26_14h05.49.255,searchDisc4,2020.2.10,Win32,60,,,space,0.42486,1,1,0.591715,,0,51,51,262,1,2a,34,3,31,
,,,,,,,,,,,,,,,,,,,,,,,,,,images/exp2c_trial_95_colour1_distractors4_l.png,l,1,031,001,2021-04-26_14h05.49.255,searchDisc4,2020.2.10,Win32,60,,,space,0.430635,1,1,0.471895,,0,52,52,551,1,2c,95,1,4,
,,,,,,,,,,,,,,,,,,,,,,,,,,images/exp1a_trial_15_colour3_distractors19_r.png,r,2,031,001,2021-04-26_14h05.49.255,searchDisc4,2020.2.10,Win32,60,,,space,0.43898,2,1,0.5198,,0,53,53,15,1,1a,15,3,19,
,,,,,,,,,,,,,,,,,,,,,,,,,,images/exp2b_trial_95_colour1_distractors4_l.png,l,1,031,001,2021-04-26_14h05.49.255,searchDisc4,2020.2.10,Win32,60,,,space,0.42159,1,1,0.51104,,0,54,54,437,1,2b,95,1,4,
,,,,,,,,,,,,,,,,,,,,,,,,,,images/exp2b_trial_77_colour1_distractors4_r.png,r,2,031,001,2021-04-26_14h05.49.255,searchDisc4,2020.2.10,Win32,60,,,space,0.39924,2,1,0.488795,,0,55,55,419,1,2b,77,1,4,
,,,,,,,,,,,,,,,,,,,,,,,,,,images/exp2a_trial_108_colour3_distractors9_l.png,l,1,031,001,2021-04-26_14h05.49.255,searchDisc4,2020.2.10,Win32,60,,,space,0.614765,1,1,0.544695,,0,56,56,336,1,2a,108,3,9,
,,,,,,,,,,,,,,,,,,,,,,,,,,images/exp1b_trial_34_colour3_distractors31_l.png,l,1,031,001,2021-04-26_14h05.49.255,searchDisc4,2020.2.10,Win32,60,,,space,0.482765,1,1,0.53486,,0,57,57,148,1,1b,34,3,31,
,,,,,,,,,,,,,,,,,,,,,,,,,,images/exp1b_trial_32_colour3_distractors9_l.png,l,1,031,001,2021-04-26_14h05.49.255,searchDisc4,2020.2.10,Win32,60,,,space,0.507635,1,1,0.69771,,0,58,58,146,1,1b,32,3,9,
,,,,,,,,,,,,,,,,,,,,,,,,,,images/exp2c_trial_5_colour1_distractors43_r.png,r,2,031,001,2021-04-26_14h05.49.255,searchDisc4,2020.2.10,Win32,60,,,space,0.43323,2,1,0.762215,space,0,59,59,461,1,2c,5,1,43,3.70928
,,,,,,,,,,,,,,,,,,,,,,,,,,images/exp1b_trial_64_colour2_distractors9_l.png,l,1,031,001,2021-04-26_14h05.49.255,searchDisc4,2020.2.10,Win32,60,,,space,0.76982,1,1,0.778895,,0,60,60,178,1,1b,64,2,9,
,,,,,,,,,,,,,,,,,,,,,,,,,,images/exp1a_trial_98_colour1_distractors31_l.png,l,1,031,001,2021-04-26_14h05.49.255,searchDisc4,2020.2.10,Win32,60,,,space,0.39262,1,1,0.710325,,0,61,61,98,1,1a,98,1,31,
,,,,,,,,,,,,,,,,,,,,,,,,,,images/exp1a_trial_102_colour2_distractors9_l.png,l,1,031,001,2021-04-26_14h05.49.255,searchDisc4,2020.2.10,Win32,60,,,space,0.370065,1,1,0.702615,,0,62,62,102,1,1a,102,2,9,
,,,,,,,,,,,,,,,,,,,,,,,,,,images/exp1a_trial_72_colour3_distractors31_l.png,l,1,031,001,2021-04-26_14h05.49.255,searchDisc4,2020.2.10,Win32,60,,,space,0.508565,1,1,0.60195,,0,63,63,72,1,1a,72,3,31,
,,,,,,,,,,,,,,,,,,,,,,,,,,images/exp2a_trial_13_colour3_distractors4_r.png,r,2,031,001,2021-04-26_14h05.49.255,searchDisc4,2020.2.10,Win32,60,,,space,0.63728,2,1,0.67027,,0,64,64,241,1,2a,13,3,4,
,,,,,,,,,,,,,,,,,,,,,,,,,,images/exp2a_trial_25_colour2_distractors4_l.png,l,1,031,001,2021-04-26_14h05.49.255,searchDisc4,2020.2.10,Win32,60,,,space,0.50228,1,1,0.652485,,0,65,65,253,1,2a,25,2,4,
,,,,,,,,,,,,,,,,,,,,,,,,,,images/exp1a_trial_105_colour2_distractors43_l.png,l,1,031,001,2021-04-26_14h05.49.255,searchDisc4,2020.2.10,Win32,60,,,space,0.476935,1,1,0.60408,,0,66,66,105,1,1a,105,2,43,
,,,,,,,,,,,,,,,,,,,,,,,,,,images/exp2b_trial_68_colour3_distractors1_l.png,l,1,031,001,2021-04-26_14h05.49.255,searchDisc4,2020.2.10,Win32,60,,,space,0.51159,1,1,0.526,,0,67,67,410,1,2b,68,3,1,
,,,,,,,,,,,,,,,,,,,,,,,,,,images/exp2c_trial_55_colour3_distractors43_r.png,r,2,031,001,2021-04-26_14h05.49.255,searchDisc4,2020.2.10,Win32,60,,,space,0.540015,1,0,0.53398,,0,68,68,511,1,2c,55,3,43,
,,,,,,,,,,,,,,,,,,,,,,,,,,images/exp2b_trial_82_colour2_distractors1_r.png,r,2,031,001,2021-04-26_14h05.49.255,searchDisc4,2020.2.10,Win32,60,,,space,0.509265,2,1,0.5089,,0,69,69,424,1,2b,82,2,1,
,,,,,,,,,,,,,,,,,,,,,,,,,,images/exp1b_trial_1_colour1_distractors4_r.png,r,2,031,001,2021-04-26_14h05.49.255,searchDisc4,2020.2.10,Win32,60,,,space,0.52196,2,1,0.60887,,0,70,70,115,1,1b,1,1,4,
,,,,,,,,,,,,,,,,,,,,,,,,,,images/exp1b_trial_106_colour3_distractors1_l.png,l,1,031,001,2021-04-26_14h05.49.255,searchDisc4,2020.2.10,Win32,60,,,space,0.451425,1,1,0.963745,,0,71,71,220,1,1b,106,3,1,
,,,,,,,,,,,,,,,,,,,,,,,,,,images/exp1b_trial_66_colour2_distractors31_l.png,l,1,031,001,2021-04-26_14h05.49.255,searchDisc4,2020.2.10,Win32,60,,,space,0.38423,1,1,0.53952,,0,72,72,180,1,1b,66,2,31,
,,,,,,,,,,,,,,,,,,,,,,,,,,images/exp2b_trial_18_colour1_distractors1_l.png,l,1,031,001,2021-04-26_14h05.49.255,searchDisc4,2020.2.10,Win32,60,,,space,0.39987,1,1,0.45345,,0,73,73,360,1,2b,18,1,1,
,,,,,,,,,,,,,,,,,,,,,,,,,,images/exp1a_trial_95_colour1_distractors4_l.png,l,1,031,001,2021-04-26_14h05.49.255,searchDisc4,2020.2.10,Win32,60,,,space,0.467815,1,1,0.49757,,0,74,74,95,1,1a,95,1,4,
,,,,,,,,,,,,,,,,,,,,,,,,,,images/exp2b_trial_106_colour3_distractors1_l.png,l,1,031,001,2021-04-26_14h05.49.255,searchDisc4,2020.2.10,Win32,60,,,space,0.433465,1,1,0.49153,,0,75,75,448,1,2b,106,3,1,
,,,,,,,,,,,,,,,,,,,,,,,,,,images/exp1a_trial_70_colour3_distractors9_l.png,l,1,031,001,2021-04-26_14h05.49.255,searchDisc4,2020.2.10,Win32,60,,,space,0.47472,1,1,0.577,,0,76,76,70,1,1a,70,3,9,
,,,,,,,,,,,,,,,,,,,,,,,,,,images/exp1b_trial_30_colour3_distractors1_l.png,l,1,031,001,2021-04-26_14h05.49.255,searchDisc4,2020.2.10,Win32,60,,,space,0.3979,1,1,0.456985,,0,77,77,144,1,1b,30,3,1,
,,,,,,,,,,,,,,,,,,,,,,,,,,images/exp2b_trial_104_colour2_distractors31_l.png,l,1,031,001,2021-04-26_14h05.49.255,searchDisc4,2020.2.10,Win32,60,,,space,0.44957,1,1,0.64126,,0,78,78,446,1,2b,104,2,31,
,,,,,,,,,,,,,,,,,,,,,,,,,,images/exp1a_trial_83_colour2_distractors4_r.png,r,2,031,001,2021-04-26_14h05.49.255,searchDisc4,2020.2.10,Win32,60,,,space,0.4341,2,1,0.5191,,0,79,79,83,1,1a,83,2,4,
,,,,,,,,,,,,,,,,,,,,,,,,,,images/exp1a_trial_24_colour2_distractors1_l.png,l,1,031,001,2021-04-26_14h05.49.255,searchDisc4,2020.2.10,Win32,60,,,space,0.441555,1,1,0.636095,,0,80,80,24,1,1a,24,2,1,
,,,,,,,,,,,,,,,,,,,,,,,,,,images/exp1b_trial_10_colour2_distractors31_r.png,r,2,031,001,2021-04-26_14h05.49.255,searchDisc4,2020.2.10,Win32,60,,,space,0.452925,2,1,0.67587,,0,81,81,124,1,1b,10,2,31,
,,,,,,,,,,,,,,,,,,,,,,,,,,images/exp1b_trial_89_colour3_distractors4_r.png,r,2,031,001,2021-04-26_14h05.49.255,searchDisc4,2020.2.10,Win32,60,,,space,0.52466,2,1,0.826405,,0,82,82,203,1,1b,89,3,4,
,,,,,,,,,,,,,,,,,,,,,,,,,,images/exp2c_trial_18_colour1_distractors1_l.png,l,1,031,001,2021-04-26_14h05.49.255,searchDisc4,2020.2.10,Win32,60,,,space,0.3807,1,1,0.479145,,0,83,83,474,1,2c,18,1,1,
,,,,,,,,,,,,,,,,,,,,,,,,,,images/exp2a_trial_58_colour1_distractors9_l.png,l,1,031,001,2021-04-26_14h05.49.255,searchDisc4,2020.2.10,Win32,60,,,space,0.439835,1,1,0.543805,,0,84,84,286,1,2a,58,1,9,
,,,,,,,,,,,,,,,,,,,,,,,,,,images/exp2c_trial_111_colour3_distractors43_l.png,l,1,031,001,2021-04-26_14h05.49.255,searchDisc4,2020.2.10,Win32,60,,,space,0.47727,1,1,0.56488,,0,85,85,567,1,2c,111,3,43,
,,,,,,,,,,,,,,,,,,,,,,,,,,images/exp1a_trial_11_colour2_distractors43_r.png,r,2,031,001,2021-04-26_14h05.49.255,searchDisc4,2020.2.10,Win32,60,,,space,0.441275,2,1,0.562165,,0,86,86,11,1,1a,11,2,43,
,,,,,,,,,,,,,,,,,,,,,,,,,,images/exp1a_trial_69_colour3_distractors4_l.png,l,1,031,001,2021-04-26_14h05.49.255,searchDisc4,2020.2.10,Win32,60,,,space,0.40656,1,1,0.48131,,0,87,87,69,1,1a,69,3,4,
,,,,,,,,,,,,,,,,,,,,,,,,,,images/exp1a_trial_74_colour0_distractors0_r.png,r,2,031,001,2021-04-26_14h05.49.255,searchDisc4,2020.2.10,Win32,60,,,space,0.48915,2,1,0.512245,,0,88,88,74,1,1a,74,0,0,
,,,,,,,,,,,,,,,,,,,,,,,,,,images/exp2a_trial_2_colour1_distractors9_r.png,r,2,031,001,2021-04-26_14h05.49.255,searchDisc4,2020.2.10,Win32,60,,,space,0.43817,2,1,0.68847,,0,89,89,230,1,2a,2,1,9,
,,,,,,,,,,,,,,,,,,,,,,,,,,images/exp2c_trial_14_colour3_distractors9_r.png,r,2,031,001,2021-04-26_14h05.49.255,searchDisc4,2020.2.10,Win32,60,,,space,0.36702,2,1,0.672405,,0,90,90,470,1,2c,14,3,9,
,,,,,,,,,,,,,,,,,,,,,,,,,,images/exp1a_trial_0_colour1_distractors1_r.png,r,2,031,001,2021-04-26_14h05.49.255,searchDisc4,2020.2.10,Win32,60,,,space,0.394755,2,1,0.91014,,0,91,91,0,1,1a,0,1,1,
,,,,,,,,,,,,,,,,,,,,,,,,,,images/exp2b_trial_92_colour3_distractors31_r.png,r,2,031,001,2021-04-26_14h05.49.255,searchDisc4,2020.2.10,Win32,60,,,space,0.42844,2,1,0.493875,,0,92,92,434,1,2b,92,3,31,
,,,,,,,,,,,,,,,,,,,,,,,,,,images/exp2a_trial_73_colour3_distractors43_l.png,l,1,031,001,2021-04-26_14h05.49.255,searchDisc4,2020.2.10,Win32,60,,,space,0.485485,2,0,0.544715,,0,93,93,301,1,2a,73,3,43,
,,,,,,,,,,,,,,,,,,,,,,,,,,images/exp1b_trial_46_colour2_distractors9_r.png,r,2,031,001,2021-04-26_14h05.49.255,searchDisc4,2020.2.10,Win32,60,,,space,0.466275,2,1,0.59052,,0,94,94,160,1,1b,46,2,9,
,,,,,,,,,,,,,,,,,,,,,,,,,,images/exp2c_trial_59_colour1_distractors19_l.png,l,1,031,001,2021-04-26_14h05.49.255,searchDisc4,2020.2.10,Win32,60,,,space,0.381185,1,1,0.504515,,0,95,95,515,1,2c,59,1,19,
,,,,,,,,,,,,,,,,,,,,,,,,,,images/exp1a_trial_113_colour0_distractors0_l.png,l,1,031,001,2021-04-26_14h05.49.255,searchDisc4,2020.2.10,Win32,60,,,space,0.390825,1,1,0.497255,,0,96,96,113,1,1a,113,0,0,
,,,,,,,,,,,,,,,,,,,,,,,,,,images/exp1b_trial_71_colour3_distractors19_l.png,l,1,031,001,2021-04-26_14h05.49.255,searchDisc4,2020.2.10,Win32,60,,,space,0.45645,1,1,0.80925,,0,97,97,185,1,1b,71,3,19,
,,,,,,,,,,,,,,,,,,,,,,,,,,images/exp2b_trial_36_colour0_distractors0_r.png,r,2,031,001,2021-04-26_14h05.49.255,searchDisc4,2020.2.10,Win32,60,,,space,0.41194,2,1,0.41555,,0,98,98,378,1,2b,36,0,0,
,,,,,,,,,,,,,,,,,,,,,,,,,,images/exp2c_trial_40_colour1_distractors9_r.png,r,2,031,001,2021-04-26_14h05.49.255,searchDisc4,2020.2.10,Win32,60,,,space,0.432535,2,1,0.55353,,0,99,99,496,1,2c,40,1,9,
,,,,,,,,,,,,,,,,,,,,,,,,,,images/exp2c_trial_58_colour1_distractors9_l.png,l,1,031,001,2021-04-26_14h05.49.255,searchDisc4,2020.2.10,Win32,60,,,space,0.4494,1,1,0.469275,,0,100,100,514,1,2c,58,1,9,
,,,,,,,,,,,,,,,,,,,,,,,,,,images/exp1b_trial_50_colour3_distractors1_r.png,r,2,031,001,2021-04-26_14h05.49.255,searchDisc4,2020.2.10,Win32,60,,,space,0.438145,2,1,0.559505,,0,101,101,164,1,1b,50,3,1,
,,,,,,,,,,,,,,,,,,,,,,,,,,images/exp2a_trial_6_colour2_distractors1_r.png,r,2,031,001,2021-04-26_14h05.49.255,searchDisc4,2020.2.10,Win32,60,,,space,0.414065,2,1,0.437895,,0,102,102,234,1,2a,6,2,1,
,,,,,,,,,,,,,,,,,,,,,,,,,,images/exp2c_trial_16_colour3_distractors31_r.png,r,2,031,001,2021-04-26_14h05.49.255,searchDisc4,2020.2.10,Win32,60,,,space,0.454405,2,1,0.67911,,0,103,103,472,1,2c,16,3,31,
,,,,,,,,,,,,,,,,,,,,,,,,,,images/exp2c_trial_68_colour3_distractors1_l.png,l,1,031,001,2021-04-26_14h05.49.255,searchDisc4,2020.2.10,Win32,60,,,space,0.41502,1,1,0.472625,,0,104,104,524,1,2c,68,3,1,
,,,,,,,,,,,,,,,,,,,,,,,,,,images/exp2b_trial_43_colour1_distractors43_r.png,r,2,031,001,2021-04-26_14h05.49.255,searchDisc4,2020.2.10,Win32,60,,,space,0.440725,2,1,0.569175,,0,105,105,385,1,2b,43,1,43,
,,,,,,,,,,,,,,,,,,,,,,,,,,images/exp2b_trial_56_colour1_distractors1_l.png,l,1,031,001,2021-04-26_14h05.49.255,searchDisc4,2020.2.10,Win32,60,,,space,0.43791,1,1,0.405295,,0,106,106,398,1,2b,56,1,1,
,,,,,,,,,,,,,,,,,,,,,,,,,,images/exp2a_trial_37_colour0_distractors0_l.png,l,1,031,001,2021-04-26_14h05.49.255,searchDisc4,2020.2.10,Win32,60,,,space,0.449895,1,1,0.506195,,0,107,107,265,1,2a,37,0,0,
,,,,,,,,,,,,,,,,,,,,,,,,,,images/exp1b_trial_51_colour3_distractors4_r.png,r,2,031,001,2021-04-26_14h05.49.255,searchDisc4,2020.2.10,Win32,60,,,space,0.40805,2,1,0.40318,,0,108,108,165,1,1b,51,3,4,
,,,,,,,,,,,,,,,,,,,,,,,,,,images/exp2c_trial_47_colour2_distractors19_r.png,r,2,031,001,2021-04-26_14h05.49.255,searchDisc4,2020.2.10,Win32,60,,,space,0.421515,2,1,0.52786,,0,109,109,503,1,2c,47,2,19,
,,,,,,,,,,,,,,,,,,,,,,,,,,images/exp2c_trial_105_colour2_distractors43_l.png,l,1,031,001,2021-04-26_14h05.49.255,searchDisc4,2020.2.10,Win32,60,,,space,0.42176,1,1,0.68794,,0,110,110,561,1,2c,105,2,43,
,,,,,,,,,,,,,,,,,,,,,,,,,,images/exp1b_trial_102_colour2_distractors9_l.png,l,1,031,001,2021-04-26_14h05.49.255,searchDisc4,2020.2.10,Win32,60,,,space,0.469555,1,1,0.548495,,0,111,111,216,1,1b,102,2,9,
,,,,,,,,,,,,,,,,,,,,,,,,,,images/exp2a_trial_107_colour3_distractors4_l.png,l,1,031,001,2021-04-26_14h05.49.255,searchDisc4,2020.2.10,Win32,60,,,space,0.386675,1,1,0.445045,,0,112,112,335,1,2a,107,3,4,
,,,,,,,,,,,,,,,,,,,,,,,,,,images/exp2a_trial_93_colour3_distractors43_r.png,r,2,031,001,2021-04-26_14h05.49.255,searchDisc4,2020.2.10,Win32,60,,,space,0.43062,2,1,0.53265,,0,113,113,321,1,2a,93,3,43,
,,,,,,,,,,,,,,,,,,,,,,,,,,images/exp1b_trial_87_colour2_distractors43_r.png,r,2,031,001,2021-04-26_14h05.49.255,searchDisc4,2020.2.10,Win32,60,,,space,0.414425,2,1,0.536215,,0,114,114,201,1,1b,87,2,43,
,,,,,,,,,,,,,,,,,,,,,,,,,,images/exp2b_trial_57_colour1_distractors4_l.png,l,1,031,001,2021-04-26_14h05.49.255,searchDisc4,2020.2.10,Win32,60,,,space,0.420075,1,1,0.476265,,0,115,115,399,1,2b,57,1,4,
,,,,,,,,,,,,,,,,,,,,,,,,,,images/exp2b_trial_75_colour0_distractors0_l.png,l,1,031,001,2021-04-26_14h05.49.255,searchDisc4,2020.2.10,Win32,60,,,space,0.4377,1,1,0.41544,,0,116,116,417,1,2b,75,0,0,
,,,,,,,,,,,,,,,,,,,,,,,,,,images/exp2b_trial_9_colour2_distractors19_r.png,r,2,031,001,2021-04-26_14h05.49.255,searchDisc4,2020.2.10,Win32,60,,,space,0.417835,2,1,0.45971,,0,117,117,351,1,2b,9,2,19,
,,,,,,,,,,,,,,,,,,,,,,,,,,images/exp2b_trial_101_colour2_distractors4_l.png,l,1,031,001,2021-04-26_14h05.49.255,searchDisc4,2020.2.10,Win32,60,,,space,0.404195,1,1,0.463215,,0,118,118,443,1,2b,101,2,4,
,,,,,,,,,,,,,,,,,,,,,,,,,,images/exp1b_trial_13_colour3_distractors4_r.png,r,2,031,001,2021-04-26_14h05.49.255,searchDisc4,2020.2.10,Win32,60,,,space,0.431245,2,1,0.447475,space,0,119,119,127,1,1b,13,3,4,1.34856
,,,,,,,,,,,,,,,,,,,,,,,,,,images/exp2b_trial_30_colour3_distractors1_l.png,l,1,031,001,2021-04-26_14h05.49.255,searchDisc4,2020.2.10,Win32,60,,,space,0.731945,2,0,0.459255,,0,120,120,372,1,2b,30,3,1,
,,,,,,,,,,,,,,,,,,,,,,,,,,images/exp2b_trial_23_colour1_distractors43_l.png,l,1,031,001,2021-04-26_14h05.49.255,searchDisc4,2020.2.10,Win32,60,,,space,0.95265,2,0,0.77916,,0,121,121,365,1,2b,23,1,43,
,,,,,,,,,,,,,,,,,,,,,,,,,,images/exp2b_trial_52_colour3_distractors9_r.png,r,2,031,001,2021-04-26_14h05.49.255,searchDisc4,2020.2.10,Win32,60,,,space,1.100085,2,1,0.702855,,0,122,122,394,1,2b,52,3,9,
,,,,,,,,,,,,,,,,,,,,,,,,,,images/exp1b_trial_52_colour3_distractors9_r.png,r,2,031,001,2021-04-26_14h05.49.255,searchDisc4,2020.2.10,Win32,60,,,space,0.501355,2,1,0.873705,,0,123,123,166,1,1b,52,3,9,
,,,,,,,,,,,,,,,,,,,,,,,,,,images/exp1b_trial_35_colour3_distractors43_l.png,l,1,031,001,2021-04-26_14h05.49.255,searchDisc4,2020.2.10,Win32,60,,,space,0.60282,1,1,1.181115,,0,124,124,149,1,1b,35,3,43,
,,,,,,,,,,,,,,,,,,,,,,,,,,images/exp1b_trial_25_colour2_distractors4_l.png,l,1,031,001,2021-04-26_14h05.49.255,searchDisc4,2020.2.10,Win32,60,,,space,0.504825,1,1,0.753335,,0,125,125,139,1,1b,25,2,4,
,,,,,,,,,,,,,,,,,,,,,,,,,,images/exp2c_trial_106_colour3_distractors1_l.png,l,1,031,001,2021-04-26_14h05.49.255,searchDisc4,2020.2.10,Win32,60,,,space,0.435365,1,1,0.709715,,0,126,126,562,1,2c,106,3,1,
,,,,,,,,,,,,,,,,,,,,,,,,,,images/exp2a_trial_67_colour2_distractors43_l.png,l,1,031,001,2021-04-26_14h05.49.255,searchDisc4,2020.2.10,Win32,60,,,space,0.507055,1,1,0.59982,,0,127,127,295,1,2a,67,2,43,
,,,,,,,,,,,,,,,,,,,,,,,,,,images/exp2c_trial_77_colour1_distractors4_r.png,r,2,031,001,2021-04-26_14h05.49.255,searchDisc4,2020.2.10,Win32,60,,,space,0.588225,2,1,0.527595,,0,128,128,533,1,2c,77,1,4,
,,,,,,,,,,,,,,,,,,,,,,,,,,images/exp2a_trial_79_colour1_distractors19_r.png,r,2,031,001,2021-04-26_14h05.49.255,searchDisc4,2020.2.10,Win32,60,,,space,0.437455,2,1,0.59014,,0,129,129,307,1,2a,79,1,19,
,,,,,,,,,,,,,,,,,,,,,,,,,,images/exp1b_trial_4_colour1_distractors31_r.png,r,2,031,001,2021-04-26_14h05.49.255,searchDisc4,2020.2.10,Win32,60,,,space,0.44965,2,1,0.50522,,0,130,130,118,1,1b,4,1,31,
,,,,,,,,,,,,,,,,,,,,,,,,,,images/exp2c_trial_108_colour3_distractors9_l.png,l,1,031,001,2021-04-26_14h05.49.255,searchDisc4,2020.2.10,Win32,60,,,space,0.516975,1,1,0.754945,,0,131,131,564,1,2c,108,3,9,
,,,,,,,,,,,,,,,,,,,,,,,,,,images/exp2a_trial_106_colour3_distractors1_l.png,l,1,031,001,2021-04-26_14h05.49.255,searchDisc4,2020.2.10,Win32,60,,,space,0.458875,1,1,0.55568,,0,132,132,334,1,2a,106,3,1,
,,,,,,,,,,,,,,,,,,,,,,,,,,images/exp2c_trial_82_colour2_distractors1_r.png,r,2,031,001,2021-04-26_14h05.49.255,searchDisc4,2020.2.10,Win32,60,,,space,0.448855,2,1,0.60779,,0,133,133,538,1,2c,82,2,1,
,,,,,,,,,,,,,,,,,,,,,,,,,,images/exp2a_trial_86_colour2_distractors31_r.png,r,2,031,001,2021-04-26_14h05.49.255,searchDisc4,2020.2.10,Win32,60,,,space,0.41922,2,1,0.52305,,0,134,134,314,1,2a,86,2,31,
,,,,,,,,,,,,,,,,,,,,,,,,,,images/exp2c_trial_89_colour3_distractors4_r.png,r,2,031,001,2021-04-26_14h05.49.255,searchDisc4,2020.2.10,Win32,60,,,space,0.475,2,1,0.578995,,0,135,135,545,1,2c,89,3,4,
,,,,,,,,,,,,,,,,,,,,,,,,,,images/exp2a_trial_110_colour3_distractors31_l.png,l,1,031,001,2021-04-26_14h05.49.255,searchDisc4,2020.2.10,Win32,60,,,space,0.43931,1,1,0.652745,,0,136,136,338,1,2a,110,3,31,
,,,,,,,,,,,,,,,,,,,,,,,,,,images/exp2c_trial_88_colour3_distractors1_r.png,r,2,031,001,2021-04-26_14h05.49.255,searchDisc4,2020.2.10,Win32,60,,,space,0.400345,1,0,0.570955,,0,137,137,544,1,2c,88,3,1,
,,,,,,,,,,,,,,,,,,,,,,,,,,images/exp2a_trial_91_colour3_distractors19_r.png,r,2,031,001,2021-04-26_14h05.49.255,searchDisc4,2020.2.10,Win32,60,,,space,0.40634,2,1,0.514315,,0,138,138,319,1,2a,91,3,19,
,,,,,,,,,,,,,,,,,,,,,,,,,,images/exp1b_trial_61_colour1_distractors43_l.png,l,1,031,001,2021-04-26_14h05.49.255,searchDisc4,2020.2.10,Win32,60,,,space,0.49489,1,1,0.88316,,0,139,139,175,1,1b,61,1,43,
,,,,,,,,,,,,,,,,,,,,,,,,,,images/exp2b_trial_85_colour2_distractors19_r.png,r,2,031,001,2021-04-26_14h05.49.255,searchDisc4,2020.2.10,Win32,60,,,space,0.317255,2,1,0.53831,,0,140,140,427,1,2b,85,2,19,
,,,,,,,,,,,,,,,,,,,,,,,,,,images/exp1b_trial_2_colour1_distractors9_r.png,r,2,031,001,2021-04-26_14h05.49.255,searchDisc4,2020.2.10,Win32,60,,,space,0.343805,2,1,0.50697,,0,141,141,116,1,1b,2,1,9,
,,,,,,,,,,,,,,,,,,,,,,,,,,images/exp2a_trial_33_colour3_distractors19_l.png,l,1,031,001,2021-04-26_14h05.49.255,searchDisc4,2020.2.10,Win32,60,,,space,0.275445,1,1,0.484925,,0,142,142,261,1,2a,33,3,19,
,,,,,,,,,,,,,,,,,,,,,,,,,,images/exp2a_trial_77_colour1_distractors4_r.png,r,2,031,001,2021-04-26_14h05.49.255,searchDisc4,2020.2.10,Win32,60,,,space,0.307225,2,1,0.585215,,0,143,143,305,1,2a,77,1,4,
,,,,,,,,,,,,,,,,,,,,,,,,,,images/exp2c_trial_102_colour2_distractors9_l.png,l,1,031,001,2021-04-26_14h05.49.255,searchDisc4,2020.2.10,Win32,60,,,space,0.28473,1,1,0.56407,,0,144,144,558,1,2c,102,2,9,
,,,,,,,,,,,,,,,,,,,,,,,,,,images/exp2b_trial_79_colour1_distractors19_r.png,r,2,031,001,2021-04-26_14h05.49.255,searchDisc4,2020.2.10,Win32,60,,,space,0.328555,2,1,0.509865,,0,145,145,421,1,2b,79,1,19,
,,,,,,,,,,,,,,,,,,,,,,,,,,images/exp2c_trial_97_colour1_distractors19_l.png,l,1,031,001,2021-04-26_14h05.49.255,searchDisc4,2020.2.10,Win32,60,,,space,0.27774,1,1,0.764775,,0,146,146,553,1,2c,97,1,19,
,,,,,,,,,,,,,,,,,,,,,,,,,,images/exp2b_trial_42_colour1_distractors31_r.png,r,2,031,001,2021-04-26_14h05.49.255,searchDisc4,2020.2.10,Win32,60,,,space,0.26509,2,1,1.13592,,0,147,147,384,1,2b,42,1,31,
,,,,,,,,,,,,,,,,,,,,,,,,,,images/exp1a_trial_56_colour1_distractors1_l.png,l,1,031,001,2021-04-26_14h05.49.255,searchDisc4,2020.2.10,Win32,60,,,space,0.285975,1,1,0.591325,,0,148,148,56,1,1a,56,1,1,
,,,,,,,,,,,,,,,,,,,,,,,,,,images/exp2b_trial_61_colour1_distractors43_l.png,l,1,031,001,2021-04-26_14h05.49.255,searchDisc4,2020.2.10,Win32,60,,,space,0.55255,1,1,0.636075,,0,149,149,403,1,2b,61,1,43,
,,,,,,,,,,,,,,,,,,,,,,,,,,images/exp1a_trial_16_colour3_distractors31_r.png,r,2,031,001,2021-04-26_14h05.49.255,searchDisc4,2020.2.10,Win32,60,,,space,0.39873,2,1,0.55878,,0,150,150,16,1,1a,16,3,31,
,,,,,,,,,,,,,,,,,,,,,,,,,,images/exp2a_trial_99_colour1_distractors43_l.png,l,1,031,001,2021-04-26_14h05.49.255,searchDisc4,2020.2.10,Win32,60,,,space,0.436925,1,1,0.62049,,0,151,151,327,1,2a,99,1,43,
,,,,,,,,,,,,,,,,,,,,,,,,,,images/exp2a_trial_94_colour1_distractors1_l.png,l,1,031,001,2021-04-26_14h05.49.255,searchDisc4,2020.2.10,Win32,60,,,space,0.3992,1,1,0.394445,,0,152,152,322,1,2a,94,1,1,
,,,,,,,,,,,,,,,,,,,,,,,,,,images/exp2c_trial_3_colour1_distractors19_r.png,r,2,031,001,2021-04-26_14h05.49.255,searchDisc4,2020.2.10,Win32,60,,,space,0.469745,2,1,0.549195,,0,153,153,459,1,2c,3,1,19,
,,,,,,,,,,,,,,,,,,,,,,,,,,images/exp1b_trial_112_colour0_distractors0_r.png,r,2,031,001,2021-04-26_14h05.49.255,searchDisc4,2020.2.10,Win32,60,,,space,0.474345,2,1,0.60358,,0,154,154,226,1,1b,112,0,0,
,,,,,,,,,,,,,,,,,,,,,,,,,,images/exp2a_trial_100_colour2_distractors1_l.png,l,1,031,001,2021-04-26_14h05.49.255,searchDisc4,2020.2.10,Win32,60,,,space,0.404905,1,1,0.423655,,0,155,155,328,1,2a,100,2,1,
,,,,,,,,,,,,,,,,,,,,,,,,,,images/exp1a_trial_63_colour2_distractors4_l.png,l,1,031,001,2021-04-26_14h05.49.255,searchDisc4,2020.2.10,Win32,60,,,space,0.426095,2,0,0.555515,,0,156,156,63,1,1a,63,2,4,
,,,,,,,,,,,,,,,,,,,,,,,,,,images/exp2c_trial_49_colour2_distractors43_r.png,r,2,031,001,2021-04-26_14h05.49.255,searchDisc4,2020.2.10,Win32,60,,,space,0.559605,2,1,0.5077,,0,157,157,505,1,2c,49,2,43,
,,,,,,,,,,,,,,,,,,,,,,,,,,images/exp2c_trial_44_colour2_distractors1_r.png,r,2,031,001,2021-04-26_14h05.49.255,searchDisc4,2020.2.10,Win32,60,,,space,0.355005,2,1,0.59996,,0,158,158,500,1,2c,44,2,1,
,,,,,,,,,,,,,,,,,,,,,,,,,,images/exp1a_trial_19_colour1_distractors4_l.png,l,1,031,001,2021-04-26_14h05.49.255,searchDisc4,2020.2.10,Win32,60,,,space,0.330675,2,0,0.455085,,0,159,159,19,1,1a,19,1,4,
,,,,,,,,,,,,,,,,,,,,,,,,,,images/exp1b_trial_79_colour1_distractors19_r.png,r,2,031,001,2021-04-26_14h05.49.255,searchDisc4,2020.2.10,Win32,60,,,space,0.3595,2,1,0.70275,,0,160,160,193,1,1b,79,1,19,
,,,,,,,,,,,,,,,,,,,,,,,,,,images/exp2a_trial_111_colour3_distractors43_l.png,l,1,031,001,2021-04-26_14h05.49.255,searchDisc4,2020.2.10,Win32,60,,,space,0.32164,1,1,0.438975,,0,161,161,339,1,2a,111,3,43,
,,,,,,,,,,,,,,,,,,,,,,,,,,images/exp2c_trial_92_colour3_distractors31_r.png,r,2,031,001,2021-04-26_14h05.49.255,searchDisc4,2020.2.10,Win32,60,,,space,0.369505,2,1,0.6288,,0,162,162,548,1,2c,92,3,31,
,,,,,,,,,,,,,,,,,,,,,,,,,,images/exp2c_trial_31_colour3_distractors4_l.png,l,1,031,001,2021-04-26_14h05.49.255,searchDisc4,2020.2.10,Win32,60,,,space,0.32739,1,1,0.44492,,0,163,163,487,1,2c,31,3,4,
,,,,,,,,,,,,,,,,,,,,,,,,,,images/exp2c_trial_113_colour0_distractors0_l.png,l,1,031,001,2021-04-26_14h05.49.255,searchDisc4,2020.2.10,Win32,60,,,space,0.31839,1,1,0.48747,,0,164,164,569,1,2c,113,0,0,
,,,,,,,,,,,,,,,,,,,,,,,,,,images/exp2b_trial_112_colour0_distractors0_r.png,r,2,031,001,2021-04-26_14h05.49.255,searchDisc4,2020.2.10,Win32,60,,,space,0.32306,2,1,0.58981,,0,165,165,454,1,2b,112,0,0,
,,,,,,,,,,,,,,,,,,,,,,,,,,images/exp2a_trial_42_colour1_distractors31_r.png,r,2,031,001,2021-04-26_14h05.49.255,searchDisc4,2020.2.10,Win32,60,,,space,0.300555,2,1,0.83531,,0,166,166,270,1,2a,42,1,31,
,,,,,,,,,,,,,,,,,,,,,,,,,,images/exp1a_trial_109_colour3_distractors19_l.png,l,1,031,001,2021-04-26_14h05.49.255,searchDisc4,2020.2.10,Win32,60,,,space,0.340185,1,1,0.648295,,0,167,167,109,1,1a,109,3,19,
,,,,,,,,,,,,,,,,,,,,,,,,,,images/exp1b_trial_110_colour3_distractors31_l.png,l,1,031,001,2021-04-26_14h05.49.255,searchDisc4,2020.2.10,Win32,60,,,space,0.35437,1,1,1.390005,,0,168,168,224,1,1b,110,3,31,
,,,,,,,,,,,,,,,,,,,,,,,,,,images/exp1a_trial_41_colour1_distractors19_r.png,r,2,031,001,2021-04-26_14h05.49.255,searchDisc4,2020.2.10,Win32,60,,,space,0.51531,2,1,0.55178,,0,169,169,41,1,1a,41,1,19,
,,,,,,,,,,,,,,,,,,,,,,,,,,images/exp1b_trial_86_colour2_distractors31_r.png,r,2,031,001,2021-04-26_14h05.49.255,searchDisc4,2020.2.10,Win32,60,,,space,0.42045,2,1,0.81361,,0,170,170,200,1,1b,86,2,31,
,,,,,,,,,,,,,,,,,,,,,,,,,,images/exp1b_trial_74_colour0_distractors0_r.png,r,2,031,001,2021-04-26_14h05.49.255,searchDisc4,2020.2.10,Win32,60,,,space,0.656075,2,1,0.5445,,0,171,171,188,1,1b,74,0,0,
,,,,,,,,,,,,,,,,,,,,,,,,,,images/exp1a_trial_25_colour2_distractors4_l.png,l,1,031,001,2021-04-26_14h05.49.255,searchDisc4,2020.2.10,Win32,60,,,space,0.431175,1,1,0.527295,,0,172,172,25,1,1a,25,2,4,
,,,,,,,,,,,,,,,,,,,,,,,,,,images/exp1a_trial_88_colour3_distractors1_r.png,r,2,031,001,2021-04-26_14h05.49.255,searchDisc4,2020.2.10,Win32,60,,,space,0.36507,2,1,0.513505,,0,173,173,88,1,1a,88,3,1,
,,,,,,,,,,,,,,,,,,,,,,,,,,images/exp2b_trial_86_colour2_distractors31_r.png,r,2,031,001,2021-04-26_14h05.49.255,searchDisc4,2020.2.10,Win32,60,,,space,0.44845,2,1,0.599515,,0,174,174,428,1,2b,86,2,31,
,,,,,,,,,,,,,,,,,,,,,,,,,,images/exp2c_trial_110_colour3_distractors31_l.png,l,1,031,001,2021-04-26_14h05.49.255,searchDisc4,2020.2.10,Win32,60,,,space,0.499645,1,1,0.586005,,0,175,175,566,1,2c,110,3,31,
,,,,,,,,,,,,,,,,,,,,,,,,,,images/exp1a_trial_1_colour1_distractors4_r.png,r,2,031,001,2021-04-26_14h05.49.255,searchDisc4,2020.2.10,Win32,60,,,space,0.540475,2,1,0.837675,,0,176,176,1,1,1a,1,1,4,
,,,,,,,,,,,,,,,,,,,,,,,,,,images/exp1b_trial_33_colour3_distractors19_l.png,l,1,031,001,2021-04-26_14h05.49.255,searchDisc4,2020.2.10,Win32,60,,,space,0.38306,1,1,0.735685,,0,177,177,147,1,1b,33,3,19,
,,,,,,,,,,,,,,,,,,,,,,,,,,images/exp1a_trial_37_colour0_distractors0_l.png,l,1,031,001,2021-04-26_14h05.49.255,searchDisc4,2020.2.10,Win32,60,,,space,0.39922,1,1,0.580515,,0,178,178,37,1,1a,37,0,0,
,,,,,,,,,,,,,,,,,,,,,,,,,,images/exp2a_trial_18_colour1_distractors1_l.png,l,1,031,001,2021-04-26_14h05.49.255,searchDisc4,2020.2.10,Win32,60,,,space,0.316095,1,1,0.52182,space,0,179,179,246,1,2a,18,1,1,7.04399
,,,,,,,,,,,,,,,,,,,,,,,,,,images/exp1a_trial_64_colour2_distractors9_l.png,l,1,031,001,2021-04-26_14h05.49.255,searchDisc4,2020.2.10,Win32,60,,,space,1.41007,1,1,0.60898,,0,180,180,64,1,1a,64,2,9,
,,,,,,,,,,,,,,,,,,,,,,,,,,images/exp2a_trial_54_colour3_distractors31_r.png,r,2,031,001,2021-04-26_14h05.49.255,searchDisc4,2020.2.10,Win32,60,,,space,0.40616,2,1,0.43106,,0,181,181,282,1,2a,54,3,31,
,,,,,,,,,,,,,,,,,,,,,,,,,,images/exp2c_trial_83_colour2_distractors4_r.png,r,2,031,001,2021-04-26_14h05.49.255,searchDisc4,2020.2.10,Win32,60,,,space,0.449465,2,1,0.45835,,0,182,182,539,1,2c,83,2,4,
,,,,,,,,,,,,,,,,,,,,,,,,,,images/exp1b_trial_43_colour1_distractors43_r.png,r,2,031,001,2021-04-26_14h05.49.255,searchDisc4,2020.2.10,Win32,60,,,space,0.35421,2,1,1.037625,,0,183,183,157,1,1b,43,1,43,
,,,,,,,,,,,,,,,,,,,,,,,,,,images/exp2a_trial_27_colour2_distractors19_l.png,l,1,031,001,2021-04-26_14h05.49.255,searchDisc4,2020.2.10,Win32,60,,,space,0.343675,1,1,0.491745,,0,184,184,255,1,2a,27,2,19,
,,,,,,,,,,,,,,,,,,,,,,,,,,images/exp1a_trial_79_colour1_distractors19_r.png,r,2,031,001,2021-04-26_14h05.49.255,searchDisc4,2020.2.10,Win32,60,,,space,0.324965,2,1,0.712795,,0,185,185,79,1,1a,79,1,19,
,,,,,,,,,,,,,,,,,,,,,,,,,,images/exp1b_trial_113_colour0_distractors0_l.png,l,1,031,001,2021-04-26_14h05.49.255,searchDisc4,2020.2.10,Win32,60,,,space,0.287845,1,1,0.39238,,0,186,186,227,1,1b,113,0,0,
,,,,,,,,,,,,,,,,,,,,,,,,,,images/exp1b_trial_45_colour2_distractors4_r.png,r,2,031,001,2021-04-26_14h05.49.255,searchDisc4,2020.2.10,Win32,60,,,space,0.355195,2,1,0.470235,,0,187,187,159,1,1b,45,2,4,
,,,,,,,,,,,,,,,,,,,,,,,,,,images/exp1b_trial_49_colour2_distractors43_r.png,r,2,031,001,2021-04-26_14h05.49.255,searchDisc4,2020.2.10,Win32,60,,,space,0.304265,2,1,0.62081,,0,188,188,163,1,1b,49,2,43,
,,,,,,,,,,,,,,,,,,,,,,,,,,images/exp2b_trial_27_colour2_distractors19_l.png,l,1,031,001,2021-04-26_14h05.49.255,searchDisc4,2020.2.10,Win32,60,,,space,0.287425,1,1,0.782965,,0,189,189,369,1,2b,27,2,19,
,,,,,,,,,,,,,,,,,,,,,,,,,,images/exp2c_trial_35_colour3_distractors43_l.png,l,1,031,001,2021-04-26_14h05.49.255,searchDisc4,2020.2.10,Win32,60,,,space,0.19737,1,1,0.64436,,0,190,190,491,1,2c,35,3,43,
,,,,,,,,,,,,,,,,,,,,,,,,,,images/exp1a_trial_27_colour2_distractors19_l.png,l,1,031,001,2021-04-26_14h05.49.255,searchDisc4,2020.2.10,Win32,60,,,space,0.366645,1,1,0.905215,,0,191,191,27,1,1a,27,2,19,
,,,,,,,,,,,,,,,,,,,,,,,,,,images/exp1b_trial_56_colour1_distractors1_l.png,l,1,031,001,2021-04-26_14h05.49.255,searchDisc4,2020.2.10,Win32,60,,,space,0.433115,1,1,0.50437,,0,192,192,170,1,1b,56,1,1,
,,,,,,,,,,,,,,,,,,,,,,,,,,images/exp2b_trial_0_colour1_distractors1_r.png,r,2,031,001,2021-04-26_14h05.49.255,searchDisc4,2020.2.10,Win32,60,,,space,0.33174,2,1,0.54204,,0,193,193,342,1,2b,0,1,1,
,,,,,,,,,,,,,,,,,,,,,,,,,,images/exp2c_trial_79_colour1_distractors19_r.png,r,2,031,001,2021-04-26_14h05.49.255,searchDisc4,2020.2.10,Win32,60,,,space,0.37106,2,1,0.51123,,0,194,194,535,1,2c,79,1,19,
,,,,,,,,,,,,,,,,,,,,,,,,,,images/exp2a_trial_60_colour1_distractors31_l.png,l,1,031,001,2021-04-26_14h05.49.255,searchDisc4,2020.2.10,Win32,60,,,space,0.501565,1,1,0.668445,,0,195,195,288,1,2a,60,1,31,
,,,,,,,,,,,,,,,,,,,,,,,,,,images/exp1a_trial_12_colour3_distractors1_r.png,r,2,031,001,2021-04-26_14h05.49.255,searchDisc4,2020.2.10,Win32,60,,,space,0.3481,2,1,0.45157,,0,196,196,12,1,1a,12,3,1,
,,,,,,,,,,,,,,,,,,,,,,,,,,images/exp1b_trial_44_colour2_distractors1_r.png,r,2,031,001,2021-04-26_14h05.49.255,searchDisc4,2020.2.10,Win32,60,,,space,0.408605,2,1,0.47325,,0,197,197,158,1,1b,44,2,1,
,,,,,,,,,,,,,,,,,,,,,,,,,,images/exp2b_trial_17_colour3_distractors43_r.png,r,2,031,001,2021-04-26_14h05.49.255,searchDisc4,2020.2.10,Win32,60,,,space,0.523705,2,1,0.567175,,0,198,198,359,1,2b,17,3,43,
,,,,,,,,,,,,,,,,,,,,,,,,,,images/exp1a_trial_44_colour2_distractors1_r.png,r,2,031,001,2021-04-26_14h05.49.255,searchDisc4,2020.2.10,Win32,60,,,space,0.356825,2,1,0.55303,,0,199,199,44,1,1a,44,2,1,
,,,,,,,,,,,,,,,,,,,,,,,,,,images/exp1a_trial_13_colour3_distractors4_r.png,r,2,031,001,2021-04-26_14h05.49.255,searchDisc4,2020.2.10,Win32,60,,,space,0.46379,2,1,0.453545,,0,200,200,13,1,1a,13,3,4,
,,,,,,,,,,,,,,,,,,,,,,,,,,images/exp1b_trial_77_colour1_distractors4_r.png,r,2,031,001,2021-04-26_14h05.49.255,searchDisc4,2020.2.10,Win32,60,,,space,0.448185,2,1,0.40591,,0,201,201,191,1,1b,77,1,4,
,,,,,,,,,,,,,,,,,,,,,,,,,,images/exp2c_trial_60_colour1_distractors31_l.png,l,1,031,001,2021-04-26_14h05.49.255,searchDisc4,2020.2.10,Win32,60,,,space,0.42471,1,1,0.539135,,0,202,202,516,1,2c,60,1,31,
,,,,,,,,,,,,,,,,,,,,,,,,,,images/exp2b_trial_11_colour2_distractors43_r.png,r,2,031,001,2021-04-26_14h05.49.255,searchDisc4,2020.2.10,Win32,60,,,space,0.376285,2,1,0.557015,,0,203,203,353,1,2b,11,2,43,
,,,,,,,,,,,,,,,,,,,,,,,,,,images/exp1a_trial_104_colour2_distractors31_l.png,l,1,031,001,2021-04-26_14h05.49.255,searchDisc4,2020.2.10,Win32,60,,,space,0.505085,1,1,0.78238,,0,204,204,104,1,1a,104,2,31,
,,,,,,,,,,,,,,,,,,,,,,,,,,images/exp2c_trial_42_colour1_distractors31_r.png,r,2,031,001,2021-04-26_14h05.49.255,searchDisc4,2020.2.10,Win32,60,,,space,0.538675,2,1,0.463905,,0,205,205,498,1,2c,42,1,31,
,,,,,,,,,,,,,,,,,,,,,,,,,,images/exp2c_trial_46_colour2_distractors9_r.png,r,2,031,001,2021-04-26_14h05.49.255,searchDisc4,2020.2.10,Win32,60,,,space,0.48098,2,1,0.647285,,0,206,206,502,1,2c,46,2,9,
,,,,,,,,,,,,,,,,,,,,,,,,,,images/exp2c_trial_66_colour2_distractors31_l.png,l,1,031,001,2021-04-26_14h05.49.255,searchDisc4,2020.2.10,Win32,60,,,space,0.656525,1,1,0.54594,,0,207,207,522,1,2c,66,2,31,
,,,,,,,,,,,,,,,,,,,,,,,,,,images/exp2b_trial_1_colour1_distractors4_r.png,r,2,031,001,2021-04-26_14h05.49.255,searchDisc4,2020.2.10,Win32,60,,,space,0.4706,2,1,0.503135,,0,208,208,343,1,2b,1,1,4,
,,,,,,,,,,,,,,,,,,,,,,,,,,images/exp2a_trial_1_colour1_distractors4_r.png,r,2,031,001,2021-04-26_14h05.49.255,searchDisc4,2020.2.10,Win32,60,,,space,0.38873,2,1,0.431715,,0,209,209,229,1,2a,1,1,4,
,,,,,,,,,,,,,,,,,,,,,,,,,,images/exp2c_trial_109_colour3_distractors19_l.png,l,1,031,001,2021-04-26_14h05.49.255,searchDisc4,2020.2.10,Win32,60,,,space,0.4016,2,0,0.62024,,0,210,210,565,1,2c,109,3,19,
,,,,,,,,,,,,,,,,,,,,,,,,,,images/exp1b_trial_96_colour1_distractors9_l.png,l,1,031,001,2021-04-26_14h05.49.255,searchDisc4,2020.2.10,Win32,60,,,space,0.790575,1,1,0.59294,,0,211,211,210,1,1b,96,1,9,
,,,,,,,,,,,,,,,,,,,,,,,,,,images/exp1a_trial_4_colour1_distractors31_r.png,r,2,031,001,2021-04-26_14h05.49.255,searchDisc4,2020.2.10,Win32,60,,,space,0.372335,2,1,0.557765,,0,212,212,4,1,1a,4,1,31,
,,,,,,,,,,,,,,,,,,,,,,,,,,images/exp1a_trial_92_colour3_distractors31_r.png,r,2,031,001,2021-04-26_14h05.49.255,searchDisc4,2020.2.10,Win32,60,,,space,0.46829,2,1,0.65805,,0,213,213,92,1,1a,92,3,31,
,,,,,,,,,,,,,,,,,,,,,,,,,,images/exp2c_trial_22_colour1_distractors31_l.png,l,1,031,001,2021-04-26_14h05.49.255,searchDisc4,2020.2.10,Win32,60,,,space,0.35751,1,1,0.673445,,0,214,214,478,1,2c,22,1,31,
,,,,,,,,,,,,,,,,,,,,,,,,,,images/exp1a_trial_10_colour2_distractors31_r.png,r,2,031,001,2021-04-26_14h05.49.255,searchDisc4,2020.2.10,Win32,60,,,space,0.40914,2,1,0.53046,,0,215,215,10,1,1a,10,2,31,
,,,,,,,,,,,,,,,,,,,,,,,,,,images/exp2c_trial_17_colour3_distractors43_r.png,r,2,031,001,2021-04-26_14h05.49.255,searchDisc4,2020.2.10,Win32,60,,,space,0.441715,1,0,0.440755,,0,216,216,473,1,2c,17,3,43,
,,,,,,,,,,,,,,,,,,,,,,,,,,images/exp2b_trial_67_colour2_distractors43_l.png,l,1,031,001,2021-04-26_14h05.49.255,searchDisc4,2020.2.10,Win32,60,,,space,0.73971,1,1,1.021865,,0,217,217,409,1,2b,67,2,43,
,,,,,,,,,,,,,,,,,,,,,,,,,,images/exp2b_trial_111_colour3_distractors43_l.png,l,1,031,001,2021-04-26_14h05.49.255,searchDisc4,2020.2.10,Win32,60,,,space,0.354445,1,1,0.586495,,0,218,218,453,1,2b,111,3,43,
,,,,,,,,,,,,,,,,,,,,,,,,,,images/exp1a_trial_107_colour3_distractors4_l.png,l,1,031,001,2021-04-26_14h05.49.255,searchDisc4,2020.2.10,Win32,60,,,space,0.386515,1,1,0.564995,,0,219,219,107,1,1a,107,3,4,
,,,,,,,,,,,,,,,,,,,,,,,,,,images/exp2b_trial_50_colour3_distractors1_r.png,r,2,031,001,2021-04-26_14h05.49.255,searchDisc4,2020.2.10,Win32,60,,,space,0.48251,2,1,0.76438,,0,220,220,392,1,2b,50,3,1,
,,,,,,,,,,,,,,,,,,,,,,,,,,images/exp2c_trial_100_colour2_distractors1_l.png,l,1,031,001,2021-04-26_14h05.49.255,searchDisc4,2020.2.10,Win32,60,,,space,0.388935,1,1,0.752865,,0,221,221,556,1,2c,100,2,1,
,,,,,,,,,,,,,,,,,,,,,,,,,,images/exp2c_trial_51_colour3_distractors4_r.png,r,2,031,001,2021-04-26_14h05.49.255,searchDisc4,2020.2.10,Win32,60,,,space,0.403735,2,1,0.616445,,0,222,222,507,1,2c,51,3,4,
,,,,,,,,,,,,,,,,,,,,,,,,,,images/exp2b_trial_32_colour3_distractors9_l.png,l,1,031,001,2021-04-26_14h05.49.255,searchDisc4,2020.2.10,Win32,60,,,space,0.409575,1,1,0.562815,,0,223,223,374,1,2b,32,3,9,
,,,,,,,,,,,,,,,,,,,,,,,,,,images/exp2c_trial_61_colour1_distractors43_l.png,l,1,031,001,2021-04-26_14h05.49.255,searchDisc4,2020.2.10,Win32,60,,,space,0.40132,1,1,0.51386,,0,224,224,517,1,2c,61,1,43,
,,,,,,,,,,,,,,,,,,,,,,,,,,images/exp1b_trial_108_colour3_distractors9_l.png,l,1,031,001,2021-04-26_14h05.49.255,searchDisc4,2020.2.10,Win32,60,,,space,0.417525,1,1,0.51538,,0,225,225,222,1,1b,108,3,9,
,,,,,,,,,,,,,,,,,,,,,,,,,,images/exp2b_trial_47_colour2_distractors19_r.png,r,2,031,001,2021-04-26_14h05.49.255,searchDisc4,2020.2.10,Win32,60,,,space,0.36582,2,1,0.477695,,0,226,226,389,1,2b,47,2,19,
,,,,,,,,,,,,,,,,,,,,,,,,,,images/exp2a_trial_56_colour1_distractors1_l.png,l,1,031,001,2021-04-26_14h05.49.255,searchDisc4,2020.2.10,Win32,60,,,space,0.35835,1,1,0.539085,,0,227,227,284,1,2a,56,1,1,
,,,,,,,,,,,,,,,,,,,,,,,,,,images/exp2c_trial_53_colour3_distractors19_r.png,r,2,031,001,2021-04-26_14h05.49.255,searchDisc4,2020.2.10,Win32,60,,,space,0.33563,2,1,0.653075,,0,228,228,509,1,2c,53,3,19,
,,,,,,,,,,,,,,,,,,,,,,,,,,images/exp2a_trial_45_colour2_distractors4_r.png,r,2,031,001,2021-04-26_14h05.49.255,searchDisc4,2020.2.10,Win32,60,,,space,0.38925,2,1,0.528015,,0,229,229,273,1,2a,45,2,4,
,,,,,,,,,,,,,,,,,,,,,,,,,,images/exp2c_trial_101_colour2_distractors4_l.png,l,1,031,001,2021-04-26_14h05.49.255,searchDisc4,2020.2.10,Win32,60,,,space,0.37486,1,1,0.746445,,0,230,230,557,1,2c,101,2,4,
,,,,,,,,,,,,,,,,,,,,,,,,,,images/exp2a_trial_64_colour2_distractors9_l.png,l,1,031,001,2021-04-26_14h05.49.255,searchDisc4,2020.2.10,Win32,60,,,space,0.343155,1,1,0.53975,,0,231,231,292,1,2a,64,2,9,
,,,,,,,,,,,,,,,,,,,,,,,,,,images/exp1a_trial_51_colour3_distractors4_r.png,r,2,031,001,2021-04-26_14h05.49.255,searchDisc4,2020.2.10,Win32,60,,,space,0.28205,2,1,0.518295,,0,232,232,51,1,1a,51,3,4,
,,,,,,,,,,,,,,,,,,,,,,,,,,images/exp1a_trial_50_colour3_distractors1_r.png,r,2,031,001,2021-04-26_14h05.49.255,searchDisc4,2020.2.10,Win32,60,,,space,0.264605,2,1,0.62103,,0,233,233,50,1,1a,50,3,1,
,,,,,,,,,,,,,,,,,,,,,,,,,,images/exp2b_trial_51_colour3_distractors4_r.png,r,2,031,001,2021-04-26_14h05.49.255,searchDisc4,2020.2.10,Win32,60,,,space,0.28072,2,1,0.52195,,0,234,234,393,1,2b,51,3,4,
,,,,,,,,,,,,,,,,,,,,,,,,,,images/exp2b_trial_22_colour1_distractors31_l.png,l,1,031,001,2021-04-26_14h05.49.255,searchDisc4,2020.2.10,Win32,60,,,space,0.23672,1,1,0.50681,,0,235,235,364,1,2b,22,1,31,
,,,,,,,,,,,,,,,,,,,,,,,,,,images/exp1b_trial_99_colour1_distractors43_l.png,l,1,031,001,2021-04-26_14h05.49.255,searchDisc4,2020.2.10,Win32,60,,,space,0.236245,1,1,0.852915,,0,236,236,213,1,1b,99,1,43,
,,,,,,,,,,,,,,,,,,,,,,,,,,images/exp1b_trial_82_colour2_distractors1_r.png,r,2,031,001,2021-04-26_14h05.49.255,searchDisc4,2020.2.10,Win32,60,,,space,0.264655,2,1,0.722105,,0,237,237,196,1,1b,82,2,1,
,,,,,,,,,,,,,,,,,,,,,,,,,,images/exp2a_trial_71_colour3_distractors19_l.png,l,1,031,001,2021-04-26_14h05.49.255,searchDisc4,2020.2.10,Win32,60,,,space,0.284645,1,1,0.49723,,0,238,238,299,1,2a,71,3,19,
,,,,,,,,,,,,,,,,,,,,,,,,,,images/exp2c_trial_63_colour2_distractors4_l.png,l,1,031,001,2021-04-26_14h05.49.255,searchDisc4,2020.2.10,Win32,60,,,space,0.25851,1,1,0.57881,space,0,239,239,519,1,2c,63,2,4,0.27028
,,,,,,,,,,,,,,,,,,,,,,,,,,images/exp2c_trial_76_colour1_distractors1_r.png,r,2,031,001,2021-04-26_14h05.49.255,searchDisc4,2020.2.10,Win32,60,,,space,0.549425,2,1,0.836805,,0,240,240,532,1,2c,76,1,1,
,,,,,,,,,,,,,,,,,,,,,,,,,,images/exp2b_trial_66_colour2_distractors31_l.png,l,1,031,001,2021-04-26_14h05.49.255,searchDisc4,2020.2.10,Win32,60,,,space,0.321835,1,1,0.52673,,0,241,241,408,1,2b,66,2,31,
,,,,,,,,,,,,,,,,,,,,,,,,,,images/exp2b_trial_103_colour2_distractors19_l.png,l,1,031,001,2021-04-26_14h05.49.255,searchDisc4,2020.2.10,Win32,60,,,space,0.2927,1,1,0.47572,,0,242,242,445,1,2b,103,2,19,
,,,,,,,,,,,,,,,,,,,,,,,,,,images/exp2c_trial_8_colour2_distractors9_r.png,r,2,031,001,2021-04-26_14h05.49.255,searchDisc4,2020.2.10,Win32,60,,,space,0.25153,2,1,0.722885,,0,243,243,464,1,2c,8,2,9,
,,,,,,,,,,,,,,,,,,,,,,,,,,images/exp1b_trial_36_colour0_distractors0_r.png,r,2,031,001,2021-04-26_14h05.49.255,searchDisc4,2020.2.10,Win32,60,,,space,0.25761,2,1,0.55431,,0,244,244,150,1,1b,36,0,0,
,,,,,,,,,,,,,,,,,,,,,,,,,,images/exp1a_trial_60_colour1_distractors31_l.png,l,1,031,001,2021-04-26_14h05.49.255,searchDisc4,2020.2.10,Win32,60,,,space,0.223475,1,1,0.49451,,0,245,245,60,1,1a,60,1,31,
,,,,,,,,,,,,,,,,,,,,,,,,,,images/exp2a_trial_63_colour2_distractors4_l.png,l,1,031,001,2021-04-26_14h05.49.255,searchDisc4,2020.2.10,Win32,60,,,space,0.28185,1,1,0.537315,,0,246,246,291,1,2a,63,2,4,
,,,,,,,,,,,,,,,,,,,,,,,,,,images/exp2c_trial_24_colour2_distractors1_l.png,l,1,031,001,2021-04-26_14h05.49.255,searchDisc4,2020.2.10,Win32,60,,,space,0.308305,1,1,0.499085,,0,247,247,480,1,2c,24,2,1,
,,,,,,,,,,,,,,,,,,,,,,,,,,images/exp2c_trial_65_colour2_distractors19_l.png,l,1,031,001,2021-04-26_14h05.49.255,searchDisc4,2020.2.10,Win32,60,,,space,0.273395,1,1,0.533405,,0,248,248,521,1,2c,65,2,19,
,,,,,,,,,,,,,,,,,,,,,,,,,,images/exp2a_trial_41_colour1_distractors19_r.png,r,2,031,001,2021-04-26_14h05.49.255,searchDisc4,2020.2.10,Win32,60,,,space,0.25544,2,1,0.743515,,0,249,249,269,1,2a,41,1,19,
,,,,,,,,,,,,,,,,,,,,,,,,,,images/exp2a_trial_78_colour1_distractors9_r.png,r,2,031,001,2021-04-26_14h05.49.255,searchDisc4,2020.2.10,Win32,60,,,space,0.230955,2,1,0.622605,,0,250,250,306,1,2a,78,1,9,
,,,,,,,,,,,,,,,,,,,,,,,,,,images/exp2b_trial_5_colour1_distractors43_r.png,r,2,031,001,2021-04-26_14h05.49.255,searchDisc4,2020.2.10,Win32,60,,,space,0.2247,2,1,0.528905,,0,251,251,347,1,2b,5,1,43,
,,,,,,,,,,,,,,,,,,,,,,,,,,images/exp1b_trial_107_colour3_distractors4_l.png,l,1,031,001,2021-04-26_14h05.49.255,searchDisc4,2020.2.10,Win32,60,,,space,0.255665,1,1,0.620995,,0,252,252,221,1,1b,107,3,4,
,,,,,,,,,,,,,,,,,,,,,,,,,,images/exp2c_trial_10_colour2_distractors31_r.png,r,2,031,001,2021-04-26_14h05.49.255,searchDisc4,2020.2.10,Win32,60,,,space,1.33089,2,1,0.45458,,0,253,253,466,1,2c,10,2,31,
,,,,,,,,,,,,,,,,,,,,,,,,,,images/exp2c_trial_72_colour3_distractors31_l.png,l,1,031,001,2021-04-26_14h05.49.255,searchDisc4,2020.2.10,Win32,60,,,space,0.36819,1,1,0.4881,,0,254,254,528,1,2c,72,3,31,
,,,,,,,,,,,,,,,,,,,,,,,,,,images/exp1a_trial_75_colour0_distractors0_l.png,l,1,031,001,2021-04-26_14h05.49.255,searchDisc4,2020.2.10,Win32,60,,,space,0.35496,1,1,0.50484,,0,255,255,75,1,1a,75,0,0,
,,,,,,,,,,,,,,,,,,,,,,,,,,images/exp2b_trial_73_colour3_distractors43_l.png,l,1,031,001,2021-04-26_14h05.49.255,searchDisc4,2020.2.10,Win32,60,,,space,0.454155,1,1,0.535885,,0,256,256,415,1,2b,73,3,43,
,,,,,,,,,,,,,,,,,,,,,,,,,,images/exp2b_trial_62_colour2_distractors1_l.png,l,1,031,001,2021-04-26_14h05.49.255,searchDisc4,2020.2.10,Win32,60,,,space,0.4162,2,0,0.520225,,0,257,257,404,1,2b,62,2,1,
,,,,,,,,,,,,,,,,,,,,,,,,,,images/exp2b_trial_109_colour3_distractors19_l.png,l,1,031,001,2021-04-26_14h05.49.255,searchDisc4,2020.2.10,Win32,60,,,space,0.43531,1,1,0.54876,,0,258,258,451,1,2b,109,3,19,
,,,,,,,,,,,,,,,,,,,,,,,,,,images/exp1a_trial_89_colour3_distractors4_r.png,r,2,031,001,2021-04-26_14h05.49.255,searchDisc4,2020.2.10,Win32,60,,,space,0.53176,2,1,0.59856,,0,259,259,89,1,1a,89,3,4,
,,,,,,,,,,,,,,,,,,,,,,,,,,images/exp2a_trial_92_colour3_distractors31_r.png,r,2,031,001,2021-04-26_14h05.49.255,searchDisc4,2020.2.10,Win32,60,,,space,0.482365,2,1,0.78902,,0,260,260,320,1,2a,92,3,31,
,,,,,,,,,,,,,,,,,,,,,,,,,,images/exp2b_trial_33_colour3_distractors19_l.png,l,1,031,001,2021-04-26_14h05.49.255,searchDisc4,2020.2.10,Win32,60,,,space,0.432795,1,1,0.55699,,0,261,261,375,1,2b,33,3,19,
,,,,,,,,,,,,,,,,,,,,,,,,,,images/exp1a_trial_58_colour1_distractors9_l.png,l,1,031,001,2021-04-26_14h05.49.255,searchDisc4,2020.2.10,Win32,60,,,space,0.53178,1,1,0.802215,,0,262,262,58,1,1a,58,1,9,
,,,,,,,,,,,,,,,,,,,,,,,,,,images/exp1a_trial_28_colour2_distractors31_l.png,l,1,031,001,2021-04-26_14h05.49.255,searchDisc4,2020.2.10,Win32,60,,,space,0.505345,2,0,0.552195,,0,263,263,28,1,1a,28,2,31,
,,,,,,,,,,,,,,,,,,,,,,,,,,images/exp1a_trial_33_colour3_distractors19_l.png,l,1,031,001,2021-04-26_14h05.49.255,searchDisc4,2020.2.10,Win32,60,,,space,0.632585,1,1,0.836315,,0,264,264,33,1,1a,33,3,19,
,,,,,,,,,,,,,,,,,,,,,,,,,,images/exp1a_trial_76_colour1_distractors1_r.png,r,2,031,001,2021-04-26_14h05.49.255,searchDisc4,2020.2.10,Win32,60,,,space,0.886675,2,1,0.47037,,0,265,265,76,1,1a,76,1,1,
,,,,,,,,,,,,,,,,,,,,,,,,,,images/exp2a_trial_44_colour2_distractors1_r.png,r,2,031,001,2021-04-26_14h05.49.255,searchDisc4,2020.2.10,Win32,60,,,space,0.449685,2,1,0.68699,,0,266,266,272,1,2a,44,2,1,
,,,,,,,,,,,,,,,,,,,,,,,,,,images/exp1a_trial_103_colour2_distractors19_l.png,l,1,031,001,2021-04-26_14h05.49.255,searchDisc4,2020.2.10,Win32,60,,,space,0.405495,1,1,0.806555,,0,267,267,103,1,1a,103,2,19,
,,,,,,,,,,,,,,,,,,,,,,,,,,images/exp2b_trial_81_colour1_distractors43_r.png,r,2,031,001,2021-04-26_14h05.49.255,searchDisc4,2020.2.10,Win32,60,,,space,0.37,2,1,0.62135,,0,268,268,423,1,2b,81,1,43,
,,,,,,,,,,,,,,,,,,,,,,,,,,images/exp2a_trial_46_colour2_distractors9_r.png,r,2,031,001,2021-04-26_14h05.49.255,searchDisc4,2020.2.10,Win32,60,,,space,0.407715,2,1,0.83596,,0,269,269,274,1,2a,46,2,9,
,,,,,,,,,,,,,,,,,,,,,,,,,,images/exp1a_trial_18_colour1_distractors1_l.png,l,1,031,001,2021-04-26_14h05.49.255,searchDisc4,2020.2.10,Win32,60,,,space,0.355055,1,1,0.48856,,0,270,270,18,1,1a,18,1,1,
,,,,,,,,,,,,,,,,,,,,,,,,,,images/exp1a_trial_2_colour1_distractors9_r.png,r,2,031,001,2021-04-26_14h05.49.255,searchDisc4,2020.2.10,Win32,60,,,space,0.39951,2,1,0.453395,,0,271,271,2,1,1a,2,1,9,
,,,,,,,,,,,,,,,,,,,,,,,,,,images/exp2c_trial_6_colour2_distractors1_r.png,r,2,031,001,2021-04-26_14h05.49.255,searchDisc4,2020.2.10,Win32,60,,,space,0.371065,2,1,0.554965,,0,272,272,462,1,2c,6,2,1,
,,,,,,,,,,,,,,,,,,,,,,,,,,images/exp2c_trial_9_colour2_distractors19_r.png,r,2,031,001,2021-04-26_14h05.49.255,searchDisc4,2020.2.10,Win32,60,,,space,0.40258,2,1,0.47607,,0,273,273,465,1,2c,9,2,19,
,,,,,,,,,,,,,,,,,,,,,,,,,,images/exp1b_trial_94_colour1_distractors1_l.png,l,1,031,001,2021-04-26_14h05.49.255,searchDisc4,2020.2.10,Win32,60,,,space,0.45315,1,1,0.588405,,0,274,274,208,1,1b,94,1,1,
,,,,,,,,,,,,,,,,,,,,,,,,,,images/exp2b_trial_37_colour0_distractors0_l.png,l,1,031,001,2021-04-26_14h05.49.255,searchDisc4,2020.2.10,Win32,60,,,space,0.497435,1,1,0.60757,,0,275,275,379,1,2b,37,0,0,
,,,,,,,,,,,,,,,,,,,,,,,,,,images/exp1b_trial_91_colour3_distractors19_r.png,r,2,031,001,2021-04-26_14h05.49.255,searchDisc4,2020.2.10,Win32,60,,,space,0.969445,2,1,0.93861,,0,276,276,205,1,1b,91,3,19,
,,,,,,,,,,,,,,,,,,,,,,,,,,images/exp2b_trial_39_colour1_distractors4_r.png,r,2,031,001,2021-04-26_14h05.49.255,searchDisc4,2020.2.10,Win32,60,,,space,0.370195,2,1,0.742745,,0,277,277,381,1,2b,39,1,4,
,,,,,,,,,,,,,,,,,,,,,,,,,,images/exp2a_trial_35_colour3_distractors43_l.png,l,1,031,001,2021-04-26_14h05.49.255,searchDisc4,2020.2.10,Win32,60,,,space,0.54799,1,1,0.516335,,0,278,278,263,1,2a,35,3,43,
,,,,,,,,,,,,,,,,,,,,,,,,,,images/exp1a_trial_46_colour2_distractors9_r.png,r,2,031,001,2021-04-26_14h05.49.255,searchDisc4,2020.2.10,Win32,60,,,space,0.464165,2,1,0.509205,,0,279,279,46,1,1a,46,2,9,
,,,,,,,,,,,,,,,,,,,,,,,,,,images/exp2a_trial_5_colour1_distractors43_r.png,r,2,031,001,2021-04-26_14h05.49.255,searchDisc4,2020.2.10,Win32,60,,,space,0.46818,2,1,0.810995,,0,280,280,233,1,2a,5,1,43,
,,,,,,,,,,,,,,,,,,,,,,,,,,images/exp2a_trial_69_colour3_distractors4_l.png,l,1,031,001,2021-04-26_14h05.49.255,searchDisc4,2020.2.10,Win32,60,,,space,0.43136,1,1,0.46317,,0,281,281,297,1,2a,69,3,4,
,,,,,,,,,,,,,,,,,,,,,,,,,,images/exp1b_trial_18_colour1_distractors1_l.png,l,1,031,001,2021-04-26_14h05.49.255,searchDisc4,2020.2.10,Win32,60,,,space,0.433655,1,1,0.587025,,0,282,282,132,1,1b,18,1,1,
,,,,,,,,,,,,,,,,,,,,,,,,,,images/exp2b_trial_31_colour3_distractors4_l.png,l,1,031,001,2021-04-26_14h05.49.255,searchDisc4,2020.2.10,Win32,60,,,space,0.615215,2,0,0.519485,,0,283,283,373,1,2b,31,3,4,
,,,,,,,,,,,,,,,,,,,,,,,,,,images/exp1b_trial_72_colour3_distractors31_l.png,l,1,031,001,2021-04-26_14h05.49.255,searchDisc4,2020.2.10,Win32,60,,,space,0.42753,1,1,1.965285,,0,284,284,186,1,1b,72,3,31,
,,,,,,,,,,,,,,,,,,,,,,,,,,images/exp1b_trial_28_colour2_distractors31_l.png,l,1,031,001,2021-04-26_14h05.49.255,searchDisc4,2020.2.10,Win32,60,,,space,0.43456,1,1,0.786995,,0,285,285,142,1,1b,28,2,31,
,,,,,,,,,,,,,,,,,,,,,,,,,,images/exp1b_trial_48_colour2_distractors31_r.png,r,2,031,001,2021-04-26_14h05.49.255,searchDisc4,2020.2.10,Win32,60,,,space,0.46642,2,1,0.601185,,0,286,286,162,1,1b,48,2,31,
,,,,,,,,,,,,,,,,,,,,,,,,,,images/exp2a_trial_84_colour2_distractors9_r.png,r,2,031,001,2021-04-26_14h05.49.255,searchDisc4,2020.2.10,Win32,60,,,space,0.88805,2,1,0.4789,,0,287,287,312,1,2a,84,2,9,
,,,,,,,,,,,,,,,,,,,,,,,,,,images/exp2a_trial_53_colour3_distractors19_r.png,r,2,031,001,2021-04-26_14h05.49.255,searchDisc4,2020.2.10,Win32,60,,,space,0.632265,2,1,0.63057,,0,288,288,281,1,2a,53,3,19,
,,,,,,,,,,,,,,,,,,,,,,,,,,images/exp2a_trial_103_colour2_distractors19_l.png,l,1,031,001,2021-04-26_14h05.49.255,searchDisc4,2020.2.10,Win32,60,,,space,0.48269,1,1,0.51201,,0,289,289,331,1,2a,103,2,19,
,,,,,,,,,,,,,,,,,,,,,,,,,,images/exp1a_trial_110_colour3_distractors31_l.png,l,1,031,001,2021-04-26_14h05.49.255,searchDisc4,2020.2.10,Win32,60,,,space,0.392145,1,1,0.769185,,0,290,290,110,1,1a,110,3,31,
,,,,,,,,,,,,,,,,,,,,,,,,,,images/exp2a_trial_88_colour3_distractors1_r.png,r,2,031,001,2021-04-26_14h05.49.255,searchDisc4,2020.2.10,Win32,60,,,space,0.447935,2,1,0.591115,,0,291,291,316,1,2a,88,3,1,
,,,,,,,,,,,,,,,,,,,,,,,,,,images/exp1a_trial_80_colour1_distractors31_r.png,r,2,031,001,2021-04-26_14h05.49.255,searchDisc4,2020.2.10,Win32,60,,,space,0.45882,2,1,0.593075,,0,292,292,80,1,1a,80,1,31,
,,,,,,,,,,,,,,,,,,,,,,,,,,images/exp1b_trial_76_colour1_distractors1_r.png,r,2,031,001,2021-04-26_14h05.49.255,searchDisc4,2020.2.10,Win32,60,,,space,0.349915,2,1,0.539665,,0,293,293,190,1,1b,76,1,1,
,,,,,,,,,,,,,,,,,,,,,,,,,,images/exp2c_trial_25_colour2_distractors4_l.png,l,1,031,001,2021-04-26_14h05.49.255,searchDisc4,2020.2.10,Win32,60,,,space,0.487665,1,1,0.479575,,0,294,294,481,1,2c,25,2,4,
,,,,,,,,,,,,,,,,,,,,,,,,,,images/exp1b_trial_8_colour2_distractors9_r.png,r,2,031,001,2021-04-26_14h05.49.255,searchDisc4,2020.2.10,Win32,60,,,space,0.682785,2,1,0.59807,,0,295,295,122,1,1b,8,2,9,
,,,,,,,,,,,,,,,,,,,,,,,,,,images/exp2c_trial_78_colour1_distractors9_r.png,r,2,031,001,2021-04-26_14h05.49.255,searchDisc4,2020.2.10,Win32,60,,,space,0.472975,2,1,0.569975,,0,296,296,534,1,2c,78,1,9,
,,,,,,,,,,,,,,,,,,,,,,,,,,images/exp2a_trial_55_colour3_distractors43_r.png,r,2,031,001,2021-04-26_14h05.49.255,searchDisc4,2020.2.10,Win32,60,,,space,0.468905,2,1,0.801585,,0,297,297,283,1,2a,55,3,43,
,,,,,,,,,,,,,,,,,,,,,,,,,,images/exp2a_trial_50_colour3_distractors1_r.png,r,2,031,001,2021-04-26_14h05.49.255,searchDisc4,2020.2.10,Win32,60,,,space,0.48598,2,1,1.294215,,0,298,298,278,1,2a,50,3,1,
,,,,,,,,,,,,,,,,,,,,,,,,,,images/exp2a_trial_36_colour0_distractors0_r.png,r,2,031,001,2021-04-26_14h05.49.255,searchDisc4,2020.2.10,Win32,60,,,space,0.45335,2,1,0.43802,space,0,299,299,264,1,2a,36,0,0,2.448925
,,,,,,,,,,,,,,,,,,,,,,,,,,images/exp2c_trial_30_colour3_distractors1_l.png,l,1,031,001,2021-04-26_14h05.49.255,searchDisc4,2020.2.10,Win32,60,,,space,0.54025,1,1,0.656775,,0,300,300,486,1,2c,30,3,1,
,,,,,,,,,,,,,,,,,,,,,,,,,,images/exp2b_trial_10_colour2_distractors31_r.png,r,2,031,001,2021-04-26_14h05.49.255,searchDisc4,2020.2.10,Win32,60,,,space,0.44179,2,1,0.55475,,0,301,301,352,1,2b,10,2,31,
,,,,,,,,,,,,,,,,,,,,,,,,,,images/exp2a_trial_28_colour2_distractors31_l.png,l,1,031,001,2021-04-26_14h05.49.255,searchDisc4,2020.2.10,Win32,60,,,space,0.42286,1,1,0.4467,,0,302,302,256,1,2a,28,2,31,
,,,,,,,,,,,,,,,,,,,,,,,,,,images/exp2a_trial_52_colour3_distractors9_r.png,r,2,031,001,2021-04-26_14h05.49.255,searchDisc4,2020.2.10,Win32,60,,,space,0.39322,2,1,0.427715,,0,303,303,280,1,2a,52,3,9,
,,,,,,,,,,,,,,,,,,,,,,,,,,images/exp2a_trial_20_colour1_distractors9_l.png,l,1,031,001,2021-04-26_14h05.49.255,searchDisc4,2020.2.10,Win32,60,,,space,0.431325,1,1,0.59196,,0,304,304,248,1,2a,20,1,9,
,,,,,,,,,,,,,,,,,,,,,,,,,,images/exp1b_trial_92_colour3_distractors31_r.png,r,2,031,001,2021-04-26_14h05.49.255,searchDisc4,2020.2.10,Win32,60,,,space,0.381675,2,1,1.877935,,0,305,305,206,1,1b,92,3,31,
,,,,,,,,,,,,,,,,,,,,,,,,,,images/exp2a_trial_95_colour1_distractors4_l.png,l,1,031,001,2021-04-26_14h05.49.255,searchDisc4,2020.2.10,Win32,60,,,space,0.46989,1,1,0.580645,,0,306,306,323,1,2a,95,1,4,
,,,,,,,,,,,,,,,,,,,,,,,,,,images/exp1a_trial_57_colour1_distractors4_l.png,l,1,031,001,2021-04-26_14h05.49.255,searchDisc4,2020.2.10,Win32,60,,,space,0.4422,1,1,0.657845,,0,307,307,57,1,1a,57,1,4,
,,,,,,,,,,,,,,,,,,,,,,,,,,images/exp2b_trial_6_colour2_distractors1_r.png,r,2,031,001,2021-04-26_14h05.49.255,searchDisc4,2020.2.10,Win32,60,,,space,0.42651,2,1,0.459695,,0,308,308,348,1,2b,6,2,1,
,,,,,,,,,,,,,,,,,,,,,,,,,,images/exp2c_trial_1_colour1_distractors4_r.png,r,2,031,001,2021-04-26_14h05.49.255,searchDisc4,2020.2.10,Win32,60,,,space,0.453275,2,1,0.688825,,0,309,309,457,1,2c,1,1,4,
,,,,,,,,,,,,,,,,,,,,,,,,,,images/exp2a_trial_4_colour1_distractors31_r.png,r,2,031,001,2021-04-26_14h05.49.255,searchDisc4,2020.2.10,Win32,60,,,space,0.56477,2,1,0.59136,,0,310,310,232,1,2a,4,1,31,
,,,,,,,,,,,,,,,,,,,,,,,,,,images/exp2b_trial_58_colour1_distractors9_l.png,l,1,031,001,2021-04-26_14h05.49.255,searchDisc4,2020.2.10,Win32,60,,,space,0.451885,1,1,0.56467,,0,311,311,400,1,2b,58,1,9,
,,,,,,,,,,,,,,,,,,,,,,,,,,images/exp2c_trial_23_colour1_distractors43_l.png,l,1,031,001,2021-04-26_14h05.49.255,searchDisc4,2020.2.10,Win32,60,,,space,0.532985,1,1,0.74186,,0,312,312,479,1,2c,23,1,43,
,,,,,,,,,,,,,,,,,,,,,,,,,,images/exp2b_trial_110_colour3_distractors31_l.png,l,1,031,001,2021-04-26_14h05.49.255,searchDisc4,2020.2.10,Win32,60,,,space,0.38669,1,1,0.565855,,0,313,313,452,1,2b,110,3,31,
,,,,,,,,,,,,,,,,,,,,,,,,,,images/exp2b_trial_38_colour1_distractors1_r.png,r,2,031,001,2021-04-26_14h05.49.255,searchDisc4,2020.2.10,Win32,60,,,space,0.48147,2,1,0.50632,,0,314,314,380,1,2b,38,1,1,
,,,,,,,,,,,,,,,,,,,,,,,,,,images/exp1b_trial_3_colour1_distractors19_r.png,r,2,031,001,2021-04-26_14h05.49.255,searchDisc4,2020.2.10,Win32,60,,,space,0.504335,2,1,0.589825,,0,315,315,117,1,1b,3,1,19,
,,,,,,,,,,,,,,,,,,,,,,,,,,images/exp1b_trial_19_colour1_distractors4_l.png,l,1,031,001,2021-04-26_14h05.49.255,searchDisc4,2020.2.10,Win32,60,,,space,0.55416,1,1,0.726155,,0,316,316,133,1,1b,19,1,4,
,,,,,,,,,,,,,,,,,,,,,,,,,,images/exp2c_trial_93_colour3_distractors43_r.png,r,2,031,001,2021-04-26_14h05.49.255,searchDisc4,2020.2.10,Win32,60,,,space,0.43325,2,1,0.56446,,0,317,317,549,1,2c,93,3,43,
,,,,,,,,,,,,,,,,,,,,,,,,,,images/exp2c_trial_85_colour2_distractors19_r.png,r,2,031,001,2021-04-26_14h05.49.255,searchDisc4,2020.2.10,Win32,60,,,space,0.506045,2,1,0.62464,,0,318,318,541,1,2c,85,2,19,
,,,,,,,,,,,,,,,,,,,,,,,,,,images/exp2c_trial_7_colour2_distractors4_r.png,r,2,031,001,2021-04-26_14h05.49.255,searchDisc4,2020.2.10,Win32,60,,,space,0.53112,2,1,0.63881,,0,319,319,463,1,2c,7,2,4,
,,,,,,,,,,,,,,,,,,,,,,,,,,images/exp1b_trial_26_colour2_distractors9_l.png,l,1,031,001,2021-04-26_14h05.49.255,searchDisc4,2020.2.10,Win32,60,,,space,0.649375,1,1,0.577035,,0,320,320,140,1,1b,26,2,9,
,,,,,,,,,,,,,,,,,,,,,,,,,,images/exp1a_trial_40_colour1_distractors9_r.png,r,2,031,001,2021-04-26_14h05.49.255,searchDisc4,2020.2.10,Win32,60,,,space,0.43309,2,1,0.66918,,0,321,321,40,1,1a,40,1,9,
,,,,,,,,,,,,,,,,,,,,,,,,,,images/exp1a_trial_100_colour2_distractors1_l.png,l,1,031,001,2021-04-26_14h05.49.255,searchDisc4,2020.2.10,Win32,60,,,space,0.63095,2,0,0.558385,,0,322,322,100,1,1a,100,2,1,
,,,,,,,,,,,,,,,,,,,,,,,,,,images/exp2c_trial_26_colour2_distractors9_l.png,l,1,031,001,2021-04-26_14h05.49.255,searchDisc4,2020.2.10,Win32,60,,,space,1.056045,1,1,0.57094,,0,323,323,482,1,2c,26,2,9,
,,,,,,,,,,,,,,,,,,,,,,,,,,images/exp2c_trial_98_colour1_distractors31_l.png,l,1,031,001,2021-04-26_14h05.49.255,searchDisc4,2020.2.10,Win32,60,,,space,0.423025,1,1,0.602785,,0,324,324,554,1,2c,98,1,31,
,,,,,,,,,,,,,,,,,,,,,,,,,,images/exp2b_trial_94_colour1_distractors1_l.png,l,1,031,001,2021-04-26_14h05.49.255,searchDisc4,2020.2.10,Win32,60,,,space,0.61616,1,1,0.563405,,0,325,325,436,1,2b,94,1,1,
,,,,,,,,,,,,,,,,,,,,,,,,,,images/exp1a_trial_30_colour3_distractors1_l.png,l,1,031,001,2021-04-26_14h05.49.255,searchDisc4,2020.2.10,Win32,60,,,space,0.51427,1,1,0.46409,,0,326,326,30,1,1a,30,3,1,
,,,,,,,,,,,,,,,,,,,,,,,,,,images/exp2b_trial_29_colour2_distractors43_l.png,l,1,031,001,2021-04-26_14h05.49.255,searchDisc4,2020.2.10,Win32,60,,,space,0.40926,1,1,0.522305,,0,327,327,371,1,2b,29,2,43,
,,,,,,,,,,,,,,,,,,,,,,,,,,images/exp2a_trial_98_colour1_distractors31_l.png,l,1,031,001,2021-04-26_14h05.49.255,searchDisc4,2020.2.10,Win32,60,,,space,0.384365,1,1,0.579125,,0,328,328,326,1,2a,98,1,31,
,,,,,,,,,,,,,,,,,,,,,,,,,,images/exp1b_trial_68_colour3_distractors1_l.png,l,1,031,001,2021-04-26_14h05.49.255,searchDisc4,2020.2.10,Win32,60,,,space,0.42381,1,1,0.45751,,0,329,329,182,1,1b,68,3,1,
,,,,,,,,,,,,,,,,,,,,,,,,,,images/exp1b_trial_109_colour3_distractors19_l.png,l,1,031,001,2021-04-26_14h05.49.255,searchDisc4,2020.2.10,Win32,60,,,space,0.483225,1,1,1.681405,,0,330,330,223,1,1b,109,3,19,
,,,,,,,,,,,,,,,,,,,,,,,,,,images/exp1b_trial_98_colour1_distractors31_l.png,l,1,031,001,2021-04-26_14h05.49.255,searchDisc4,2020.2.10,Win32,60,,,space,0.400735,1,1,1.09869,,0,331,331,212,1,1b,98,1,31,
,,,,,,,,,,,,,,,,,,,,,,,,,,images/exp1b_trial_29_colour2_distractors43_l.png,l,1,031,001,2021-04-26_14h05.49.255,searchDisc4,2020.2.10,Win32,60,,,space,0.386675,1,1,0.79198,,0,332,332,143,1,1b,29,2,43,
,,,,,,,,,,,,,,,,,,,,,,,,,,images/exp1b_trial_54_colour3_distractors31_r.png,r,2,031,001,2021-04-26_14h05.49.255,searchDisc4,2020.2.10,Win32,60,,,space,0.424695,2,1,1.178385,,0,333,333,168,1,1b,54,3,31,
,,,,,,,,,,,,,,,,,,,,,,,,,,images/exp2b_trial_2_colour1_distractors9_r.png,r,2,031,001,2021-04-26_14h05.49.255,searchDisc4,2020.2.10,Win32,60,,,space,0.334335,2,1,0.6694,,0,334,334,344,1,2b,2,1,9,
,,,,,,,,,,,,,,,,,,,,,,,,,,images/exp2c_trial_80_colour1_distractors31_r.png,r,2,031,001,2021-04-26_14h05.49.255,searchDisc4,2020.2.10,Win32,60,,,space,0.33943,2,1,0.6327,,0,335,335,536,1,2c,80,1,31,
,,,,,,,,,,,,,,,,,,,,,,,,,,images/exp2a_trial_16_colour3_distractors31_r.png,r,2,031,001,2021-04-26_14h05.49.255,searchDisc4,2020.2.10,Win32,60,,,space,0.61028,2,1,0.8176,,0,336,336,244,1,2a,16,3,31,
,,,,,,,,,,,,,,,,,,,,,,,,,,images/exp2b_trial_83_colour2_distractors4_r.png,r,2,031,001,2021-04-26_14h05.49.255,searchDisc4,2020.2.10,Win32,60,,,space,0.447145,2,1,0.59934,,0,337,337,425,1,2b,83,2,4,
,,,,,,,,,,,,,,,,,,,,,,,,,,images/exp1b_trial_60_colour1_distractors31_l.png,l,1,031,001,2021-04-26_14h05.49.255,searchDisc4,2020.2.10,Win32,60,,,space,0.89039,1,1,0.895605,,0,338,338,174,1,1b,60,1,31,
,,,,,,,,,,,,,,,,,,,,,,,,,,images/exp2b_trial_34_colour3_distractors31_l.png,l,1,031,001,2021-04-26_14h05.49.255,searchDisc4,2020.2.10,Win32,60,,,space,0.58417,1,1,0.987275,,0,339,339,376,1,2b,34,3,31,
,,,,,,,,,,,,,,,,,,,,,,,,,,images/exp2c_trial_37_colour0_distractors0_l.png,l,1,031,001,2021-04-26_14h05.49.255,searchDisc4,2020.2.10,Win32,60,,,space,0.374495,1,1,0.48205,,0,340,340,493,1,2c,37,0,0,
,,,,,,,,,,,,,,,,,,,,,,,,,,images/exp2a_trial_102_colour2_distractors9_l.png,l,1,031,001,2021-04-26_14h05.49.255,searchDisc4,2020.2.10,Win32,60,,,space,0.465795,1,1,0.437895,,0,341,341,330,1,2a,102,2,9,
,,,,,,,,,,,,,,,,,,,,,,,,,,images/exp2b_trial_99_colour1_distractors43_l.png,l,1,031,001,2021-04-26_14h05.49.255,searchDisc4,2020.2.10,Win32,60,,,space,0.443065,1,1,0.571345,,0,342,342,441,1,2b,99,1,43,
,,,,,,,,,,,,,,,,,,,,,,,,,,images/exp2a_trial_90_colour3_distractors9_r.png,r,2,031,001,2021-04-26_14h05.49.255,searchDisc4,2020.2.10,Win32,60,,,space,0.40777,2,1,0.47014,,0,343,343,318,1,2a,90,3,9,
,,,,,,,,,,,,,,,,,,,,,,,,,,images/exp2c_trial_62_colour2_distractors1_l.png,l,1,031,001,2021-04-26_14h05.49.255,searchDisc4,2020.2.10,Win32,60,,,space,0.43439,1,1,0.673115,,0,344,344,518,1,2c,62,2,1,
,,,,,,,,,,,,,,,,,,,,,,,,,,images/exp2c_trial_15_colour3_distractors19_r.png,r,2,031,001,2021-04-26_14h05.49.255,searchDisc4,2020.2.10,Win32,60,,,space,0.410845,2,1,0.47025,,0,345,345,471,1,2c,15,3,19,
,,,,,,,,,,,,,,,,,,,,,,,,,,images/exp2b_trial_63_colour2_distractors4_l.png,l,1,031,001,2021-04-26_14h05.49.255,searchDisc4,2020.2.10,Win32,60,,,space,0.41374,1,1,0.44024,,0,346,346,405,1,2b,63,2,4,
,,,,,,,,,,,,,,,,,,,,,,,,,,images/exp2c_trial_86_colour2_distractors31_r.png,r,2,031,001,2021-04-26_14h05.49.255,searchDisc4,2020.2.10,Win32,60,,,space,0.43287,2,1,0.91331,,0,347,347,542,1,2c,86,2,31,
,,,,,,,,,,,,,,,,,,,,,,,,,,images/exp2c_trial_32_colour3_distractors9_l.png,l,1,031,001,2021-04-26_14h05.49.255,searchDisc4,2020.2.10,Win32,60,,,space,0.2888,1,1,0.608065,,0,348,348,488,1,2c,32,3,9,
,,,,,,,,,,,,,,,,,,,,,,,,,,images/exp2c_trial_96_colour1_distractors9_l.png,l,1,031,001,2021-04-26_14h05.49.255,searchDisc4,2020.2.10,Win32,60,,,space,0.40976,1,1,0.531795,,0,349,349,552,1,2c,96,1,9,
,,,,,,,,,,,,,,,,,,,,,,,,,,images/exp2a_trial_81_colour1_distractors43_r.png,r,2,031,001,2021-04-26_14h05.49.255,searchDisc4,2020.2.10,Win32,60,,,space,0.40904,2,1,0.60427,,0,350,350,309,1,2a,81,1,43,
,,,,,,,,,,,,,,,,,,,,,,,,,,images/exp2a_trial_22_colour1_distractors31_l.png,l,1,031,001,2021-04-26_14h05.49.255,searchDisc4,2020.2.10,Win32,60,,,space,0.38297,1,1,0.55394,,0,351,351,250,1,2a,22,1,31,
,,,,,,,,,,,,,,,,,,,,,,,,,,images/exp1a_trial_23_colour1_distractors43_l.png,l,1,031,001,2021-04-26_14h05.49.255,searchDisc4,2020.2.10,Win32,60,,,space,0.414995,1,1,0.61907,,0,352,352,23,1,1a,23,1,43,
,,,,,,,,,,,,,,,,,,,,,,,,,,images/exp1b_trial_63_colour2_distractors4_l.png,l,1,031,001,2021-04-26_14h05.49.255,searchDisc4,2020.2.10,Win32,60,,,space,0.4358,1,1,0.579795,,0,353,353,177,1,1b,63,2,4,
,,,,,,,,,,,,,,,,,,,,,,,,,,images/exp2b_trial_12_colour3_distractors1_r.png,r,2,031,001,2021-04-26_14h05.49.255,searchDisc4,2020.2.10,Win32,60,,,space,0.360105,2,1,0.485955,,0,354,354,354,1,2b,12,3,1,
,,,,,,,,,,,,,,,,,,,,,,,,,,images/exp1b_trial_14_colour3_distractors9_r.png,r,2,031,001,2021-04-26_14h05.49.255,searchDisc4,2020.2.10,Win32,60,,,space,0.379895,2,1,0.55269,,0,355,355,128,1,1b,14,3,9,
,,,,,,,,,,,,,,,,,,,,,,,,,,images/exp1b_trial_104_colour2_distractors31_l.png,l,1,031,001,2021-04-26_14h05.49.255,searchDisc4,2020.2.10,Win32,60,,,space,0.347785,1,1,1.25505,,0,356,356,218,1,1b,104,2,31,
,,,,,,,,,,,,,,,,,,,,,,,,,,images/exp2a_trial_101_colour2_distractors4_l.png,l,1,031,001,2021-04-26_14h05.49.255,searchDisc4,2020.2.10,Win32,60,,,space,0.32028,1,1,0.564385,,0,357,357,329,1,2a,101,2,4,
,,,,,,,,,,,,,,,,,,,,,,,,,,images/exp2c_trial_21_colour1_distractors19_l.png,l,1,031,001,2021-04-26_14h05.49.255,searchDisc4,2020.2.10,Win32,60,,,space,0.40248,1,1,0.474595,,0,358,358,477,1,2c,21,1,19,
,,,,,,,,,,,,,,,,,,,,,,,,,,images/exp1a_trial_112_colour0_distractors0_r.png,r,2,031,001,2021-04-26_14h05.49.255,searchDisc4,2020.2.10,Win32,60,,,space,0.532825,2,1,0.63588,space,0,359,359,112,1,1a,112,0,0,1.026085
,,,,,,,,,,,,,,,,,,,,,,,,,,images/exp2a_trial_82_colour2_distractors1_r.png,r,2,031,001,2021-04-26_14h05.49.255,searchDisc4,2020.2.10,Win32,60,,,space,0.55063,2,1,0.62066,,0,360,360,310,1,2a,82,2,1,
,,,,,,,,,,,,,,,,,,,,,,,,,,images/exp2b_trial_26_colour2_distractors9_l.png,l,1,031,001,2021-04-26_14h05.49.255,searchDisc4,2020.2.10,Win32,60,,,space,0.400175,1,1,0.50633,,0,361,361,368,1,2b,26,2,9,
,,,,,,,,,,,,,,,,,,,,,,,,,,images/exp2a_trial_21_colour1_distractors19_l.png,l,1,031,001,2021-04-26_14h05.49.255,searchDisc4,2020.2.10,Win32,60,,,space,0.44054,1,1,0.465085,,0,362,362,249,1,2a,21,1,19,
,,,,,,,,,,,,,,,,,,,,,,,,,,images/exp2a_trial_104_colour2_distractors31_l.png,l,1,031,001,2021-04-26_14h05.49.255,searchDisc4,2020.2.10,Win32,60,,,space,0.650535,1,1,0.63619,,0,363,363,332,1,2a,104,2,31,
,,,,,,,,,,,,,,,,,,,,,,,,,,images/exp2c_trial_4_colour1_distractors31_r.png,r,2,031,001,2021-04-26_14h05.49.255,searchDisc4,2020.2.10,Win32,60,,,space,0.3643,2,1,0.604925,,0,364,364,460,1,2c,4,1,31,
,,,,,,,,,,,,,,,,,,,,,,,,,,images/exp1a_trial_94_colour1_distractors1_l.png,l,1,031,001,2021-04-26_14h05.49.255,searchDisc4,2020.2.10,Win32,60,,,space,0.402325,1,1,0.523915,,0,365,365,94,1,1a,94,1,1,
,,,,,,,,,,,,,,,,,,,,,,,,,,images/exp2a_trial_0_colour1_distractors1_r.png,r,2,031,001,2021-04-26_14h05.49.255,searchDisc4,2020.2.10,Win32,60,,,space,0.370975,2,1,0.439185,,0,366,366,228,1,2a,0,1,1,
,,,,,,,,,,,,,,,,,,,,,,,,,,images/exp2b_trial_48_colour2_distractors31_r.png,r,2,031,001,2021-04-26_14h05.49.255,searchDisc4,2020.2.10,Win32,60,,,space,0.39181,1,0,0.5145,,0,367,367,390,1,2b,48,2,31,
,,,,,,,,,,,,,,,,,,,,,,,,,,images/exp2b_trial_19_colour1_distractors4_l.png,l,1,031,001,2021-04-26_14h05.49.255,searchDisc4,2020.2.10,Win32,60,,,space,0.530855,1,1,0.47856,,0,368,368,361,1,2b,19,1,4,
,,,,,,,,,,,,,,,,,,,,,,,,,,images/exp2c_trial_50_colour3_distractors1_r.png,r,2,031,001,2021-04-26_14h05.49.255,searchDisc4,2020.2.10,Win32,60,,,space,0.39992,2,1,0.47348,,0,369,369,506,1,2c,50,3,1,
,,,,,,,,,,,,,,,,,,,,,,,,,,images/exp1b_trial_21_colour1_distractors19_l.png,l,1,031,001,2021-04-26_14h05.49.255,searchDisc4,2020.2.10,Win32,60,,,space,0.38506,1,1,0.664445,,0,370,370,135,1,1b,21,1,19,
,,,,,,,,,,,,,,,,,,,,,,,,,,images/exp2b_trial_80_colour1_distractors31_r.png,r,2,031,001,2021-04-26_14h05.49.255,searchDisc4,2020.2.10,Win32,60,,,space,0.37193,2,1,0.65453,,0,371,371,422,1,2b,80,1,31,
,,,,,,,,,,,,,,,,,,,,,,,,,,images/exp2a_trial_11_colour2_distractors43_r.png,r,2,031,001,2021-04-26_14h05.49.255,searchDisc4,2020.2.10,Win32,60,,,space,0.36897,2,1,0.58619,,0,372,372,239,1,2a,11,2,43,
,,,,,,,,,,,,,,,,,,,,,,,,,,images/exp2b_trial_59_colour1_distractors19_l.png,l,1,031,001,2021-04-26_14h05.49.255,searchDisc4,2020.2.10,Win32,60,,,space,0.38298,1,1,0.562585,,0,373,373,401,1,2b,59,1,19,
,,,,,,,,,,,,,,,,,,,,,,,,,,images/exp1a_trial_86_colour2_distractors31_r.png,r,2,031,001,2021-04-26_14h05.49.255,searchDisc4,2020.2.10,Win32,60,,,space,0.28282,2,1,0.504405,,0,374,374,86,1,1a,86,2,31,
,,,,,,,,,,,,,,,,,,,,,,,,,,images/exp1b_trial_78_colour1_distractors9_r.png,r,2,031,001,2021-04-26_14h05.49.255,searchDisc4,2020.2.10,Win32,60,,,space,0.348615,2,1,0.720945,,0,375,375,192,1,1b,78,1,9,
,,,,,,,,,,,,,,,,,,,,,,,,,,images/exp2a_trial_40_colour1_distractors9_r.png,r,2,031,001,2021-04-26_14h05.49.255,searchDisc4,2020.2.10,Win32,60,,,space,0.31093,2,1,1.124975,,0,376,376,268,1,2a,40,1,9,
,,,,,,,,,,,,,,,,,,,,,,,,,,images/exp1b_trial_39_colour1_distractors4_r.png,r,2,031,001,2021-04-26_14h05.49.255,searchDisc4,2020.2.10,Win32,60,,,space,0.355085,2,1,0.495085,,0,377,377,153,1,1b,39,1,4,
,,,,,,,,,,,,,,,,,,,,,,,,,,images/exp1a_trial_53_colour3_distractors19_r.png,r,2,031,001,2021-04-26_14h05.49.255,searchDisc4,2020.2.10,Win32,60,,,space,0.55058,2,1,0.55876,,0,378,378,53,1,1a,53,3,19,
,,,,,,,,,,,,,,,,,,,,,,,,,,images/exp1b_trial_9_colour2_distractors19_r.png,r,2,031,001,2021-04-26_14h05.49.255,searchDisc4,2020.2.10,Win32,60,,,space,0.42434,2,1,0.572335,,0,379,379,123,1,1b,9,2,19,
,,,,,,,,,,,,,,,,,,,,,,,,,,images/exp1b_trial_55_colour3_distractors43_r.png,r,2,031,001,2021-04-26_14h05.49.255,searchDisc4,2020.2.10,Win32,60,,,space,0.398975,2,1,1.95299,,0,380,380,169,1,1b,55,3,43,
,,,,,,,,,,,,,,,,,,,,,,,,,,images/exp2b_trial_7_colour2_distractors4_r.png,r,2,031,001,2021-04-26_14h05.49.255,searchDisc4,2020.2.10,Win32,60,,,space,0.451915,1,0,0.52298,,0,381,381,349,1,2b,7,2,4,
,,,,,,,,,,,,,,,,,,,,,,,,,,images/exp2a_trial_109_colour3_distractors19_l.png,l,1,031,001,2021-04-26_14h05.49.255,searchDisc4,2020.2.10,Win32,60,,,space,0.506965,1,1,0.57448,,0,382,382,337,1,2a,109,3,19,
,,,,,,,,,,,,,,,,,,,,,,,,,,images/exp2a_trial_12_colour3_distractors1_r.png,r,2,031,001,2021-04-26_14h05.49.255,searchDisc4,2020.2.10,Win32,60,,,space,0.436845,2,1,0.486485,,0,383,383,240,1,2a,12,3,1,
,,,,,,,,,,,,,,,,,,,,,,,,,,images/exp2a_trial_3_colour1_distractors19_r.png,r,2,031,001,2021-04-26_14h05.49.255,searchDisc4,2020.2.10,Win32,60,,,space,0.397975,2,1,0.60559,,0,384,384,231,1,2a,3,1,19,
,,,,,,,,,,,,,,,,,,,,,,,,,,images/exp2b_trial_74_colour0_distractors0_r.png,r,2,031,001,2021-04-26_14h05.49.255,searchDisc4,2020.2.10,Win32,60,,,space,0.306935,2,1,0.52884,,0,385,385,416,1,2b,74,0,0,
,,,,,,,,,,,,,,,,,,,,,,,,,,images/exp1b_trial_58_colour1_distractors9_l.png,l,1,031,001,2021-04-26_14h05.49.255,searchDisc4,2020.2.10,Win32,60,,,space,0.366545,1,1,0.53031,,0,386,386,172,1,1b,58,1,9,
,,,,,,,,,,,,,,,,,,,,,,,,,,images/exp1b_trial_80_colour1_distractors31_r.png,r,2,031,001,2021-04-26_14h05.49.255,searchDisc4,2020.2.10,Win32,60,,,space,0.368505,2,1,0.82023,,0,387,387,194,1,1b,80,1,31,
,,,,,,,,,,,,,,,,,,,,,,,,,,images/exp2c_trial_87_colour2_distractors43_r.png,r,2,031,001,2021-04-26_14h05.49.255,searchDisc4,2020.2.10,Win32,60,,,space,0.43115,2,1,0.48776,,0,388,388,543,1,2c,87,2,43,
,,,,,,,,,,,,,,,,,,,,,,,,,,images/exp2c_trial_52_colour3_distractors9_r.png,r,2,031,001,2021-04-26_14h05.49.255,searchDisc4,2020.2.10,Win32,60,,,space,0.39029,2,1,0.44965,,0,389,389,508,1,2c,52,3,9,
,,,,,,,,,,,,,,,,,,,,,,,,,,images/exp2a_trial_38_colour1_distractors1_r.png,r,2,031,001,2021-04-26_14h05.49.255,searchDisc4,2020.2.10,Win32,60,,,space,0.458595,2,1,0.473185,,0,390,390,266,1,2a,38,1,1,
,,,,,,,,,,,,,,,,,,,,,,,,,,images/exp1a_trial_21_colour1_distractors19_l.png,l,1,031,001,2021-04-26_14h05.49.255,searchDisc4,2020.2.10,Win32,60,,,space,0.922925,1,1,0.535615,,0,391,391,21,1,1a,21,1,19,
,,,,,,,,,,,,,,,,,,,,,,,,,,images/exp1a_trial_43_colour1_distractors43_r.png,r,2,031,001,2021-04-26_14h05.49.255,searchDisc4,2020.2.10,Win32,60,,,space,0.50234,2,1,0.65765,,0,392,392,43,1,1a,43,1,43,
,,,,,,,,,,,,,,,,,,,,,,,,,,images/exp2b_trial_108_colour3_distractors9_l.png,l,1,031,001,2021-04-26_14h05.49.255,searchDisc4,2020.2.10,Win32,60,,,space,0.44516,1,1,0.60531,,0,393,393,450,1,2b,108,3,9,
,,,,,,,,,,,,,,,,,,,,,,,,,,images/exp2a_trial_47_colour2_distractors19_r.png,r,2,031,001,2021-04-26_14h05.49.255,searchDisc4,2020.2.10,Win32,60,,,space,0.40853,2,1,0.634525,,0,394,394,275,1,2a,47,2,19,
,,,,,,,,,,,,,,,,,,,,,,,,,,images/exp2b_trial_13_colour3_distractors4_r.png,r,2,031,001,2021-04-26_14h05.49.255,searchDisc4,2020.2.10,Win32,60,,,space,0.355955,2,1,0.53665,,0,395,395,355,1,2b,13,3,4,
,,,,,,,,,,,,,,,,,,,,,,,,,,images/exp2c_trial_84_colour2_distractors9_r.png,r,2,031,001,2021-04-26_14h05.49.255,searchDisc4,2020.2.10,Win32,60,,,space,0.349885,2,1,0.60341,,0,396,396,540,1,2c,84,2,9,
,,,,,,,,,,,,,,,,,,,,,,,,,,images/exp1a_trial_87_colour2_distractors43_r.png,r,2,031,001,2021-04-26_14h05.49.255,searchDisc4,2020.2.10,Win32,60,,,space,0.39718,2,1,0.558455,,0,397,397,87,1,1a,87,2,43,
,,,,,,,,,,,,,,,,,,,,,,,,,,images/exp1b_trial_41_colour1_distractors19_r.png,r,2,031,001,2021-04-26_14h05.49.255,searchDisc4,2020.2.10,Win32,60,,,space,0.38336,2,1,0.522355,,0,398,398,155,1,1b,41,1,19,
,,,,,,,,,,,,,,,,,,,,,,,,,,images/exp2c_trial_29_colour2_distractors43_l.png,l,1,031,001,2021-04-26_14h05.49.255,searchDisc4,2020.2.10,Win32,60,,,space,0.3496,1,1,0.52792,,0,399,399,485,1,2c,29,2,43,
,,,,,,,,,,,,,,,,,,,,,,,,,,images/exp2a_trial_8_colour2_distractors9_r.png,r,2,031,001,2021-04-26_14h05.49.255,searchDisc4,2020.2.10,Win32,60,,,space,0.36749,2,1,0.506015,,0,400,400,236,1,2a,8,2,9,
,,,,,,,,,,,,,,,,,,,,,,,,,,images/exp1a_trial_84_colour2_distractors9_r.png,r,2,031,001,2021-04-26_14h05.49.255,searchDisc4,2020.2.10,Win32,60,,,space,0.44138,2,1,0.587175,,0,401,401,84,1,1a,84,2,9,
,,,,,,,,,,,,,,,,,,,,,,,,,,images/exp1b_trial_101_colour2_distractors4_l.png,l,1,031,001,2021-04-26_14h05.49.255,searchDisc4,2020.2.10,Win32,60,,,space,0.44967,1,1,0.572135,,0,402,402,215,1,1b,101,2,4,
,,,,,,,,,,,,,,,,,,,,,,,,,,images/exp2b_trial_69_colour3_distractors4_l.png,l,1,031,001,2021-04-26_14h05.49.255,searchDisc4,2020.2.10,Win32,60,,,space,0.378145,1,1,0.661825,,0,403,403,411,1,2b,69,3,4,
,,,,,,,,,,,,,,,,,,,,,,,,,,images/exp2c_trial_48_colour2_distractors31_r.png,r,2,031,001,2021-04-26_14h05.49.255,searchDisc4,2020.2.10,Win32,60,,,space,0.422475,2,1,0.60445,,0,404,404,504,1,2c,48,2,31,
,,,,,,,,,,,,,,,,,,,,,,,,,,images/exp1b_trial_84_colour2_distractors9_r.png,r,2,031,001,2021-04-26_14h05.49.255,searchDisc4,2020.2.10,Win32,60,,,space,0.29118,2,1,0.698155,,0,405,405,198,1,1b,84,2,9,
,,,,,,,,,,,,,,,,,,,,,,,,,,images/exp2a_trial_23_colour1_distractors43_l.png,l,1,031,001,2021-04-26_14h05.49.255,searchDisc4,2020.2.10,Win32,60,,,space,0.29756,1,1,0.893875,,0,406,406,251,1,2a,23,1,43,
,,,,,,,,,,,,,,,,,,,,,,,,,,images/exp1a_trial_14_colour3_distractors9_r.png,r,2,031,001,2021-04-26_14h05.49.255,searchDisc4,2020.2.10,Win32,60,,,space,0.30975,2,1,0.46142,,0,407,407,14,1,1a,14,3,9,
,,,,,,,,,,,,,,,,,,,,,,,,,,images/exp2c_trial_33_colour3_distractors19_l.png,l,1,031,001,2021-04-26_14h05.49.255,searchDisc4,2020.2.10,Win32,60,,,space,0.303035,1,1,0.575495,,0,408,408,489,1,2c,33,3,19,
,,,,,,,,,,,,,,,,,,,,,,,,,,images/exp2a_trial_26_colour2_distractors9_l.png,l,1,031,001,2021-04-26_14h05.49.255,searchDisc4,2020.2.10,Win32,60,,,space,0.330295,1,1,0.55582,,0,409,409,254,1,2a,26,2,9,
,,,,,,,,,,,,,,,,,,,,,,,,,,images/exp1a_trial_36_colour0_distractors0_r.png,r,2,031,001,2021-04-26_14h05.49.255,searchDisc4,2020.2.10,Win32,60,,,space,0.32187,2,1,0.495415,,0,410,410,36,1,1a,36,0,0,
,,,,,,,,,,,,,,,,,,,,,,,,,,images/exp1a_trial_73_colour3_distractors43_l.png,l,1,031,001,2021-04-26_14h05.49.255,searchDisc4,2020.2.10,Win32,60,,,space,0.33436,1,1,0.59367,,0,411,411,73,1,1a,73,3,43,
,,,,,,,,,,,,,,,,,,,,,,,,,,images/exp2b_trial_102_colour2_distractors9_l.png,l,1,031,001,2021-04-26_14h05.49.255,searchDisc4,2020.2.10,Win32,60,,,space,0.32691,1,1,0.676895,,0,412,412,444,1,2b,102,2,9,
,,,,,,,,,,,,,,,,,,,,,,,,,,images/exp1b_trial_85_colour2_distractors19_r.png,r,2,031,001,2021-04-26_14h05.49.255,searchDisc4,2020.2.10,Win32,60,,,space,0.31669,2,1,0.62666,,0,413,413,199,1,1b,85,2,19,
,,,,,,,,,,,,,,,,,,,,,,,,,,images/exp1b_trial_42_colour1_distractors31_r.png,r,2,031,001,2021-04-26_14h05.49.255,searchDisc4,2020.2.10,Win32,60,,,space,0.24486,2,1,0.66079,,0,414,414,156,1,1b,42,1,31,
,,,,,,,,,,,,,,,,,,,,,,,,,,images/exp2a_trial_39_colour1_distractors4_r.png,r,2,031,001,2021-04-26_14h05.49.255,searchDisc4,2020.2.10,Win32,60,,,space,0.26437,2,1,0.622455,,0,415,415,267,1,2a,39,1,4,
,,,,,,,,,,,,,,,,,,,,,,,,,,images/exp2c_trial_43_colour1_distractors43_r.png,r,2,031,001,2021-04-26_14h05.49.255,searchDisc4,2020.2.10,Win32,60,,,space,0.25612,2,1,0.488775,,0,416,416,499,1,2c,43,1,43,
,,,,,,,,,,,,,,,,,,,,,,,,,,images/exp2b_trial_15_colour3_distractors19_r.png,r,2,031,001,2021-04-26_14h05.49.255,searchDisc4,2020.2.10,Win32,60,,,space,0.303785,2,1,0.671205,,0,417,417,357,1,2b,15,3,19,
,,,,,,,,,,,,,,,,,,,,,,,,,,images/exp2a_trial_32_colour3_distractors9_l.png,l,1,031,001,2021-04-26_14h05.49.255,searchDisc4,2020.2.10,Win32,60,,,space,0.23861,1,1,0.502035,,0,418,418,260,1,2a,32,3,9,
,,,,,,,,,,,,,,,,,,,,,,,,,,images/exp1b_trial_95_colour1_distractors4_l.png,l,1,031,001,2021-04-26_14h05.49.255,searchDisc4,2020.2.10,Win32,60,,,space,0.22229,1,1,0.504475,space,0,419,419,209,1,1b,95,1,4,0.204635
,,,,,,,,,,,,,,,,,,,,,,,,,,images/exp2a_trial_76_colour1_distractors1_r.png,r,2,031,001,2021-04-26_14h05.49.255,searchDisc4,2020.2.10,Win32,60,,,space,0.834065,2,1,0.41418,,0,420,420,304,1,2a,76,1,1,
,,,,,,,,,,,,,,,,,,,,,,,,,,images/exp2b_trial_46_colour2_distractors9_r.png,r,2,031,001,2021-04-26_14h05.49.255,searchDisc4,2020.2.10,Win32,60,,,space,0.377885,2,1,0.51791,,0,421,421,388,1,2b,46,2,9,
,,,,,,,,,,,,,,,,,,,,,,,,,,images/exp1b_trial_88_colour3_distractors1_r.png,r,2,031,001,2021-04-26_14h05.49.255,searchDisc4,2020.2.10,Win32,60,,,space,0.34921,2,1,0.519675,,0,422,422,202,1,1b,88,3,1,
,,,,,,,,,,,,,,,,,,,,,,,,,,images/exp1a_trial_8_colour2_distractors9_r.png,r,2,031,001,2021-04-26_14h05.49.255,searchDisc4,2020.2.10,Win32,60,,,space,0.40543,2,1,0.439675,,0,423,423,8,1,1a,8,2,9,
,,,,,,,,,,,,,,,,,,,,,,,,,,images/exp2a_trial_49_colour2_distractors43_r.png,r,2,031,001,2021-04-26_14h05.49.255,searchDisc4,2020.2.10,Win32,60,,,space,0.369085,2,1,0.529155,,0,424,424,277,1,2a,49,2,43,
,,,,,,,,,,,,,,,,,,,,,,,,,,images/exp2b_trial_84_colour2_distractors9_r.png,r,2,031,001,2021-04-26_14h05.49.255,searchDisc4,2020.2.10,Win32,60,,,space,0.46631,2,1,0.455015,,0,425,425,426,1,2b,84,2,9,
,,,,,,,,,,,,,,,,,,,,,,,,,,images/exp1b_trial_12_colour3_distractors1_r.png,r,2,031,001,2021-04-26_14h05.49.255,searchDisc4,2020.2.10,Win32,60,,,space,0.5326,2,1,0.688295,,0,426,426,126,1,1b,12,3,1,
,,,,,,,,,,,,,,,,,,,,,,,,,,images/exp1a_trial_68_colour3_distractors1_l.png,l,1,031,001,2021-04-26_14h05.49.255,searchDisc4,2020.2.10,Win32,60,,,space,0.38325,1,1,0.48919,,0,427,427,68,1,1a,68,3,1,
,,,,,,,,,,,,,,,,,,,,,,,,,,images/exp1a_trial_3_colour1_distractors19_r.png,r,2,031,001,2021-04-26_14h05.49.255,searchDisc4,2020.2.10,Win32,60,,,space,0.37007,2,1,0.46023,,0,428,428,3,1,1a,3,1,19,
,,,,,,,,,,,,,,,,,,,,,,,,,,images/exp1a_trial_85_colour2_distractors19_r.png,r,2,031,001,2021-04-26_14h05.49.255,searchDisc4,2020.2.10,Win32,60,,,space,0.39035,2,1,0.576605,,0,429,429,85,1,1a,85,2,19,
,,,,,,,,,,,,,,,,,,,,,,,,,,images/exp2a_trial_74_colour0_distractors0_r.png,r,2,031,001,2021-04-26_14h05.49.255,searchDisc4,2020.2.10,Win32,60,,,space,0.36468,2,1,0.58653,,0,430,430,302,1,2a,74,0,0,
,,,,,,,,,,,,,,,,,,,,,,,,,,images/exp2c_trial_56_colour1_distractors1_l.png,l,1,031,001,2021-04-26_14h05.49.255,searchDisc4,2020.2.10,Win32,60,,,space,0.35628,1,1,0.60857,,0,431,431,512,1,2c,56,1,1,
,,,,,,,,,,,,,,,,,,,,,,,,,,images/exp2a_trial_75_colour0_distractors0_l.png,l,1,031,001,2021-04-26_14h05.49.255,searchDisc4,2020.2.10,Win32,60,,,space,0.363935,1,1,0.53783,,0,432,432,303,1,2a,75,0,0,
,,,,,,,,,,,,,,,,,,,,,,,,,,images/exp1b_trial_11_colour2_distractors43_r.png,r,2,031,001,2021-04-26_14h05.49.255,searchDisc4,2020.2.10,Win32,60,,,space,0.332555,2,1,0.7208,,0,433,433,125,1,1b,11,2,43,
,,,,,,,,,,,,,,,,,,,,,,,,,,images/exp1b_trial_100_colour2_distractors1_l.png,l,1,031,001,2021-04-26_14h05.49.255,searchDisc4,2020.2.10,Win32,60,,,space,0.31997,1,1,0.706445,,0,434,434,214,1,1b,100,2,1,
,,,,,,,,,,,,,,,,,,,,,,,,,,images/exp2a_trial_10_colour2_distractors31_r.png,r,2,031,001,2021-04-26_14h05.49.255,searchDisc4,2020.2.10,Win32,60,,,space,0.243745,2,1,0.680245,,0,435,435,238,1,2a,10,2,31,
,,,,,,,,,,,,,,,,,,,,,,,,,,images/exp2b_trial_14_colour3_distractors9_r.png,r,2,031,001,2021-04-26_14h05.49.255,searchDisc4,2020.2.10,Win32,60,,,space,0.18274,2,1,0.552805,,0,436,436,356,1,2b,14,3,9,
,,,,,,,,,,,,,,,,,,,,,,,,,,images/exp1a_trial_38_colour1_distractors1_r.png,r,2,031,001,2021-04-26_14h05.49.255,searchDisc4,2020.2.10,Win32,60,,,space,0.164335,2,1,0.462895,,0,437,437,38,1,1a,38,1,1,
,,,,,,,,,,,,,,,,,,,,,,,,,,images/exp1a_trial_77_colour1_distractors4_r.png,r,2,031,001,2021-04-26_14h05.49.255,searchDisc4,2020.2.10,Win32,60,,,space,0.2238,2,1,0.48118,,0,438,438,77,1,1a,77,1,4,
,,,,,,,,,,,,,,,,,,,,,,,,,,images/exp2b_trial_98_colour1_distractors31_l.png,l,1,031,001,2021-04-26_14h05.49.255,searchDisc4,2020.2.10,Win32,60,,,space,0.24218,1,1,0.61844,,0,439,439,440,1,2b,98,1,31,
,,,,,,,,,,,,,,,,,,,,,,,,,,images/exp2b_trial_49_colour2_distractors43_r.png,r,2,031,001,2021-04-26_14h05.49.255,searchDisc4,2020.2.10,Win32,60,,,space,0.220945,2,1,0.604795,,0,440,440,391,1,2b,49,2,43,
,,,,,,,,,,,,,,,,,,,,,,,,,,images/exp2c_trial_34_colour3_distractors31_l.png,l,1,031,001,2021-04-26_14h05.49.255,searchDisc4,2020.2.10,Win32,60,,,space,0.26622,1,1,0.496745,,0,441,441,490,1,2c,34,3,31,
,,,,,,,,,,,,,,,,,,,,,,,,,,images/exp2c_trial_64_colour2_distractors9_l.png,l,1,031,001,2021-04-26_14h05.49.255,searchDisc4,2020.2.10,Win32,60,,,space,0.33633,1,1,0.589165,,0,442,442,520,1,2c,64,2,9,
,,,,,,,,,,,,,,,,,,,,,,,,,,images/exp1b_trial_103_colour2_distractors19_l.png,l,1,031,001,2021-04-26_14h05.49.255,searchDisc4,2020.2.10,Win32,60,,,space,0.448615,1,1,0.679625,,0,443,443,217,1,1b,103,2,19,
,,,,,,,,,,,,,,,,,,,,,,,,,,images/exp1a_trial_6_colour2_distractors1_r.png,r,2,031,001,2021-04-26_14h05.49.255,searchDisc4,2020.2.10,Win32,60,,,space,0.321925,1,0,0.494595,,0,444,444,6,1,1a,6,2,1,
,,,,,,,,,,,,,,,,,,,,,,,,,,images/exp2c_trial_74_colour0_distractors0_r.png,r,2,031,001,2021-04-26_14h05.49.255,searchDisc4,2020.2.10,Win32,60,,,space,0.47804,2,1,0.413255,,0,445,445,530,1,2c,74,0,0,
,,,,,,,,,,,,,,,,,,,,,,,,,,images/exp2b_trial_40_colour1_distractors9_r.png,r,2,031,001,2021-04-26_14h05.49.255,searchDisc4,2020.2.10,Win32,60,,,space,1.152645,2,1,0.502175,,0,446,446,382,1,2b,40,1,9,
,,,,,,,,,,,,,,,,,,,,,,,,,,images/exp2c_trial_41_colour1_distractors19_r.png,r,2,031,001,2021-04-26_14h05.49.255,searchDisc4,2020.2.10,Win32,60,,,space,0.25992,2,1,0.47553,,0,447,447,497,1,2c,41,1,19,
,,,,,,,,,,,,,,,,,,,,,,,,,,images/exp1a_trial_26_colour2_distractors9_l.png,l,1,031,001,2021-04-26_14h05.49.255,searchDisc4,2020.2.10,Win32,60,,,space,0.35582,1,1,0.87909,,0,448,448,26,1,1a,26,2,9,
,,,,,,,,,,,,,,,,,,,,,,,,,,images/exp1a_trial_66_colour2_distractors31_l.png,l,1,031,001,2021-04-26_14h05.49.255,searchDisc4,2020.2.10,Win32,60,,,space,0.37616,1,1,0.79452,,0,449,449,66,1,1a,66,2,31,
,,,,,,,,,,,,,,,,,,,,,,,,,,images/exp2a_trial_68_colour3_distractors1_l.png,l,1,031,001,2021-04-26_14h05.49.255,searchDisc4,2020.2.10,Win32,60,,,space,0.32767,1,1,0.379575,,0,450,450,296,1,2a,68,3,1,
,,,,,,,,,,,,,,,,,,,,,,,,,,images/exp2c_trial_57_colour1_distractors4_l.png,l,1,031,001,2021-04-26_14h05.49.255,searchDisc4,2020.2.10,Win32,60,,,space,0.288735,1,1,0.41631,,0,451,451,513,1,2c,57,1,4,
,,,,,,,,,,,,,,,,,,,,,,,,,,images/exp1a_trial_22_colour1_distractors31_l.png,l,1,031,001,2021-04-26_14h05.49.255,searchDisc4,2020.2.10,Win32,60,,,space,0.29904,2,0,0.48649,,0,452,452,22,1,1a,22,1,31,
,,,,,,,,,,,,,,,,,,,,,,,,,,images/exp2c_trial_112_colour0_distractors0_r.png,r,2,031,001,2021-04-26_14h05.49.255,searchDisc4,2020.2.10,Win32,60,,,space,0.39811,2,1,0.63978,,0,453,453,568,1,2c,112,0,0,
,,,,,,,,,,,,,,,,,,,,,,,,,,images/exp1b_trial_24_colour2_distractors1_l.png,l,1,031,001,2021-04-26_14h05.49.255,searchDisc4,2020.2.10,Win32,60,,,space,0.78781,1,1,0.64663,,0,454,454,138,1,1b,24,2,1,
,,,,,,,,,,,,,,,,,,,,,,,,,,images/exp2b_trial_91_colour3_distractors19_r.png,r,2,031,001,2021-04-26_14h05.49.255,searchDisc4,2020.2.10,Win32,60,,,space,0.432825,2,1,0.472355,,0,455,455,433,1,2b,91,3,19,
,,,,,,,,,,,,,,,,,,,,,,,,,,images/exp1a_trial_65_colour2_distractors19_l.png,l,1,031,001,2021-04-26_14h05.49.255,searchDisc4,2020.2.10,Win32,60,,,space,0.401085,1,1,0.602725,,0,456,456,65,1,1a,65,2,19,
,,,,,,,,,,,,,,,,,,,,,,,,,,images/exp1b_trial_93_colour3_distractors43_r.png,r,2,031,001,2021-04-26_14h05.49.255,searchDisc4,2020.2.10,Win32,60,,,space,0.47031,2,1,0.756655,,0,457,457,207,1,1b,93,3,43,
,,,,,,,,,,,,,,,,,,,,,,,,,,images/exp2a_trial_72_colour3_distractors31_l.png,l,1,031,001,2021-04-26_14h05.49.255,searchDisc4,2020.2.10,Win32,60,,,space,0.4745,1,1,0.57513,,0,458,458,300,1,2a,72,3,31,
,,,,,,,,,,,,,,,,,,,,,,,,,,images/exp1b_trial_6_colour2_distractors1_r.png,r,2,031,001,2021-04-26_14h05.49.255,searchDisc4,2020.2.10,Win32,60,,,space,0.58269,2,1,0.603835,,0,459,459,120,1,1b,6,2,1,
,,,,,,,,,,,,,,,,,,,,,,,,,,images/exp1b_trial_38_colour1_distractors1_r.png,r,2,031,001,2021-04-26_14h05.49.255,searchDisc4,2020.2.10,Win32,60,,,space,0.54031,2,1,0.760935,,0,460,460,152,1,1b,38,1,1,
,,,,,,,,,,,,,,,,,,,,,,,,,,images/exp1a_trial_90_colour3_distractors9_r.png,r,2,031,001,2021-04-26_14h05.49.255,searchDisc4,2020.2.10,Win32,60,,,space,0.43338,2,1,0.738135,,0,461,461,90,1,1a,90,3,9,
,,,,,,,,,,,,,,,,,,,,,,,,,,images/exp1b_trial_5_colour1_distractors43_r.png,r,2,031,001,2021-04-26_14h05.49.255,searchDisc4,2020.2.10,Win32,60,,,space,0.44381,2,1,0.53726,,0,462,462,119,1,1b,5,1,43,
,,,,,,,,,,,,,,,,,,,,,,,,,,images/exp2b_trial_64_colour2_distractors9_l.png,l,1,031,001,2021-04-26_14h05.49.255,searchDisc4,2020.2.10,Win32,60,,,space,0.43451,1,1,0.820425,,0,463,463,406,1,2b,64,2,9,
,,,,,,,,,,,,,,,,,,,,,,,,,,images/exp1b_trial_22_colour1_distractors31_l.png,l,1,031,001,2021-04-26_14h05.49.255,searchDisc4,2020.2.10,Win32,60,,,space,0.24497,1,1,0.885035,,0,464,464,136,1,1b,22,1,31,
,,,,,,,,,,,,,,,,,,,,,,,,,,images/exp1b_trial_75_colour0_distractors0_l.png,l,1,031,001,2021-04-26_14h05.49.255,searchDisc4,2020.2.10,Win32,60,,,space,0.365945,1,1,0.52847,,0,465,465,189,1,1b,75,0,0,
,,,,,,,,,,,,,,,,,,,,,,,,,,images/exp1b_trial_62_colour2_distractors1_l.png,l,1,031,001,2021-04-26_14h05.49.255,searchDisc4,2020.2.10,Win32,60,,,space,0.3754,1,1,0.770555,,0,466,466,176,1,1b,62,2,1,
,,,,,,,,,,,,,,,,,,,,,,,,,,images/exp2c_trial_19_colour1_distractors4_l.png,l,1,031,001,2021-04-26_14h05.49.255,searchDisc4,2020.2.10,Win32,60,,,space,0.43119,1,1,0.487415,,0,467,467,475,1,2c,19,1,4,
,,,,,,,,,,,,,,,,,,,,,,,,,,images/exp1a_trial_49_colour2_distractors43_r.png,r,2,031,001,2021-04-26_14h05.49.255,searchDisc4,2020.2.10,Win32,60,,,space,0.449595,2,1,0.6536,,0,468,468,49,1,1a,49,2,43,
,,,,,,,,,,,,,,,,,,,,,,,,,,images/exp2b_trial_78_colour1_distractors9_r.png,r,2,031,001,2021-04-26_14h05.49.255,searchDisc4,2020.2.10,Win32,60,,,space,0.375285,1,0,0.471715,,0,469,469,420,1,2b,78,1,9,
,,,,,,,,,,,,,,,,,,,,,,,,,,images/exp2b_trial_71_colour3_distractors19_l.png,l,1,031,001,2021-04-26_14h05.49.255,searchDisc4,2020.2.10,Win32,60,,,space,0.45958,1,1,0.707125,,0,470,470,413,1,2b,71,3,19,
,,,,,,,,,,,,,,,,,,,,,,,,,,images/exp2b_trial_54_colour3_distractors31_r.png,r,2,031,001,2021-04-26_14h05.49.255,searchDisc4,2020.2.10,Win32,60,,,space,0.346845,2,1,0.55837,,0,471,471,396,1,2b,54,3,31,
,,,,,,,,,,,,,,,,,,,,,,,,,,images/exp1a_trial_34_colour3_distractors31_l.png,l,1,031,001,2021-04-26_14h05.49.255,searchDisc4,2020.2.10,Win32,60,,,space,0.31602,1,1,0.585905,,0,472,472,34,1,1a,34,3,31,
,,,,,,,,,,,,,,,,,,,,,,,,,,images/exp2b_trial_35_colour3_distractors43_l.png,l,1,031,001,2021-04-26_14h05.49.255,searchDisc4,2020.2.10,Win32,60,,,space,0.382925,1,1,0.56812,,0,473,473,377,1,2b,35,3,43,
,,,,,,,,,,,,,,,,,,,,,,,,,,images/exp2a_trial_48_colour2_distractors31_r.png,r,2,031,001,2021-04-26_14h05.49.255,searchDisc4,2020.2.10,Win32,60,,,space,0.39982,2,1,0.56311,,0,474,474,276,1,2a,48,2,31,
,,,,,,,,,,,,,,,,,,,,,,,,,,images/exp2b_trial_41_colour1_distractors19_r.png,r,2,031,001,2021-04-26_14h05.49.255,searchDisc4,2020.2.10,Win32,60,,,space,0.35425,2,1,0.57338,,0,475,475,383,1,2b,41,1,19,
,,,,,,,,,,,,,,,,,,,,,,,,,,images/exp1a_trial_52_colour3_distractors9_r.png,r,2,031,001,2021-04-26_14h05.49.255,searchDisc4,2020.2.10,Win32,60,,,space,0.42754,2,1,0.748025,,0,476,476,52,1,1a,52,3,9,
