X Scale,Y Scale,key_resp_10.keys,key_resp_10.rt,key_resp_11.keys,key_resp_11.rt,key_resp_12.keys,key_resp_12.rt,key_resp_13.keys,key_resp_13.rt,key_resp_5.keys,key_resp_5.rt,key_resp_8.keys,key_resp_8.rt,key_resp_6.keys,key_resp_6.rt,key_resp_7.keys,key_resp_7.rt,key_resp_4.keys,key_resp_4.corr,key_resp_4.rt,trials_2.thisRepN,trials_2.thisTrialN,trials_2.thisN,trials_2.thisIndex,trials_2.ran,ImageFile,targ_side,correctAnswer,participant,session,date,expName,psychopyVersion,OS,frameRate,key_resp_3.keys,key_resp_3.rt,key_resp_9.keys,key_resp_9.rt,key_resp_2.keys,key_resp_2.corr,key_resp_2.rt,key_resp.keys,trials.thisRepN,trials.thisTrialN,trials.thisN,trials.thisIndex,trials.ran,exp,trial,colour,distNo,key_resp.rt
19.8,19.9,space,1.63014,space,0.966605,space,0.64112,space,0.44836,space,2.47712,space,2.017215,space,0.588425,space,0.510055,1,1,0.72923,0,0,0,13,1,Practice arrays/exp1a_trial_28_colour2_distractors31_l.png,l,1,032,001,2021-04-26_14h21.25.518,searchDisc4,2020.2.10,Win32,60,,,,,,,,,,,,,,,,,,
,,,,,,,,,,,,,,,,space,0.30609,1,1,0.43014,0,1,1,9,1,Practice arrays/exp1a_trial_19_colour1_distractors4_l.png,l,1,032,001,2021-04-26_14h21.25.518,searchDisc4,2020.2.10,Win32,60,,,,,,,,,,,,,,,,,,
,,,,,,,,,,,,,,,,space,0.23421,1,1,0.717735,0,2,2,14,1,Practice arrays/exp1a_trial_29_colour2_distractors43_l.png,l,1,032,001,2021-04-26_14h21.25.518,searchDisc4,2020.2.10,Win32,60,,,,,,,,,,,,,,,,,,
,,,,,,,,,,,,,,,,space,0.297875,1,1,0.448095,0,3,3,19,1,Practice arrays/exp1a_trial_37_colour0_distractors0_l.png,l,1,032,001,2021-04-26_14h21.25.518,searchDisc4,2020.2.10,Win32,60,,,,,,,,,,,,,,,,,,
,,,,,,,,,,,,,,,,space,0.550115,2,1,0.58325,0,4,4,2,1,Practice arrays/exp1a_trial_5_colour1_distractors43_r.png,r,2,032,001,2021-04-26_14h21.25.518,searchDisc4,2020.2.10,Win32,60,,,,,,,,,,,,,,,,,,
,,,,,,,,,,,,,,,,space,0.31352,2,1,0.43158,0,5,5,0,1,Practice arrays/exp1a_trial_0_colour1_distractors1_r.png,r,2,032,001,2021-04-26_14h21.25.518,searchDisc4,2020.2.10,Win32,60,,,,,,,,,,,,,,,,,,
,,,,,,,,,,,,,,,,space,0.215825,1,1,0.57164,0,6,6,15,1,Practice arrays/exp1a_trial_32_colour3_distractors9_l.png,l,1,032,001,2021-04-26_14h21.25.518,searchDisc4,2020.2.10,Win32,60,,,,,,,,,,,,,,,,,,
,,,,,,,,,,,,,,,,space,0.245435,1,1,0.42984,0,7,7,17,1,Practice arrays/exp1a_trial_35_colour3_distractors43_l.png,l,1,032,001,2021-04-26_14h21.25.518,searchDisc4,2020.2.10,Win32,60,,,,,,,,,,,,,,,,,,
,,,,,,,,,,,,,,,,space,0.229925,2,1,0.48374,0,8,8,7,1,Practice arrays/exp1a_trial_13_colour3_distractors4_r.png,r,2,032,001,2021-04-26_14h21.25.518,searchDisc4,2020.2.10,Win32,60,,,,,,,,,,,,,,,,,,
,,,,,,,,,,,,,,,,space,0.32364,2,1,0.5163,0,9,9,6,1,Practice arrays/exp1a_trial_12_colour3_distractors1_r.png,r,2,032,001,2021-04-26_14h21.25.518,searchDisc4,2020.2.10,Win32,60,,,,,,,,,,,,,,,,,,
,,,,,,,,,,,,,,,,space,0.521065,2,1,0.48178,0,10,10,4,1,Practice arrays/exp1a_trial_8_colour2_distractors9_r.png,r,2,032,001,2021-04-26_14h21.25.518,searchDisc4,2020.2.10,Win32,60,,,,,,,,,,,,,,,,,,
,,,,,,,,,,,,,,,,space,0.2224,2,1,0.61856,0,11,11,3,1,Practice arrays/exp1a_trial_7_colour2_distractors4_r.png,r,2,032,001,2021-04-26_14h21.25.518,searchDisc4,2020.2.10,Win32,60,,,,,,,,,,,,,,,,,,
,,,,,,,,,,,,,,,,space,0.23809,2,1,0.365525,0,12,12,1,1,Practice arrays/exp1a_trial_3_colour1_distractors19_r.png,r,2,032,001,2021-04-26_14h21.25.518,searchDisc4,2020.2.10,Win32,60,,,,,,,,,,,,,,,,,,
,,,,,,,,,,,,,,,,space,0.26413,1,1,0.608345,0,13,13,10,1,Practice arrays/exp1a_trial_20_colour1_distractors9_l.png,l,1,032,001,2021-04-26_14h21.25.518,searchDisc4,2020.2.10,Win32,60,,,,,,,,,,,,,,,,,,
,,,,,,,,,,,,,,,,space,0.264825,2,1,0.529855,0,14,14,8,1,Practice arrays/exp1a_trial_16_colour3_distractors31_r.png,r,2,032,001,2021-04-26_14h21.25.518,searchDisc4,2020.2.10,Win32,60,,,,,,,,,,,,,,,,,,
,,,,,,,,,,,,,,,,space,0.27351,1,1,0.546555,0,15,15,12,1,Practice arrays/exp1a_trial_25_colour2_distractors4_l.png,l,1,032,001,2021-04-26_14h21.25.518,searchDisc4,2020.2.10,Win32,60,,,,,,,,,,,,,,,,,,
,,,,,,,,,,,,,,,,space,0.279125,1,1,0.6001,0,16,16,11,1,Practice arrays/exp1a_trial_21_colour1_distractors19_l.png,l,1,032,001,2021-04-26_14h21.25.518,searchDisc4,2020.2.10,Win32,60,,,,,,,,,,,,,,,,,,
,,,,,,,,,,,,,,,,space,0.20358,2,1,0.69004,0,17,17,5,1,Practice arrays/exp1a_trial_10_colour2_distractors31_r.png,r,2,032,001,2021-04-26_14h21.25.518,searchDisc4,2020.2.10,Win32,60,,,,,,,,,,,,,,,,,,
,,,,,,,,,,,,,,,,space,0.19779,2,1,0.38527,0,18,18,18,1,Practice arrays/exp1a_trial_36_colour0_distractors0_r.png,r,2,032,001,2021-04-26_14h21.25.518,searchDisc4,2020.2.10,Win32,60,,,,,,,,,,,,,,,,,,
,,,,,,,,,,,,,,,,space,0.237935,1,1,0.427285,0,19,19,16,1,Practice arrays/exp1a_trial_33_colour3_distractors19_l.png,l,1,032,001,2021-04-26_14h21.25.518,searchDisc4,2020.2.10,Win32,60,,,,,,,,,,,,,,,,,,
,,,,,,,,,,,,,,,,,,,,,,,,,,images/exp2c_trial_94_colour1_distractors1_l.png,l,1,032,001,2021-04-26_14h21.25.518,searchDisc4,2020.2.10,Win32,60,space,1.33462,space,2.756985,1,1,0.482865,,0,0,0,550,1,2c,94,1,1,
,,,,,,,,,,,,,,,,,,,,,,,,,,images/exp2a_trial_45_colour2_distractors4_r.png,r,2,032,001,2021-04-26_14h21.25.518,searchDisc4,2020.2.10,Win32,60,,,space,0.37045,2,1,0.424455,,0,1,1,273,1,2a,45,2,4,
,,,,,,,,,,,,,,,,,,,,,,,,,,images/exp2c_trial_3_colour1_distractors19_r.png,r,2,032,001,2021-04-26_14h21.25.518,searchDisc4,2020.2.10,Win32,60,,,space,0.28966,2,1,0.433605,,0,2,2,459,1,2c,3,1,19,
,,,,,,,,,,,,,,,,,,,,,,,,,,images/exp1a_trial_41_colour1_distractors19_r.png,r,2,032,001,2021-04-26_14h21.25.518,searchDisc4,2020.2.10,Win32,60,,,space,0.255765,1,0,0.53018,,0,3,3,41,1,1a,41,1,19,
,,,,,,,,,,,,,,,,,,,,,,,,,,images/exp1b_trial_39_colour1_distractors4_r.png,r,2,032,001,2021-04-26_14h21.25.518,searchDisc4,2020.2.10,Win32,60,,,space,0.431325,2,1,0.69111,,0,4,4,153,1,1b,39,1,4,
,,,,,,,,,,,,,,,,,,,,,,,,,,images/exp2b_trial_75_colour0_distractors0_l.png,l,1,032,001,2021-04-26_14h21.25.518,searchDisc4,2020.2.10,Win32,60,,,space,0.263605,1,1,0.489995,,0,5,5,417,1,2b,75,0,0,
,,,,,,,,,,,,,,,,,,,,,,,,,,images/exp1b_trial_56_colour1_distractors1_l.png,l,1,032,001,2021-04-26_14h21.25.518,searchDisc4,2020.2.10,Win32,60,,,space,0.449035,1,1,0.490615,,0,6,6,170,1,1b,56,1,1,
,,,,,,,,,,,,,,,,,,,,,,,,,,images/exp1a_trial_28_colour2_distractors31_l.png,l,1,032,001,2021-04-26_14h21.25.518,searchDisc4,2020.2.10,Win32,60,,,space,0.327305,1,1,0.741925,,0,7,7,28,1,1a,28,2,31,
,,,,,,,,,,,,,,,,,,,,,,,,,,images/exp1a_trial_105_colour2_distractors43_l.png,l,1,032,001,2021-04-26_14h21.25.518,searchDisc4,2020.2.10,Win32,60,,,space,0.30204,1,1,0.503155,,0,8,8,105,1,1a,105,2,43,
,,,,,,,,,,,,,,,,,,,,,,,,,,images/exp2a_trial_76_colour1_distractors1_r.png,r,2,032,001,2021-04-26_14h21.25.518,searchDisc4,2020.2.10,Win32,60,,,space,0.26196,2,1,0.439095,,0,9,9,304,1,2a,76,1,1,
,,,,,,,,,,,,,,,,,,,,,,,,,,images/exp1b_trial_26_colour2_distractors9_l.png,l,1,032,001,2021-04-26_14h21.25.518,searchDisc4,2020.2.10,Win32,60,,,space,0.292975,1,1,1.51766,,0,10,10,140,1,1b,26,2,9,
,,,,,,,,,,,,,,,,,,,,,,,,,,images/exp2b_trial_39_colour1_distractors4_r.png,r,2,032,001,2021-04-26_14h21.25.518,searchDisc4,2020.2.10,Win32,60,,,space,0.30459,2,1,0.483275,,0,11,11,381,1,2b,39,1,4,
,,,,,,,,,,,,,,,,,,,,,,,,,,images/exp1a_trial_19_colour1_distractors4_l.png,l,1,032,001,2021-04-26_14h21.25.518,searchDisc4,2020.2.10,Win32,60,,,space,0.27514,1,1,0.44921,,0,12,12,19,1,1a,19,1,4,
,,,,,,,,,,,,,,,,,,,,,,,,,,images/exp1b_trial_42_colour1_distractors31_r.png,r,2,032,001,2021-04-26_14h21.25.518,searchDisc4,2020.2.10,Win32,60,,,space,0.28855,2,1,0.494695,,0,13,13,156,1,1b,42,1,31,
,,,,,,,,,,,,,,,,,,,,,,,,,,images/exp2a_trial_86_colour2_distractors31_r.png,r,2,032,001,2021-04-26_14h21.25.518,searchDisc4,2020.2.10,Win32,60,,,space,0.21307,2,1,0.440425,,0,14,14,314,1,2a,86,2,31,
,,,,,,,,,,,,,,,,,,,,,,,,,,images/exp2c_trial_99_colour1_distractors43_l.png,l,1,032,001,2021-04-26_14h21.25.518,searchDisc4,2020.2.10,Win32,60,,,space,0.241085,1,1,0.45641,,0,15,15,555,1,2c,99,1,43,
,,,,,,,,,,,,,,,,,,,,,,,,,,images/exp2b_trial_16_colour3_distractors31_r.png,r,2,032,001,2021-04-26_14h21.25.518,searchDisc4,2020.2.10,Win32,60,,,space,0.23583,2,1,0.592595,,0,16,16,358,1,2b,16,3,31,
,,,,,,,,,,,,,,,,,,,,,,,,,,images/exp1b_trial_95_colour1_distractors4_l.png,l,1,032,001,2021-04-26_14h21.25.518,searchDisc4,2020.2.10,Win32,60,,,space,0.187295,1,1,0.50953,,0,17,17,209,1,1b,95,1,4,
,,,,,,,,,,,,,,,,,,,,,,,,,,images/exp1b_trial_49_colour2_distractors43_r.png,r,2,032,001,2021-04-26_14h21.25.518,searchDisc4,2020.2.10,Win32,60,,,space,0.223525,2,1,0.565585,,0,18,18,163,1,1b,49,2,43,
,,,,,,,,,,,,,,,,,,,,,,,,,,images/exp2b_trial_85_colour2_distractors19_r.png,r,2,032,001,2021-04-26_14h21.25.518,searchDisc4,2020.2.10,Win32,60,,,space,0.257215,2,1,0.44475,,0,19,19,427,1,2b,85,2,19,
,,,,,,,,,,,,,,,,,,,,,,,,,,images/exp2c_trial_86_colour2_distractors31_r.png,r,2,032,001,2021-04-26_14h21.25.518,searchDisc4,2020.2.10,Win32,60,,,space,0.245825,2,1,0.70001,,0,20,20,542,1,2c,86,2,31,
,,,,,,,,,,,,,,,,,,,,,,,,,,images/exp2a_trial_95_colour1_distractors4_l.png,l,1,032,001,2021-04-26_14h21.25.518,searchDisc4,2020.2.10,Win32,60,,,space,0.229535,2,0,0.466315,,0,21,21,323,1,2a,95,1,4,
,,,,,,,,,,,,,,,,,,,,,,,,,,images/exp2b_trial_82_colour2_distractors1_r.png,r,2,032,001,2021-04-26_14h21.25.518,searchDisc4,2020.2.10,Win32,60,,,space,0.252895,2,1,0.495665,,0,22,22,424,1,2b,82,2,1,
,,,,,,,,,,,,,,,,,,,,,,,,,,images/exp2c_trial_16_colour3_distractors31_r.png,r,2,032,001,2021-04-26_14h21.25.518,searchDisc4,2020.2.10,Win32,60,,,space,0.19248,2,1,0.46252,,0,23,23,472,1,2c,16,3,31,
,,,,,,,,,,,,,,,,,,,,,,,,,,images/exp1b_trial_67_colour2_distractors43_l.png,l,1,032,001,2021-04-26_14h21.25.518,searchDisc4,2020.2.10,Win32,60,,,space,0.24304,1,1,0.7159,,0,24,24,181,1,1b,67,2,43,
,,,,,,,,,,,,,,,,,,,,,,,,,,images/exp2a_trial_6_colour2_distractors1_r.png,r,2,032,001,2021-04-26_14h21.25.518,searchDisc4,2020.2.10,Win32,60,,,space,0.241805,2,1,0.51541,,0,25,25,234,1,2a,6,2,1,
,,,,,,,,,,,,,,,,,,,,,,,,,,images/exp2c_trial_103_colour2_distractors19_l.png,l,1,032,001,2021-04-26_14h21.25.518,searchDisc4,2020.2.10,Win32,60,,,space,0.229005,1,1,1.435235,,0,26,26,559,1,2c,103,2,19,
,,,,,,,,,,,,,,,,,,,,,,,,,,images/exp2c_trial_107_colour3_distractors4_l.png,l,1,032,001,2021-04-26_14h21.25.518,searchDisc4,2020.2.10,Win32,60,,,space,0.256575,1,1,0.437025,,0,27,27,563,1,2c,107,3,4,
,,,,,,,,,,,,,,,,,,,,,,,,,,images/exp1a_trial_15_colour3_distractors19_r.png,r,2,032,001,2021-04-26_14h21.25.518,searchDisc4,2020.2.10,Win32,60,,,space,0.236765,2,1,0.46121,,0,28,28,15,1,1a,15,3,19,
,,,,,,,,,,,,,,,,,,,,,,,,,,images/exp1b_trial_38_colour1_distractors1_r.png,r,2,032,001,2021-04-26_14h21.25.518,searchDisc4,2020.2.10,Win32,60,,,space,0.180905,2,1,0.46174,,0,29,29,152,1,1b,38,1,1,
,,,,,,,,,,,,,,,,,,,,,,,,,,images/exp1b_trial_63_colour2_distractors4_l.png,l,1,032,001,2021-04-26_14h21.25.518,searchDisc4,2020.2.10,Win32,60,,,space,0.222225,1,1,0.532015,,0,30,30,177,1,1b,63,2,4,
,,,,,,,,,,,,,,,,,,,,,,,,,,images/exp2a_trial_20_colour1_distractors9_l.png,l,1,032,001,2021-04-26_14h21.25.518,searchDisc4,2020.2.10,Win32,60,,,space,0.250135,1,1,0.48819,,0,31,31,248,1,2a,20,1,9,
,,,,,,,,,,,,,,,,,,,,,,,,,,images/exp2b_trial_65_colour2_distractors19_l.png,l,1,032,001,2021-04-26_14h21.25.518,searchDisc4,2020.2.10,Win32,60,,,space,0.251195,1,1,0.455335,,0,32,32,407,1,2b,65,2,19,
,,,,,,,,,,,,,,,,,,,,,,,,,,images/exp1b_trial_111_colour3_distractors43_l.png,l,1,032,001,2021-04-26_14h21.25.518,searchDisc4,2020.2.10,Win32,60,,,space,0.242605,1,1,0.55683,,0,33,33,225,1,1b,111,3,43,
,,,,,,,,,,,,,,,,,,,,,,,,,,images/exp2c_trial_19_colour1_distractors4_l.png,l,1,032,001,2021-04-26_14h21.25.518,searchDisc4,2020.2.10,Win32,60,,,space,0.24757,1,1,0.333475,,0,34,34,475,1,2c,19,1,4,
,,,,,,,,,,,,,,,,,,,,,,,,,,images/exp1a_trial_58_colour1_distractors9_l.png,l,1,032,001,2021-04-26_14h21.25.518,searchDisc4,2020.2.10,Win32,60,,,space,0.24484,1,1,0.41627,,0,35,35,58,1,1a,58,1,9,
,,,,,,,,,,,,,,,,,,,,,,,,,,images/exp2c_trial_65_colour2_distractors19_l.png,l,1,032,001,2021-04-26_14h21.25.518,searchDisc4,2020.2.10,Win32,60,,,space,0.227335,1,1,0.50648,,0,36,36,521,1,2c,65,2,19,
,,,,,,,,,,,,,,,,,,,,,,,,,,images/exp2a_trial_37_colour0_distractors0_l.png,l,1,032,001,2021-04-26_14h21.25.518,searchDisc4,2020.2.10,Win32,60,,,space,0.231455,1,1,0.336855,,0,37,37,265,1,2a,37,0,0,
,,,,,,,,,,,,,,,,,,,,,,,,,,images/exp1b_trial_16_colour3_distractors31_r.png,r,2,032,001,2021-04-26_14h21.25.518,searchDisc4,2020.2.10,Win32,60,,,space,0.236275,1,0,0.455715,,0,38,38,130,1,1b,16,3,31,
,,,,,,,,,,,,,,,,,,,,,,,,,,images/exp2a_trial_67_colour2_distractors43_l.png,l,1,032,001,2021-04-26_14h21.25.518,searchDisc4,2020.2.10,Win32,60,,,space,0.26782,1,1,0.445775,,0,39,39,295,1,2a,67,2,43,
,,,,,,,,,,,,,,,,,,,,,,,,,,images/exp2c_trial_11_colour2_distractors43_r.png,r,2,032,001,2021-04-26_14h21.25.518,searchDisc4,2020.2.10,Win32,60,,,space,0.214535,2,1,0.694195,,0,40,40,467,1,2c,11,2,43,
,,,,,,,,,,,,,,,,,,,,,,,,,,images/exp1b_trial_76_colour1_distractors1_r.png,r,2,032,001,2021-04-26_14h21.25.518,searchDisc4,2020.2.10,Win32,60,,,space,0.234075,,0,,,0,41,41,190,1,1b,76,1,1,
,,,,,,,,,,,,,,,,,,,,,,,,,,images/exp1b_trial_74_colour0_distractors0_r.png,r,2,032,001,2021-04-26_14h21.25.518,searchDisc4,2020.2.10,Win32,60,,,space,2.058425,2,1,0.64198,,0,42,42,188,1,1b,74,0,0,
,,,,,,,,,,,,,,,,,,,,,,,,,,images/exp2b_trial_29_colour2_distractors43_l.png,l,1,032,001,2021-04-26_14h21.25.518,searchDisc4,2020.2.10,Win32,60,,,space,0.236235,1,1,0.476745,,0,43,43,371,1,2b,29,2,43,
,,,,,,,,,,,,,,,,,,,,,,,,,,images/exp2a_trial_4_colour1_distractors31_r.png,r,2,032,001,2021-04-26_14h21.25.518,searchDisc4,2020.2.10,Win32,60,,,space,0.311505,2,1,0.54731,,0,44,44,232,1,2a,4,1,31,
,,,,,,,,,,,,,,,,,,,,,,,,,,images/exp2b_trial_7_colour2_distractors4_r.png,r,2,032,001,2021-04-26_14h21.25.518,searchDisc4,2020.2.10,Win32,60,,,space,0.1687,2,1,0.50787,,0,45,45,349,1,2b,7,2,4,
,,,,,,,,,,,,,,,,,,,,,,,,,,images/exp2b_trial_88_colour3_distractors1_r.png,r,2,032,001,2021-04-26_14h21.25.518,searchDisc4,2020.2.10,Win32,60,,,space,0.16752,2,1,0.590405,,0,46,46,430,1,2b,88,3,1,
,,,,,,,,,,,,,,,,,,,,,,,,,,images/exp2a_trial_16_colour3_distractors31_r.png,r,2,032,001,2021-04-26_14h21.25.518,searchDisc4,2020.2.10,Win32,60,,,space,0.12394,2,1,0.73822,,0,47,47,244,1,2a,16,3,31,
,,,,,,,,,,,,,,,,,,,,,,,,,,images/exp2c_trial_95_colour1_distractors4_l.png,l,1,032,001,2021-04-26_14h21.25.518,searchDisc4,2020.2.10,Win32,60,,,space,0.112,1,1,0.481165,,0,48,48,551,1,2c,95,1,4,
,,,,,,,,,,,,,,,,,,,,,,,,,,images/exp1a_trial_81_colour1_distractors43_r.png,r,2,032,001,2021-04-26_14h21.25.518,searchDisc4,2020.2.10,Win32,60,,,space,0.254795,2,1,0.538075,,0,49,49,81,1,1a,81,1,43,
,,,,,,,,,,,,,,,,,,,,,,,,,,images/exp2a_trial_82_colour2_distractors1_r.png,r,2,032,001,2021-04-26_14h21.25.518,searchDisc4,2020.2.10,Win32,60,,,space,0.118275,2,1,0.517385,,0,50,50,310,1,2a,82,2,1,
,,,,,,,,,,,,,,,,,,,,,,,,,,images/exp2c_trial_59_colour1_distractors19_l.png,l,1,032,001,2021-04-26_14h21.25.518,searchDisc4,2020.2.10,Win32,60,,,space,0.090845,1,1,0.535605,,0,51,51,515,1,2c,59,1,19,
,,,,,,,,,,,,,,,,,,,,,,,,,,images/exp2a_trial_110_colour3_distractors31_l.png,l,1,032,001,2021-04-26_14h21.25.518,searchDisc4,2020.2.10,Win32,60,,,space,0.10277,1,1,0.530725,,0,52,52,338,1,2a,110,3,31,
,,,,,,,,,,,,,,,,,,,,,,,,,,images/exp2b_trial_56_colour1_distractors1_l.png,l,1,032,001,2021-04-26_14h21.25.518,searchDisc4,2020.2.10,Win32,60,,,space,0.08374,1,1,0.45527,,0,53,53,398,1,2b,56,1,1,
,,,,,,,,,,,,,,,,,,,,,,,,,,images/exp2b_trial_62_colour2_distractors1_l.png,l,1,032,001,2021-04-26_14h21.25.518,searchDisc4,2020.2.10,Win32,60,,,space,0.085665,1,1,0.564915,,0,54,54,404,1,2b,62,2,1,
,,,,,,,,,,,,,,,,,,,,,,,,,,images/exp1b_trial_11_colour2_distractors43_r.png,r,2,032,001,2021-04-26_14h21.25.518,searchDisc4,2020.2.10,Win32,60,,,space,0.069505,2,1,0.563175,,0,55,55,125,1,1b,11,2,43,
,,,,,,,,,,,,,,,,,,,,,,,,,,images/exp1a_trial_43_colour1_distractors43_r.png,r,2,032,001,2021-04-26_14h21.25.518,searchDisc4,2020.2.10,Win32,60,,,space,0.074835,2,1,0.63412,,0,56,56,43,1,1a,43,1,43,
,,,,,,,,,,,,,,,,,,,,,,,,,,images/exp2c_trial_111_colour3_distractors43_l.png,l,1,032,001,2021-04-26_14h21.25.518,searchDisc4,2020.2.10,Win32,60,,,space,0.05128,2,0,0.557955,,0,57,57,567,1,2c,111,3,43,
,,,,,,,,,,,,,,,,,,,,,,,,,,images/exp1b_trial_86_colour2_distractors31_r.png,r,2,032,001,2021-04-26_14h21.25.518,searchDisc4,2020.2.10,Win32,60,,,space,0.28829,2,1,0.74185,,0,58,58,200,1,1b,86,2,31,
,,,,,,,,,,,,,,,,,,,,,,,,,,images/exp1b_trial_69_colour3_distractors4_l.png,l,1,032,001,2021-04-26_14h21.25.518,searchDisc4,2020.2.10,Win32,60,,,space,0.07994,1,1,0.67259,space,0,59,59,183,1,1b,69,3,4,0.15949
,,,,,,,,,,,,,,,,,,,,,,,,,,images/exp2a_trial_43_colour1_distractors43_r.png,r,2,032,001,2021-04-26_14h21.25.518,searchDisc4,2020.2.10,Win32,60,,,space,0.602155,2,1,0.477885,,0,60,60,271,1,2a,43,1,43,
,,,,,,,,,,,,,,,,,,,,,,,,,,images/exp2a_trial_74_colour0_distractors0_r.png,r,2,032,001,2021-04-26_14h21.25.518,searchDisc4,2020.2.10,Win32,60,,,space,0.0929,2,1,0.45084,,0,61,61,302,1,2a,74,0,0,
,,,,,,,,,,,,,,,,,,,,,,,,,,images/exp2b_trial_112_colour0_distractors0_r.png,r,2,032,001,2021-04-26_14h21.25.518,searchDisc4,2020.2.10,Win32,60,,,space,0.123695,2,1,0.36464,,0,62,62,454,1,2b,112,0,0,
,,,,,,,,,,,,,,,,,,,,,,,,,,images/exp1a_trial_90_colour3_distractors9_r.png,r,2,032,001,2021-04-26_14h21.25.518,searchDisc4,2020.2.10,Win32,60,,,space,0.05672,2,1,0.39104,,0,63,63,90,1,1a,90,3,9,
,,,,,,,,,,,,,,,,,,,,,,,,,,images/exp1b_trial_94_colour1_distractors1_l.png,l,1,032,001,2021-04-26_14h21.25.518,searchDisc4,2020.2.10,Win32,60,,,space,0.056535,2,0,0.32502,,0,64,64,208,1,1b,94,1,1,
,,,,,,,,,,,,,,,,,,,,,,,,,,images/exp1b_trial_70_colour3_distractors9_l.png,l,1,032,001,2021-04-26_14h21.25.518,searchDisc4,2020.2.10,Win32,60,,,space,0.08842,1,1,0.598595,,0,65,65,184,1,1b,70,3,9,
,,,,,,,,,,,,,,,,,,,,,,,,,,images/exp1b_trial_104_colour2_distractors31_l.png,l,1,032,001,2021-04-26_14h21.25.518,searchDisc4,2020.2.10,Win32,60,,,space,0.080485,1,1,0.93528,,0,66,66,218,1,1b,104,2,31,
,,,,,,,,,,,,,,,,,,,,,,,,,,images/exp2a_trial_13_colour3_distractors4_r.png,r,2,032,001,2021-04-26_14h21.25.518,searchDisc4,2020.2.10,Win32,60,,,space,0.06968,2,1,0.556805,,0,67,67,241,1,2a,13,3,4,
,,,,,,,,,,,,,,,,,,,,,,,,,,images/exp2c_trial_31_colour3_distractors4_l.png,l,1,032,001,2021-04-26_14h21.25.518,searchDisc4,2020.2.10,Win32,60,,,space,0.111235,1,1,0.53441,,0,68,68,487,1,2c,31,3,4,
,,,,,,,,,,,,,,,,,,,,,,,,,,images/exp1b_trial_105_colour2_distractors43_l.png,l,1,032,001,2021-04-26_14h21.25.518,searchDisc4,2020.2.10,Win32,60,,,space,0.11347,1,1,0.853655,,0,69,69,219,1,1b,105,2,43,
,,,,,,,,,,,,,,,,,,,,,,,,,,images/exp2b_trial_64_colour2_distractors9_l.png,l,1,032,001,2021-04-26_14h21.25.518,searchDisc4,2020.2.10,Win32,60,,,space,0.030985,1,1,0.57151,,0,70,70,406,1,2b,64,2,9,
,,,,,,,,,,,,,,,,,,,,,,,,,,images/exp2b_trial_22_colour1_distractors31_l.png,l,1,032,001,2021-04-26_14h21.25.518,searchDisc4,2020.2.10,Win32,60,,,space,0.132895,1,1,0.44389,,0,71,71,364,1,2b,22,1,31,
,,,,,,,,,,,,,,,,,,,,,,,,,,images/exp1a_trial_88_colour3_distractors1_r.png,r,2,032,001,2021-04-26_14h21.25.518,searchDisc4,2020.2.10,Win32,60,,,space,0.14124,2,1,0.39642,,0,72,72,88,1,1a,88,3,1,
,,,,,,,,,,,,,,,,,,,,,,,,,,images/exp2b_trial_54_colour3_distractors31_r.png,r,2,032,001,2021-04-26_14h21.25.518,searchDisc4,2020.2.10,Win32,60,,,space,0.133525,2,1,0.849675,,0,73,73,396,1,2b,54,3,31,
,,,,,,,,,,,,,,,,,,,,,,,,,,images/exp2b_trial_77_colour1_distractors4_r.png,r,2,032,001,2021-04-26_14h21.25.518,searchDisc4,2020.2.10,Win32,60,,,space,0.095915,2,1,0.48213,,0,74,74,419,1,2b,77,1,4,
,,,,,,,,,,,,,,,,,,,,,,,,,,images/exp2a_trial_44_colour2_distractors1_r.png,r,2,032,001,2021-04-26_14h21.25.518,searchDisc4,2020.2.10,Win32,60,,,space,0.16986,2,1,0.40087,,0,75,75,272,1,2a,44,2,1,
,,,,,,,,,,,,,,,,,,,,,,,,,,images/exp1b_trial_59_colour1_distractors19_l.png,l,1,032,001,2021-04-26_14h21.25.518,searchDisc4,2020.2.10,Win32,60,,,space,0.18069,1,1,0.64063,,0,76,76,173,1,1b,59,1,19,
,,,,,,,,,,,,,,,,,,,,,,,,,,images/exp2c_trial_40_colour1_distractors9_r.png,r,2,032,001,2021-04-26_14h21.25.518,searchDisc4,2020.2.10,Win32,60,,,space,0.24241,2,1,0.525005,,0,77,77,496,1,2c,40,1,9,
,,,,,,,,,,,,,,,,,,,,,,,,,,images/exp2b_trial_5_colour1_distractors43_r.png,r,2,032,001,2021-04-26_14h21.25.518,searchDisc4,2020.2.10,Win32,60,,,space,0.196045,2,1,0.56438,,0,78,78,347,1,2b,5,1,43,
,,,,,,,,,,,,,,,,,,,,,,,,,,images/exp1a_trial_99_colour1_distractors43_l.png,l,1,032,001,2021-04-26_14h21.25.518,searchDisc4,2020.2.10,Win32,60,,,space,0.21991,1,1,0.44418,,0,79,79,99,1,1a,99,1,43,
,,,,,,,,,,,,,,,,,,,,,,,,,,images/exp1b_trial_48_colour2_distractors31_r.png,r,2,032,001,2021-04-26_14h21.25.518,searchDisc4,2020.2.10,Win32,60,,,space,0.187755,2,1,0.6122,,0,80,80,162,1,1b,48,2,31,
,,,,,,,,,,,,,,,,,,,,,,,,,,images/exp2b_trial_1_colour1_distractors4_r.png,r,2,032,001,2021-04-26_14h21.25.518,searchDisc4,2020.2.10,Win32,60,,,space,0.12552,2,1,0.497635,,0,81,81,343,1,2b,1,1,4,
,,,,,,,,,,,,,,,,,,,,,,,,,,images/exp2c_trial_56_colour1_distractors1_l.png,l,1,032,001,2021-04-26_14h21.25.518,searchDisc4,2020.2.10,Win32,60,,,space,0.112365,1,1,0.5027,,0,82,82,512,1,2c,56,1,1,
,,,,,,,,,,,,,,,,,,,,,,,,,,images/exp1b_trial_7_colour2_distractors4_r.png,r,2,032,001,2021-04-26_14h21.25.518,searchDisc4,2020.2.10,Win32,60,,,space,0.22957,2,1,0.565105,,0,83,83,121,1,1b,7,2,4,
,,,,,,,,,,,,,,,,,,,,,,,,,,images/exp2b_trial_48_colour2_distractors31_r.png,r,2,032,001,2021-04-26_14h21.25.518,searchDisc4,2020.2.10,Win32,60,,,space,0.119135,2,1,0.48521,,0,84,84,390,1,2b,48,2,31,
,,,,,,,,,,,,,,,,,,,,,,,,,,images/exp1b_trial_101_colour2_distractors4_l.png,l,1,032,001,2021-04-26_14h21.25.518,searchDisc4,2020.2.10,Win32,60,,,space,0.075775,1,1,0.584455,,0,85,85,215,1,1b,101,2,4,
,,,,,,,,,,,,,,,,,,,,,,,,,,images/exp2a_trial_91_colour3_distractors19_r.png,r,2,032,001,2021-04-26_14h21.25.518,searchDisc4,2020.2.10,Win32,60,,,space,0.150215,2,1,0.48198,,0,86,86,319,1,2a,91,3,19,
,,,,,,,,,,,,,,,,,,,,,,,,,,images/exp2c_trial_101_colour2_distractors4_l.png,l,1,032,001,2021-04-26_14h21.25.518,searchDisc4,2020.2.10,Win32,60,,,space,0.095605,1,1,0.48401,,0,87,87,557,1,2c,101,2,4,
,,,,,,,,,,,,,,,,,,,,,,,,,,images/exp1b_trial_107_colour3_distractors4_l.png,l,1,032,001,2021-04-26_14h21.25.518,searchDisc4,2020.2.10,Win32,60,,,space,0.186715,1,1,0.825515,,0,88,88,221,1,1b,107,3,4,
,,,,,,,,,,,,,,,,,,,,,,,,,,images/exp2c_trial_38_colour1_distractors1_r.png,r,2,032,001,2021-04-26_14h21.25.518,searchDisc4,2020.2.10,Win32,60,,,space,0.291465,2,1,0.40549,,0,89,89,494,1,2c,38,1,1,
,,,,,,,,,,,,,,,,,,,,,,,,,,images/exp2c_trial_79_colour1_distractors19_r.png,r,2,032,001,2021-04-26_14h21.25.518,searchDisc4,2020.2.10,Win32,60,,,space,0.11404,2,1,0.472485,,0,90,90,535,1,2c,79,1,19,
,,,,,,,,,,,,,,,,,,,,,,,,,,images/exp1b_trial_113_colour0_distractors0_l.png,l,1,032,001,2021-04-26_14h21.25.518,searchDisc4,2020.2.10,Win32,60,,,space,0.118325,1,1,0.41161,,0,91,91,227,1,1b,113,0,0,
,,,,,,,,,,,,,,,,,,,,,,,,,,images/exp1b_trial_97_colour1_distractors19_l.png,l,1,032,001,2021-04-26_14h21.25.518,searchDisc4,2020.2.10,Win32,60,,,space,0.17095,1,1,0.44861,,0,92,92,211,1,1b,97,1,19,
,,,,,,,,,,,,,,,,,,,,,,,,,,images/exp1b_trial_99_colour1_distractors43_l.png,l,1,032,001,2021-04-26_14h21.25.518,searchDisc4,2020.2.10,Win32,60,,,space,0.103875,1,1,0.501125,,0,93,93,213,1,1b,99,1,43,
,,,,,,,,,,,,,,,,,,,,,,,,,,images/exp1b_trial_96_colour1_distractors9_l.png,l,1,032,001,2021-04-26_14h21.25.518,searchDisc4,2020.2.10,Win32,60,,,space,0.088685,1,1,0.409925,,0,94,94,210,1,1b,96,1,9,
,,,,,,,,,,,,,,,,,,,,,,,,,,images/exp2b_trial_78_colour1_distractors9_r.png,r,2,032,001,2021-04-26_14h21.25.518,searchDisc4,2020.2.10,Win32,60,,,space,0.145545,2,1,0.52868,,0,95,95,420,1,2b,78,1,9,
,,,,,,,,,,,,,,,,,,,,,,,,,,images/exp2c_trial_80_colour1_distractors31_r.png,r,2,032,001,2021-04-26_14h21.25.518,searchDisc4,2020.2.10,Win32,60,,,space,0.168035,2,1,0.585725,,0,96,96,536,1,2c,80,1,31,
,,,,,,,,,,,,,,,,,,,,,,,,,,images/exp1a_trial_110_colour3_distractors31_l.png,l,1,032,001,2021-04-26_14h21.25.518,searchDisc4,2020.2.10,Win32,60,,,space,0.10395,1,1,0.451755,,0,97,97,110,1,1a,110,3,31,
,,,,,,,,,,,,,,,,,,,,,,,,,,images/exp2b_trial_0_colour1_distractors1_r.png,r,2,032,001,2021-04-26_14h21.25.518,searchDisc4,2020.2.10,Win32,60,,,space,0.16745,2,1,0.487325,,0,98,98,342,1,2b,0,1,1,
,,,,,,,,,,,,,,,,,,,,,,,,,,images/exp2b_trial_80_colour1_distractors31_r.png,r,2,032,001,2021-04-26_14h21.25.518,searchDisc4,2020.2.10,Win32,60,,,space,0.13655,2,1,0.455665,,0,99,99,422,1,2b,80,1,31,
,,,,,,,,,,,,,,,,,,,,,,,,,,images/exp2c_trial_29_colour2_distractors43_l.png,l,1,032,001,2021-04-26_14h21.25.518,searchDisc4,2020.2.10,Win32,60,,,space,0.123735,1,1,0.94673,,0,100,100,485,1,2c,29,2,43,
,,,,,,,,,,,,,,,,,,,,,,,,,,images/exp1a_trial_26_colour2_distractors9_l.png,l,1,032,001,2021-04-26_14h21.25.518,searchDisc4,2020.2.10,Win32,60,,,space,1.557075,1,1,0.75875,,0,101,101,26,1,1a,26,2,9,
,,,,,,,,,,,,,,,,,,,,,,,,,,images/exp1b_trial_40_colour1_distractors9_r.png,r,2,032,001,2021-04-26_14h21.25.518,searchDisc4,2020.2.10,Win32,60,,,space,0.122095,2,1,0.62763,,0,102,102,154,1,1b,40,1,9,
,,,,,,,,,,,,,,,,,,,,,,,,,,images/exp2c_trial_58_colour1_distractors9_l.png,l,1,032,001,2021-04-26_14h21.25.518,searchDisc4,2020.2.10,Win32,60,,,space,0.12275,1,1,0.476405,,0,103,103,514,1,2c,58,1,9,
,,,,,,,,,,,,,,,,,,,,,,,,,,images/exp2a_trial_1_colour1_distractors4_r.png,r,2,032,001,2021-04-26_14h21.25.518,searchDisc4,2020.2.10,Win32,60,,,space,0.14426,2,1,0.445215,,0,104,104,229,1,2a,1,1,4,
,,,,,,,,,,,,,,,,,,,,,,,,,,images/exp1a_trial_10_colour2_distractors31_r.png,r,2,032,001,2021-04-26_14h21.25.518,searchDisc4,2020.2.10,Win32,60,,,space,0.112925,2,1,0.3885,,0,105,105,10,1,1a,10,2,31,
,,,,,,,,,,,,,,,,,,,,,,,,,,images/exp2c_trial_32_colour3_distractors9_l.png,l,1,032,001,2021-04-26_14h21.25.518,searchDisc4,2020.2.10,Win32,60,,,space,0.14619,1,1,0.549275,,0,106,106,488,1,2c,32,3,9,
,,,,,,,,,,,,,,,,,,,,,,,,,,images/exp2c_trial_87_colour2_distractors43_r.png,r,2,032,001,2021-04-26_14h21.25.518,searchDisc4,2020.2.10,Win32,60,,,space,0.103095,1,0,0.496,,0,107,107,543,1,2c,87,2,43,
,,,,,,,,,,,,,,,,,,,,,,,,,,images/exp2c_trial_76_colour1_distractors1_r.png,r,2,032,001,2021-04-26_14h21.25.518,searchDisc4,2020.2.10,Win32,60,,,space,0.28627,2,1,0.40983,,0,108,108,532,1,2c,76,1,1,
,,,,,,,,,,,,,,,,,,,,,,,,,,images/exp2a_trial_77_colour1_distractors4_r.png,r,2,032,001,2021-04-26_14h21.25.518,searchDisc4,2020.2.10,Win32,60,,,space,0.147965,2,1,0.43389,,0,109,109,305,1,2a,77,1,4,
,,,,,,,,,,,,,,,,,,,,,,,,,,images/exp2a_trial_111_colour3_distractors43_l.png,l,1,032,001,2021-04-26_14h21.25.518,searchDisc4,2020.2.10,Win32,60,,,space,0.08929,1,1,0.443095,,0,110,110,339,1,2a,111,3,43,
,,,,,,,,,,,,,,,,,,,,,,,,,,images/exp1b_trial_108_colour3_distractors9_l.png,l,1,032,001,2021-04-26_14h21.25.518,searchDisc4,2020.2.10,Win32,60,,,space,0.17392,1,1,0.551885,,0,111,111,222,1,1b,108,3,9,
,,,,,,,,,,,,,,,,,,,,,,,,,,images/exp2c_trial_73_colour3_distractors43_l.png,l,1,032,001,2021-04-26_14h21.25.518,searchDisc4,2020.2.10,Win32,60,,,space,0.173705,1,1,0.476805,,0,112,112,529,1,2c,73,3,43,
,,,,,,,,,,,,,,,,,,,,,,,,,,images/exp2c_trial_89_colour3_distractors4_r.png,r,2,032,001,2021-04-26_14h21.25.518,searchDisc4,2020.2.10,Win32,60,,,space,0.08359,2,1,0.48802,,0,113,113,545,1,2c,89,3,4,
,,,,,,,,,,,,,,,,,,,,,,,,,,images/exp2b_trial_23_colour1_distractors43_l.png,l,1,032,001,2021-04-26_14h21.25.518,searchDisc4,2020.2.10,Win32,60,,,space,0.13475,1,1,0.50044,,0,114,114,365,1,2b,23,1,43,
,,,,,,,,,,,,,,,,,,,,,,,,,,images/exp2a_trial_19_colour1_distractors4_l.png,l,1,032,001,2021-04-26_14h21.25.518,searchDisc4,2020.2.10,Win32,60,,,space,0.12238,1,1,0.394355,,0,115,115,247,1,2a,19,1,4,
,,,,,,,,,,,,,,,,,,,,,,,,,,images/exp1a_trial_1_colour1_distractors4_r.png,r,2,032,001,2021-04-26_14h21.25.518,searchDisc4,2020.2.10,Win32,60,,,space,0.071145,2,1,0.541725,,0,116,116,1,1,1a,1,1,4,
,,,,,,,,,,,,,,,,,,,,,,,,,,images/exp2c_trial_53_colour3_distractors19_r.png,r,2,032,001,2021-04-26_14h21.25.518,searchDisc4,2020.2.10,Win32,60,,,space,0.113465,2,1,0.396075,,0,117,117,509,1,2c,53,3,19,
,,,,,,,,,,,,,,,,,,,,,,,,,,images/exp2c_trial_84_colour2_distractors9_r.png,r,2,032,001,2021-04-26_14h21.25.518,searchDisc4,2020.2.10,Win32,60,,,space,0.0742,2,1,0.421715,,0,118,118,540,1,2c,84,2,9,
,,,,,,,,,,,,,,,,,,,,,,,,,,images/exp2a_trial_17_colour3_distractors43_r.png,r,2,032,001,2021-04-26_14h21.25.518,searchDisc4,2020.2.10,Win32,60,,,space,0.125175,2,1,0.51054,space,0,119,119,245,1,2a,17,3,43,0.079495
,,,,,,,,,,,,,,,,,,,,,,,,,,images/exp2a_trial_29_colour2_distractors43_l.png,l,1,032,001,2021-04-26_14h21.25.518,searchDisc4,2020.2.10,Win32,60,,,space,0.590815,1,1,0.487955,,0,120,120,257,1,2a,29,2,43,
,,,,,,,,,,,,,,,,,,,,,,,,,,images/exp1b_trial_10_colour2_distractors31_r.png,r,2,032,001,2021-04-26_14h21.25.518,searchDisc4,2020.2.10,Win32,60,,,space,0.18094,2,1,0.591725,,0,121,121,124,1,1b,10,2,31,
,,,,,,,,,,,,,,,,,,,,,,,,,,images/exp2c_trial_45_colour2_distractors4_r.png,r,2,032,001,2021-04-26_14h21.25.518,searchDisc4,2020.2.10,Win32,60,,,space,0.1202,2,1,0.398355,,0,122,122,501,1,2c,45,2,4,
,,,,,,,,,,,,,,,,,,,,,,,,,,images/exp2c_trial_39_colour1_distractors4_r.png,r,2,032,001,2021-04-26_14h21.25.518,searchDisc4,2020.2.10,Win32,60,,,space,0.104,2,1,0.316045,,0,123,123,495,1,2c,39,1,4,
,,,,,,,,,,,,,,,,,,,,,,,,,,images/exp2c_trial_109_colour3_distractors19_l.png,l,1,032,001,2021-04-26_14h21.25.518,searchDisc4,2020.2.10,Win32,60,,,space,0.09462,2,0,0.32289,,0,124,124,565,1,2c,109,3,19,
,,,,,,,,,,,,,,,,,,,,,,,,,,images/exp1b_trial_62_colour2_distractors1_l.png,l,1,032,001,2021-04-26_14h21.25.518,searchDisc4,2020.2.10,Win32,60,,,space,0.37508,1,1,0.75061,,0,125,125,176,1,1b,62,2,1,
,,,,,,,,,,,,,,,,,,,,,,,,,,images/exp1a_trial_49_colour2_distractors43_r.png,r,2,032,001,2021-04-26_14h21.25.518,searchDisc4,2020.2.10,Win32,60,,,space,0.20896,1,0,0.359545,,0,126,126,49,1,1a,49,2,43,
,,,,,,,,,,,,,,,,,,,,,,,,,,images/exp2b_trial_51_colour3_distractors4_r.png,r,2,032,001,2021-04-26_14h21.25.518,searchDisc4,2020.2.10,Win32,60,,,space,0.327905,2,1,0.83694,,0,127,127,393,1,2b,51,3,4,
,,,,,,,,,,,,,,,,,,,,,,,,,,images/exp2c_trial_112_colour0_distractors0_r.png,r,2,032,001,2021-04-26_14h21.25.518,searchDisc4,2020.2.10,Win32,60,,,space,0.21542,2,1,4.02881,,0,128,128,568,1,2c,112,0,0,
,,,,,,,,,,,,,,,,,,,,,,,,,,images/exp1b_trial_0_colour1_distractors1_r.png,r,2,032,001,2021-04-26_14h21.25.518,searchDisc4,2020.2.10,Win32,60,,,space,0.227985,2,1,0.558475,,0,129,129,114,1,1b,0,1,1,
,,,,,,,,,,,,,,,,,,,,,,,,,,images/exp1a_trial_40_colour1_distractors9_r.png,r,2,032,001,2021-04-26_14h21.25.518,searchDisc4,2020.2.10,Win32,60,,,space,0.143355,1,0,0.39894,,0,130,130,40,1,1a,40,1,9,
,,,,,,,,,,,,,,,,,,,,,,,,,,images/exp2b_trial_67_colour2_distractors43_l.png,l,1,032,001,2021-04-26_14h21.25.518,searchDisc4,2020.2.10,Win32,60,,,space,0.301625,1,1,0.454925,,0,131,131,409,1,2b,67,2,43,
,,,,,,,,,,,,,,,,,,,,,,,,,,images/exp1a_trial_84_colour2_distractors9_r.png,r,2,032,001,2021-04-26_14h21.25.518,searchDisc4,2020.2.10,Win32,60,,,space,0.1674,1,0,0.41158,,0,132,132,84,1,1a,84,2,9,
,,,,,,,,,,,,,,,,,,,,,,,,,,images/exp2b_trial_46_colour2_distractors9_r.png,r,2,032,001,2021-04-26_14h21.25.518,searchDisc4,2020.2.10,Win32,60,,,space,0.215835,2,1,0.5379,,0,133,133,388,1,2b,46,2,9,
,,,,,,,,,,,,,,,,,,,,,,,,,,images/exp1a_trial_24_colour2_distractors1_l.png,l,1,032,001,2021-04-26_14h21.25.518,searchDisc4,2020.2.10,Win32,60,,,space,0.154055,1,1,0.53569,,0,134,134,24,1,1a,24,2,1,
,,,,,,,,,,,,,,,,,,,,,,,,,,images/exp1a_trial_14_colour3_distractors9_r.png,r,2,032,001,2021-04-26_14h21.25.518,searchDisc4,2020.2.10,Win32,60,,,space,0.191695,2,1,0.534635,,0,135,135,14,1,1a,14,3,9,
,,,,,,,,,,,,,,,,,,,,,,,,,,images/exp1a_trial_48_colour2_distractors31_r.png,r,2,032,001,2021-04-26_14h21.25.518,searchDisc4,2020.2.10,Win32,60,,,space,0.129145,2,1,0.507375,,0,136,136,48,1,1a,48,2,31,
,,,,,,,,,,,,,,,,,,,,,,,,,,images/exp1b_trial_77_colour1_distractors4_r.png,r,2,032,001,2021-04-26_14h21.25.518,searchDisc4,2020.2.10,Win32,60,,,space,0.088515,2,1,0.528025,,0,137,137,191,1,1b,77,1,4,
,,,,,,,,,,,,,,,,,,,,,,,,,,images/exp2a_trial_109_colour3_distractors19_l.png,l,1,032,001,2021-04-26_14h21.25.518,searchDisc4,2020.2.10,Win32,60,,,space,0.090005,1,1,0.39723,,0,138,138,337,1,2a,109,3,19,
,,,,,,,,,,,,,,,,,,,,,,,,,,images/exp2a_trial_61_colour1_distractors43_l.png,l,1,032,001,2021-04-26_14h21.25.518,searchDisc4,2020.2.10,Win32,60,,,space,0.10247,1,1,0.50283,,0,139,139,289,1,2a,61,1,43,
,,,,,,,,,,,,,,,,,,,,,,,,,,images/exp2c_trial_85_colour2_distractors19_r.png,r,2,032,001,2021-04-26_14h21.25.518,searchDisc4,2020.2.10,Win32,60,,,space,0.10078,1,0,0.487735,,0,140,140,541,1,2c,85,2,19,
,,,,,,,,,,,,,,,,,,,,,,,,,,images/exp2b_trial_79_colour1_distractors19_r.png,r,2,032,001,2021-04-26_14h21.25.518,searchDisc4,2020.2.10,Win32,60,,,space,0.276565,2,1,0.5171,,0,141,141,421,1,2b,79,1,19,
,,,,,,,,,,,,,,,,,,,,,,,,,,images/exp2a_trial_52_colour3_distractors9_r.png,r,2,032,001,2021-04-26_14h21.25.518,searchDisc4,2020.2.10,Win32,60,,,space,0.12897,2,1,0.340145,,0,142,142,280,1,2a,52,3,9,
,,,,,,,,,,,,,,,,,,,,,,,,,,images/exp2b_trial_47_colour2_distractors19_r.png,r,2,032,001,2021-04-26_14h21.25.518,searchDisc4,2020.2.10,Win32,60,,,space,0.089915,2,1,0.436755,,0,143,143,389,1,2b,47,2,19,
,,,,,,,,,,,,,,,,,,,,,,,,,,images/exp2b_trial_95_colour1_distractors4_l.png,l,1,032,001,2021-04-26_14h21.25.518,searchDisc4,2020.2.10,Win32,60,,,space,0.06352,1,1,0.535865,,0,144,144,437,1,2b,95,1,4,
,,,,,,,,,,,,,,,,,,,,,,,,,,images/exp2a_trial_80_colour1_distractors31_r.png,r,2,032,001,2021-04-26_14h21.25.518,searchDisc4,2020.2.10,Win32,60,,,space,0.12259,2,1,0.53905,,0,145,145,308,1,2a,80,1,31,
,,,,,,,,,,,,,,,,,,,,,,,,,,images/exp1b_trial_36_colour0_distractors0_r.png,r,2,032,001,2021-04-26_14h21.25.518,searchDisc4,2020.2.10,Win32,60,,,space,0.12306,2,1,0.524115,,0,146,146,150,1,1b,36,0,0,
,,,,,,,,,,,,,,,,,,,,,,,,,,images/exp1b_trial_51_colour3_distractors4_r.png,r,2,032,001,2021-04-26_14h21.25.518,searchDisc4,2020.2.10,Win32,60,,,space,0.08938,2,1,0.52017,,0,147,147,165,1,1b,51,3,4,
,,,,,,,,,,,,,,,,,,,,,,,,,,images/exp1a_trial_52_colour3_distractors9_r.png,r,2,032,001,2021-04-26_14h21.25.518,searchDisc4,2020.2.10,Win32,60,,,space,0.1085,2,1,0.544845,,0,148,148,52,1,1a,52,3,9,
,,,,,,,,,,,,,,,,,,,,,,,,,,images/exp1b_trial_78_colour1_distractors9_r.png,r,2,032,001,2021-04-26_14h21.25.518,searchDisc4,2020.2.10,Win32,60,,,space,0.10259,2,1,0.45299,,0,149,149,192,1,1b,78,1,9,
,,,,,,,,,,,,,,,,,,,,,,,,,,images/exp2c_trial_108_colour3_distractors9_l.png,l,1,032,001,2021-04-26_14h21.25.518,searchDisc4,2020.2.10,Win32,60,,,space,0.06865,1,1,0.671055,,0,150,150,564,1,2c,108,3,9,
,,,,,,,,,,,,,,,,,,,,,,,,,,images/exp1a_trial_104_colour2_distractors31_l.png,l,1,032,001,2021-04-26_14h21.25.518,searchDisc4,2020.2.10,Win32,60,,,space,0.196205,1,1,0.475,,0,151,151,104,1,1a,104,2,31,
,,,,,,,,,,,,,,,,,,,,,,,,,,images/exp1b_trial_8_colour2_distractors9_r.png,r,2,032,001,2021-04-26_14h21.25.518,searchDisc4,2020.2.10,Win32,60,,,space,0.21847,2,1,0.41227,,0,152,152,122,1,1b,8,2,9,
,,,,,,,,,,,,,,,,,,,,,,,,,,images/exp1a_trial_97_colour1_distractors19_l.png,l,1,032,001,2021-04-26_14h21.25.518,searchDisc4,2020.2.10,Win32,60,,,space,0.218425,1,1,0.52614,,0,153,153,97,1,1a,97,1,19,
,,,,,,,,,,,,,,,,,,,,,,,,,,images/exp2a_trial_21_colour1_distractors19_l.png,l,1,032,001,2021-04-26_14h21.25.518,searchDisc4,2020.2.10,Win32,60,,,space,0.205775,1,1,0.549215,,0,154,154,249,1,2a,21,1,19,
,,,,,,,,,,,,,,,,,,,,,,,,,,images/exp2c_trial_8_colour2_distractors9_r.png,r,2,032,001,2021-04-26_14h21.25.518,searchDisc4,2020.2.10,Win32,60,,,space,0.20974,2,1,0.55357,,0,155,155,464,1,2c,8,2,9,
,,,,,,,,,,,,,,,,,,,,,,,,,,images/exp2c_trial_25_colour2_distractors4_l.png,l,1,032,001,2021-04-26_14h21.25.518,searchDisc4,2020.2.10,Win32,60,,,space,0.139035,1,1,0.52835,,0,156,156,481,1,2c,25,2,4,
,,,,,,,,,,,,,,,,,,,,,,,,,,images/exp1a_trial_82_colour2_distractors1_r.png,r,2,032,001,2021-04-26_14h21.25.518,searchDisc4,2020.2.10,Win32,60,,,space,0.20267,2,1,0.411045,,0,157,157,82,1,1a,82,2,1,
,,,,,,,,,,,,,,,,,,,,,,,,,,images/exp2a_trial_104_colour2_distractors31_l.png,l,1,032,001,2021-04-26_14h21.25.518,searchDisc4,2020.2.10,Win32,60,,,space,0.179115,1,1,0.541575,,0,158,158,332,1,2a,104,2,31,
,,,,,,,,,,,,,,,,,,,,,,,,,,images/exp1a_trial_46_colour2_distractors9_r.png,r,2,032,001,2021-04-26_14h21.25.518,searchDisc4,2020.2.10,Win32,60,,,space,0.132125,2,1,0.579785,,0,159,159,46,1,1a,46,2,9,
,,,,,,,,,,,,,,,,,,,,,,,,,,images/exp2c_trial_34_colour3_distractors31_l.png,l,1,032,001,2021-04-26_14h21.25.518,searchDisc4,2020.2.10,Win32,60,,,space,0.098075,1,1,0.534695,,0,160,160,490,1,2c,34,3,31,
,,,,,,,,,,,,,,,,,,,,,,,,,,images/exp1a_trial_11_colour2_distractors43_r.png,r,2,032,001,2021-04-26_14h21.25.518,searchDisc4,2020.2.10,Win32,60,,,space,0.1173,2,1,0.581825,,0,161,161,11,1,1a,11,2,43,
,,,,,,,,,,,,,,,,,,,,,,,,,,images/exp1a_trial_111_colour3_distractors43_l.png,l,1,032,001,2021-04-26_14h21.25.518,searchDisc4,2020.2.10,Win32,60,,,space,0.11134,1,1,0.588025,,0,162,162,111,1,1a,111,3,43,
,,,,,,,,,,,,,,,,,,,,,,,,,,images/exp1b_trial_89_colour3_distractors4_r.png,r,2,032,001,2021-04-26_14h21.25.518,searchDisc4,2020.2.10,Win32,60,,,space,0.10444,1,0,1.1022,,0,163,163,203,1,1b,89,3,4,
,,,,,,,,,,,,,,,,,,,,,,,,,,images/exp2b_trial_105_colour2_distractors43_l.png,l,1,032,001,2021-04-26_14h21.25.518,searchDisc4,2020.2.10,Win32,60,,,space,0.277975,1,1,0.45682,,0,164,164,447,1,2b,105,2,43,
,,,,,,,,,,,,,,,,,,,,,,,,,,images/exp2a_trial_99_colour1_distractors43_l.png,l,1,032,001,2021-04-26_14h21.25.518,searchDisc4,2020.2.10,Win32,60,,,space,0.224755,1,1,0.429065,,0,165,165,327,1,2a,99,1,43,
,,,,,,,,,,,,,,,,,,,,,,,,,,images/exp1b_trial_52_colour3_distractors9_r.png,r,2,032,001,2021-04-26_14h21.25.518,searchDisc4,2020.2.10,Win32,60,,,space,0.218145,2,1,0.487425,,0,166,166,166,1,1b,52,3,9,
,,,,,,,,,,,,,,,,,,,,,,,,,,images/exp1a_trial_107_colour3_distractors4_l.png,l,1,032,001,2021-04-26_14h21.25.518,searchDisc4,2020.2.10,Win32,60,,,space,0.19479,1,1,0.567145,,0,167,167,107,1,1a,107,3,4,
,,,,,,,,,,,,,,,,,,,,,,,,,,images/exp1a_trial_30_colour3_distractors1_l.png,l,1,032,001,2021-04-26_14h21.25.518,searchDisc4,2020.2.10,Win32,60,,,space,0.186345,1,1,0.34378,,0,168,168,30,1,1a,30,3,1,
,,,,,,,,,,,,,,,,,,,,,,,,,,images/exp1b_trial_34_colour3_distractors31_l.png,l,1,032,001,2021-04-26_14h21.25.518,searchDisc4,2020.2.10,Win32,60,,,space,0.204145,1,1,1.209715,,0,169,169,148,1,1b,34,3,31,
,,,,,,,,,,,,,,,,,,,,,,,,,,images/exp2c_trial_54_colour3_distractors31_r.png,r,2,032,001,2021-04-26_14h21.25.518,searchDisc4,2020.2.10,Win32,60,,,space,0.146735,2,1,0.8157,,0,170,170,510,1,2c,54,3,31,
,,,,,,,,,,,,,,,,,,,,,,,,,,images/exp2c_trial_91_colour3_distractors19_r.png,r,2,032,001,2021-04-26_14h21.25.518,searchDisc4,2020.2.10,Win32,60,,,space,0.09749,2,1,0.444235,,0,171,171,547,1,2c,91,3,19,
,,,,,,,,,,,,,,,,,,,,,,,,,,images/exp2a_trial_23_colour1_distractors43_l.png,l,1,032,001,2021-04-26_14h21.25.518,searchDisc4,2020.2.10,Win32,60,,,space,0.0779,1,1,0.58187,,0,172,172,251,1,2a,23,1,43,
,,,,,,,,,,,,,,,,,,,,,,,,,,images/exp1b_trial_22_colour1_distractors31_l.png,l,1,032,001,2021-04-26_14h21.25.518,searchDisc4,2020.2.10,Win32,60,,,space,0.10959,1,1,0.627005,,0,173,173,136,1,1b,22,1,31,
,,,,,,,,,,,,,,,,,,,,,,,,,,images/exp2a_trial_32_colour3_distractors9_l.png,l,1,032,001,2021-04-26_14h21.25.518,searchDisc4,2020.2.10,Win32,60,,,space,0.111385,1,1,0.42286,,0,174,174,260,1,2a,32,3,9,
,,,,,,,,,,,,,,,,,,,,,,,,,,images/exp2a_trial_79_colour1_distractors19_r.png,r,2,032,001,2021-04-26_14h21.25.518,searchDisc4,2020.2.10,Win32,60,,,space,0.11964,2,1,0.557955,,0,175,175,307,1,2a,79,1,19,
,,,,,,,,,,,,,,,,,,,,,,,,,,images/exp2b_trial_14_colour3_distractors9_r.png,r,2,032,001,2021-04-26_14h21.25.518,searchDisc4,2020.2.10,Win32,60,,,space,0.118245,2,1,0.45986,,0,176,176,356,1,2b,14,3,9,
,,,,,,,,,,,,,,,,,,,,,,,,,,images/exp1a_trial_113_colour0_distractors0_l.png,l,1,032,001,2021-04-26_14h21.25.518,searchDisc4,2020.2.10,Win32,60,,,space,0.066115,1,1,0.62688,,0,177,177,113,1,1a,113,0,0,
,,,,,,,,,,,,,,,,,,,,,,,,,,images/exp2a_trial_27_colour2_distractors19_l.png,l,1,032,001,2021-04-26_14h21.25.518,searchDisc4,2020.2.10,Win32,60,,,space,0.089255,1,1,0.557305,,0,178,178,255,1,2a,27,2,19,
,,,,,,,,,,,,,,,,,,,,,,,,,,images/exp2c_trial_15_colour3_distractors19_r.png,r,2,032,001,2021-04-26_14h21.25.518,searchDisc4,2020.2.10,Win32,60,,,space,0.076815,2,1,0.580555,space,0,179,179,471,1,2c,15,3,19,0.069235
,,,,,,,,,,,,,,,,,,,,,,,,,,images/exp2a_trial_58_colour1_distractors9_l.png,l,1,032,001,2021-04-26_14h21.25.518,searchDisc4,2020.2.10,Win32,60,,,space,0.55598,1,1,0.505525,,0,180,180,286,1,2a,58,1,9,
,,,,,,,,,,,,,,,,,,,,,,,,,,images/exp1a_trial_17_colour3_distractors43_r.png,r,2,032,001,2021-04-26_14h21.25.518,searchDisc4,2020.2.10,Win32,60,,,space,0.35259,2,1,0.598365,,0,181,181,17,1,1a,17,3,43,
,,,,,,,,,,,,,,,,,,,,,,,,,,images/exp1b_trial_85_colour2_distractors19_r.png,r,2,032,001,2021-04-26_14h21.25.518,searchDisc4,2020.2.10,Win32,60,,,space,0.19393,2,1,0.642455,,0,182,182,199,1,1b,85,2,19,
,,,,,,,,,,,,,,,,,,,,,,,,,,images/exp1a_trial_59_colour1_distractors19_l.png,l,1,032,001,2021-04-26_14h21.25.518,searchDisc4,2020.2.10,Win32,60,,,space,0.16688,1,1,0.49033,,0,183,183,59,1,1a,59,1,19,
,,,,,,,,,,,,,,,,,,,,,,,,,,images/exp1a_trial_85_colour2_distractors19_r.png,r,2,032,001,2021-04-26_14h21.25.518,searchDisc4,2020.2.10,Win32,60,,,space,0.175075,2,1,0.648055,,0,184,184,85,1,1a,85,2,19,
,,,,,,,,,,,,,,,,,,,,,,,,,,images/exp2a_trial_102_colour2_distractors9_l.png,l,1,032,001,2021-04-26_14h21.25.518,searchDisc4,2020.2.10,Win32,60,,,space,0.18829,1,1,0.508685,,0,185,185,330,1,2a,102,2,9,
,,,,,,,,,,,,,,,,,,,,,,,,,,images/exp2b_trial_98_colour1_distractors31_l.png,l,1,032,001,2021-04-26_14h21.25.518,searchDisc4,2020.2.10,Win32,60,,,space,0.16848,1,1,0.71631,,0,186,186,440,1,2b,98,1,31,
,,,,,,,,,,,,,,,,,,,,,,,,,,images/exp2c_trial_46_colour2_distractors9_r.png,r,2,032,001,2021-04-26_14h21.25.518,searchDisc4,2020.2.10,Win32,60,,,space,0.2007,2,1,0.523435,,0,187,187,502,1,2c,46,2,9,
,,,,,,,,,,,,,,,,,,,,,,,,,,images/exp2c_trial_70_colour3_distractors9_l.png,l,1,032,001,2021-04-26_14h21.25.518,searchDisc4,2020.2.10,Win32,60,,,space,0.19552,1,1,0.531815,,0,188,188,526,1,2c,70,3,9,
,,,,,,,,,,,,,,,,,,,,,,,,,,images/exp2c_trial_92_colour3_distractors31_r.png,r,2,032,001,2021-04-26_14h21.25.518,searchDisc4,2020.2.10,Win32,60,,,space,0.2064,2,1,0.673385,,0,189,189,548,1,2c,92,3,31,
,,,,,,,,,,,,,,,,,,,,,,,,,,images/exp2a_trial_75_colour0_distractors0_l.png,l,1,032,001,2021-04-26_14h21.25.518,searchDisc4,2020.2.10,Win32,60,,,space,0.20256,1,1,0.50064,,0,190,190,303,1,2a,75,0,0,
,,,,,,,,,,,,,,,,,,,,,,,,,,images/exp2b_trial_13_colour3_distractors4_r.png,r,2,032,001,2021-04-26_14h21.25.518,searchDisc4,2020.2.10,Win32,60,,,space,0.206015,2,1,0.473145,,0,191,191,355,1,2b,13,3,4,
,,,,,,,,,,,,,,,,,,,,,,,,,,images/exp2c_trial_50_colour3_distractors1_r.png,r,2,032,001,2021-04-26_14h21.25.518,searchDisc4,2020.2.10,Win32,60,,,space,0.18209,2,1,0.49964,,0,192,192,506,1,2c,50,3,1,
,,,,,,,,,,,,,,,,,,,,,,,,,,images/exp1b_trial_66_colour2_distractors31_l.png,l,1,032,001,2021-04-26_14h21.25.518,searchDisc4,2020.2.10,Win32,60,,,space,0.22746,1,1,0.640075,,0,193,193,180,1,1b,66,2,31,
,,,,,,,,,,,,,,,,,,,,,,,,,,images/exp1a_trial_76_colour1_distractors1_r.png,r,2,032,001,2021-04-26_14h21.25.518,searchDisc4,2020.2.10,Win32,60,,,space,0.243075,2,1,0.575255,,0,194,194,76,1,1a,76,1,1,
,,,,,,,,,,,,,,,,,,,,,,,,,,images/exp1a_trial_91_colour3_distractors19_r.png,r,2,032,001,2021-04-26_14h21.25.518,searchDisc4,2020.2.10,Win32,60,,,space,0.19638,2,1,0.57351,,0,195,195,91,1,1a,91,3,19,
,,,,,,,,,,,,,,,,,,,,,,,,,,images/exp2b_trial_102_colour2_distractors9_l.png,l,1,032,001,2021-04-26_14h21.25.518,searchDisc4,2020.2.10,Win32,60,,,space,0.143055,1,1,0.587795,,0,196,196,444,1,2b,102,2,9,
,,,,,,,,,,,,,,,,,,,,,,,,,,images/exp2a_trial_84_colour2_distractors9_r.png,r,2,032,001,2021-04-26_14h21.25.518,searchDisc4,2020.2.10,Win32,60,,,space,0.16085,2,1,0.531415,,0,197,197,312,1,2a,84,2,9,
,,,,,,,,,,,,,,,,,,,,,,,,,,images/exp2b_trial_52_colour3_distractors9_r.png,r,2,032,001,2021-04-26_14h21.25.518,searchDisc4,2020.2.10,Win32,60,,,space,0.169265,2,1,0.53783,,0,198,198,394,1,2b,52,3,9,
,,,,,,,,,,,,,,,,,,,,,,,,,,images/exp2c_trial_77_colour1_distractors4_r.png,r,2,032,001,2021-04-26_14h21.25.518,searchDisc4,2020.2.10,Win32,60,,,space,0.157905,2,1,0.439575,,0,199,199,533,1,2c,77,1,4,
,,,,,,,,,,,,,,,,,,,,,,,,,,images/exp2b_trial_11_colour2_distractors43_r.png,r,2,032,001,2021-04-26_14h21.25.518,searchDisc4,2020.2.10,Win32,60,,,space,0.127525,2,1,0.471755,,0,200,200,353,1,2b,11,2,43,
,,,,,,,,,,,,,,,,,,,,,,,,,,images/exp2a_trial_30_colour3_distractors1_l.png,l,1,032,001,2021-04-26_14h21.25.518,searchDisc4,2020.2.10,Win32,60,,,space,0.09922,2,0,0.400635,,0,201,201,258,1,2a,30,3,1,
,,,,,,,,,,,,,,,,,,,,,,,,,,images/exp1a_trial_100_colour2_distractors1_l.png,l,1,032,001,2021-04-26_14h21.25.518,searchDisc4,2020.2.10,Win32,60,,,space,0.258045,1,1,0.56031,,0,202,202,100,1,1a,100,2,1,
,,,,,,,,,,,,,,,,,,,,,,,,,,images/exp2a_trial_25_colour2_distractors4_l.png,l,1,032,001,2021-04-26_14h21.25.518,searchDisc4,2020.2.10,Win32,60,,,space,0.196785,1,1,0.61911,,0,203,203,253,1,2a,25,2,4,
,,,,,,,,,,,,,,,,,,,,,,,,,,images/exp2a_trial_28_colour2_distractors31_l.png,l,1,032,001,2021-04-26_14h21.25.518,searchDisc4,2020.2.10,Win32,60,,,space,0.172035,1,1,0.394595,,0,204,204,256,1,2a,28,2,31,
,,,,,,,,,,,,,,,,,,,,,,,,,,images/exp1b_trial_17_colour3_distractors43_r.png,r,2,032,001,2021-04-26_14h21.25.518,searchDisc4,2020.2.10,Win32,60,,,space,0.23307,2,1,1.005605,,0,205,205,131,1,1b,17,3,43,
,,,,,,,,,,,,,,,,,,,,,,,,,,images/exp2a_trial_60_colour1_distractors31_l.png,l,1,032,001,2021-04-26_14h21.25.518,searchDisc4,2020.2.10,Win32,60,,,space,0.170445,1,1,0.589275,,0,206,206,288,1,2a,60,1,31,
,,,,,,,,,,,,,,,,,,,,,,,,,,images/exp2a_trial_57_colour1_distractors4_l.png,l,1,032,001,2021-04-26_14h21.25.518,searchDisc4,2020.2.10,Win32,60,,,space,0.172545,1,1,0.474495,,0,207,207,285,1,2a,57,1,4,
,,,,,,,,,,,,,,,,,,,,,,,,,,images/exp2a_trial_10_colour2_distractors31_r.png,r,2,032,001,2021-04-26_14h21.25.518,searchDisc4,2020.2.10,Win32,60,,,space,0.12685,2,1,0.428225,,0,208,208,238,1,2a,10,2,31,
,,,,,,,,,,,,,,,,,,,,,,,,,,images/exp2b_trial_38_colour1_distractors1_r.png,r,2,032,001,2021-04-26_14h21.25.518,searchDisc4,2020.2.10,Win32,60,,,space,0.16006,2,1,0.38951,,0,209,209,380,1,2b,38,1,1,
,,,,,,,,,,,,,,,,,,,,,,,,,,images/exp2b_trial_93_colour3_distractors43_r.png,r,2,032,001,2021-04-26_14h21.25.518,searchDisc4,2020.2.10,Win32,60,,,space,0.096405,2,1,0.453385,,0,210,210,435,1,2b,93,3,43,
,,,,,,,,,,,,,,,,,,,,,,,,,,images/exp2a_trial_87_colour2_distractors43_r.png,r,2,032,001,2021-04-26_14h21.25.518,searchDisc4,2020.2.10,Win32,60,,,space,0.28544,2,1,0.52211,,0,211,211,315,1,2a,87,2,43,
,,,,,,,,,,,,,,,,,,,,,,,,,,images/exp1a_trial_65_colour2_distractors19_l.png,l,1,032,001,2021-04-26_14h21.25.518,searchDisc4,2020.2.10,Win32,60,,,space,0.138775,1,1,0.631495,,0,212,212,65,1,1a,65,2,19,
,,,,,,,,,,,,,,,,,,,,,,,,,,images/exp2a_trial_70_colour3_distractors9_l.png,l,1,032,001,2021-04-26_14h21.25.518,searchDisc4,2020.2.10,Win32,60,,,space,0.16706,1,1,0.36458,,0,213,213,298,1,2a,70,3,9,
,,,,,,,,,,,,,,,,,,,,,,,,,,images/exp2c_trial_5_colour1_distractors43_r.png,r,2,032,001,2021-04-26_14h21.25.518,searchDisc4,2020.2.10,Win32,60,,,space,0.16758,2,1,0.631215,,0,214,214,461,1,2c,5,1,43,
,,,,,,,,,,,,,,,,,,,,,,,,,,images/exp1a_trial_74_colour0_distractors0_r.png,r,2,032,001,2021-04-26_14h21.25.518,searchDisc4,2020.2.10,Win32,60,,,space,0.154085,2,1,0.45246,,0,215,215,74,1,1a,74,0,0,
,,,,,,,,,,,,,,,,,,,,,,,,,,images/exp2c_trial_106_colour3_distractors1_l.png,l,1,032,001,2021-04-26_14h21.25.518,searchDisc4,2020.2.10,Win32,60,,,space,0.16034,1,1,0.477385,,0,216,216,562,1,2c,106,3,1,
,,,,,,,,,,,,,,,,,,,,,,,,,,images/exp2c_trial_67_colour2_distractors43_l.png,l,1,032,001,2021-04-26_14h21.25.518,searchDisc4,2020.2.10,Win32,60,,,space,0.169095,1,1,0.645785,,0,217,217,523,1,2c,67,2,43,
,,,,,,,,,,,,,,,,,,,,,,,,,,images/exp1a_trial_72_colour3_distractors31_l.png,l,1,032,001,2021-04-26_14h21.25.518,searchDisc4,2020.2.10,Win32,60,,,space,0.144495,1,1,0.437165,,0,218,218,72,1,1a,72,3,31,
,,,,,,,,,,,,,,,,,,,,,,,,,,images/exp1a_trial_25_colour2_distractors4_l.png,l,1,032,001,2021-04-26_14h21.25.518,searchDisc4,2020.2.10,Win32,60,,,space,0.181115,1,1,0.81378,,0,219,219,25,1,1a,25,2,4,
,,,,,,,,,,,,,,,,,,,,,,,,,,images/exp1a_trial_29_colour2_distractors43_l.png,l,1,032,001,2021-04-26_14h21.25.518,searchDisc4,2020.2.10,Win32,60,,,space,0.13391,1,1,0.63612,,0,220,220,29,1,1a,29,2,43,
,,,,,,,,,,,,,,,,,,,,,,,,,,images/exp1b_trial_9_colour2_distractors19_r.png,r,2,032,001,2021-04-26_14h21.25.518,searchDisc4,2020.2.10,Win32,60,,,space,0.09077,2,1,0.59634,,0,221,221,123,1,1b,9,2,19,
,,,,,,,,,,,,,,,,,,,,,,,,,,images/exp1b_trial_41_colour1_distractors19_r.png,r,2,032,001,2021-04-26_14h21.25.518,searchDisc4,2020.2.10,Win32,60,,,space,0.102805,2,1,0.610375,,0,222,222,155,1,1b,41,1,19,
,,,,,,,,,,,,,,,,,,,,,,,,,,images/exp2a_trial_83_colour2_distractors4_r.png,r,2,032,001,2021-04-26_14h21.25.518,searchDisc4,2020.2.10,Win32,60,,,space,0.095795,2,1,0.47909,,0,223,223,311,1,2a,83,2,4,
,,,,,,,,,,,,,,,,,,,,,,,,,,images/exp1a_trial_4_colour1_distractors31_r.png,r,2,032,001,2021-04-26_14h21.25.518,searchDisc4,2020.2.10,Win32,60,,,space,0.076695,2,1,0.409975,,0,224,224,4,1,1a,4,1,31,
,,,,,,,,,,,,,,,,,,,,,,,,,,images/exp1a_trial_95_colour1_distractors4_l.png,l,1,032,001,2021-04-26_14h21.25.518,searchDisc4,2020.2.10,Win32,60,,,space,0.088505,1,1,0.458995,,0,225,225,95,1,1a,95,1,4,
,,,,,,,,,,,,,,,,,,,,,,,,,,images/exp1a_trial_106_colour3_distractors1_l.png,l,1,032,001,2021-04-26_14h21.25.518,searchDisc4,2020.2.10,Win32,60,,,space,0.099665,1,1,0.38089,,0,226,226,106,1,1a,106,3,1,
,,,,,,,,,,,,,,,,,,,,,,,,,,images/exp1b_trial_79_colour1_distractors19_r.png,r,2,032,001,2021-04-26_14h21.25.518,searchDisc4,2020.2.10,Win32,60,,,space,0.10588,2,1,0.81786,,0,227,227,193,1,1b,79,1,19,
,,,,,,,,,,,,,,,,,,,,,,,,,,images/exp2b_trial_90_colour3_distractors9_r.png,r,2,032,001,2021-04-26_14h21.25.518,searchDisc4,2020.2.10,Win32,60,,,space,0.133855,2,1,0.53674,,0,228,228,432,1,2b,90,3,9,
,,,,,,,,,,,,,,,,,,,,,,,,,,images/exp2b_trial_40_colour1_distractors9_r.png,r,2,032,001,2021-04-26_14h21.25.518,searchDisc4,2020.2.10,Win32,60,,,space,0.119335,2,1,0.44922,,0,229,229,382,1,2b,40,1,9,
,,,,,,,,,,,,,,,,,,,,,,,,,,images/exp2a_trial_59_colour1_distractors19_l.png,l,1,032,001,2021-04-26_14h21.25.518,searchDisc4,2020.2.10,Win32,60,,,space,0.080785,1,1,0.46423,,0,230,230,287,1,2a,59,1,19,
,,,,,,,,,,,,,,,,,,,,,,,,,,images/exp1a_trial_112_colour0_distractors0_r.png,r,2,032,001,2021-04-26_14h21.25.518,searchDisc4,2020.2.10,Win32,60,,,space,0.16046,1,0,0.349535,,0,231,231,112,1,1a,112,0,0,
,,,,,,,,,,,,,,,,,,,,,,,,,,images/exp2c_trial_102_colour2_distractors9_l.png,l,1,032,001,2021-04-26_14h21.25.518,searchDisc4,2020.2.10,Win32,60,,,space,0.28413,1,1,0.42474,,0,232,232,558,1,2c,102,2,9,
,,,,,,,,,,,,,,,,,,,,,,,,,,images/exp2c_trial_36_colour0_distractors0_r.png,r,2,032,001,2021-04-26_14h21.25.518,searchDisc4,2020.2.10,Win32,60,,,space,0.20905,2,1,0.46393,,0,233,233,492,1,2c,36,0,0,
,,,,,,,,,,,,,,,,,,,,,,,,,,images/exp2a_trial_33_colour3_distractors19_l.png,l,1,032,001,2021-04-26_14h21.25.518,searchDisc4,2020.2.10,Win32,60,,,space,0.117625,1,1,0.4654,,0,234,234,261,1,2a,33,3,19,
,,,,,,,,,,,,,,,,,,,,,,,,,,images/exp2c_trial_63_colour2_distractors4_l.png,l,1,032,001,2021-04-26_14h21.25.518,searchDisc4,2020.2.10,Win32,60,,,space,0.138955,1,1,0.449405,,0,235,235,519,1,2c,63,2,4,
,,,,,,,,,,,,,,,,,,,,,,,,,,images/exp2a_trial_8_colour2_distractors9_r.png,r,2,032,001,2021-04-26_14h21.25.518,searchDisc4,2020.2.10,Win32,60,,,space,0.10434,2,1,0.48208,,0,236,236,236,1,2a,8,2,9,
,,,,,,,,,,,,,,,,,,,,,,,,,,images/exp1b_trial_15_colour3_distractors19_r.png,r,2,032,001,2021-04-26_14h21.25.518,searchDisc4,2020.2.10,Win32,60,,,space,0.157975,2,1,0.51106,,0,237,237,129,1,1b,15,3,19,
,,,,,,,,,,,,,,,,,,,,,,,,,,images/exp2a_trial_96_colour1_distractors9_l.png,l,1,032,001,2021-04-26_14h21.25.518,searchDisc4,2020.2.10,Win32,60,,,space,0.125125,1,1,0.494375,,0,238,238,324,1,2a,96,1,9,
,,,,,,,,,,,,,,,,,,,,,,,,,,images/exp2a_trial_94_colour1_distractors1_l.png,l,1,032,001,2021-04-26_14h21.25.518,searchDisc4,2020.2.10,Win32,60,,,space,0.151745,1,1,0.410185,space,0,239,239,322,1,2a,94,1,1,0.160295
,,,,,,,,,,,,,,,,,,,,,,,,,,images/exp2c_trial_12_colour3_distractors1_r.png,r,2,032,001,2021-04-26_14h21.25.518,searchDisc4,2020.2.10,Win32,60,,,space,0.475805,2,1,0.445065,,0,240,240,468,1,2c,12,3,1,
,,,,,,,,,,,,,,,,,,,,,,,,,,images/exp1a_trial_38_colour1_distractors1_r.png,r,2,032,001,2021-04-26_14h21.25.518,searchDisc4,2020.2.10,Win32,60,,,space,0.16684,1,0,0.395235,,0,241,241,38,1,1a,38,1,1,
,,,,,,,,,,,,,,,,,,,,,,,,,,images/exp1b_trial_25_colour2_distractors4_l.png,l,1,032,001,2021-04-26_14h21.25.518,searchDisc4,2020.2.10,Win32,60,,,space,0.33216,1,1,0.662055,,0,242,242,139,1,1b,25,2,4,
,,,,,,,,,,,,,,,,,,,,,,,,,,images/exp1b_trial_50_colour3_distractors1_r.png,r,2,032,001,2021-04-26_14h21.25.518,searchDisc4,2020.2.10,Win32,60,,,space,0.222465,2,1,0.629145,,0,243,243,164,1,1b,50,3,1,
,,,,,,,,,,,,,,,,,,,,,,,,,,images/exp1a_trial_45_colour2_distractors4_r.png,r,2,032,001,2021-04-26_14h21.25.518,searchDisc4,2020.2.10,Win32,60,,,space,0.21172,2,1,0.501115,,0,244,244,45,1,1a,45,2,4,
,,,,,,,,,,,,,,,,,,,,,,,,,,images/exp1b_trial_6_colour2_distractors1_r.png,r,2,032,001,2021-04-26_14h21.25.518,searchDisc4,2020.2.10,Win32,60,,,space,0.202455,2,1,0.64136,,0,245,245,120,1,1b,6,2,1,
,,,,,,,,,,,,,,,,,,,,,,,,,,images/exp2b_trial_27_colour2_distractors19_l.png,l,1,032,001,2021-04-26_14h21.25.518,searchDisc4,2020.2.10,Win32,60,,,space,0.22066,1,1,0.47902,,0,246,246,369,1,2b,27,2,19,
,,,,,,,,,,,,,,,,,,,,,,,,,,images/exp2c_trial_2_colour1_distractors9_r.png,r,2,032,001,2021-04-26_14h21.25.518,searchDisc4,2020.2.10,Win32,60,,,space,0.17956,2,1,0.482225,,0,247,247,458,1,2c,2,1,9,
,,,,,,,,,,,,,,,,,,,,,,,,,,images/exp2a_trial_68_colour3_distractors1_l.png,l,1,032,001,2021-04-26_14h21.25.518,searchDisc4,2020.2.10,Win32,60,,,space,0.15302,1,1,0.37251,,0,248,248,296,1,2a,68,3,1,
,,,,,,,,,,,,,,,,,,,,,,,,,,images/exp2a_trial_11_colour2_distractors43_r.png,r,2,032,001,2021-04-26_14h21.25.518,searchDisc4,2020.2.10,Win32,60,,,space,0.217845,2,1,0.544875,,0,249,249,239,1,2a,11,2,43,
,,,,,,,,,,,,,,,,,,,,,,,,,,images/exp2b_trial_34_colour3_distractors31_l.png,l,1,032,001,2021-04-26_14h21.25.518,searchDisc4,2020.2.10,Win32,60,,,space,0.19313,1,1,0.536265,,0,250,250,376,1,2b,34,3,31,
,,,,,,,,,,,,,,,,,,,,,,,,,,images/exp1a_trial_39_colour1_distractors4_r.png,r,2,032,001,2021-04-26_14h21.25.518,searchDisc4,2020.2.10,Win32,60,,,space,0.171725,2,1,0.68848,,0,251,251,39,1,1a,39,1,4,
,,,,,,,,,,,,,,,,,,,,,,,,,,images/exp1b_trial_4_colour1_distractors31_r.png,r,2,032,001,2021-04-26_14h21.25.518,searchDisc4,2020.2.10,Win32,60,,,space,0.18976,2,1,0.69105,,0,252,252,118,1,1b,4,1,31,
,,,,,,,,,,,,,,,,,,,,,,,,,,images/exp1b_trial_83_colour2_distractors4_r.png,r,2,032,001,2021-04-26_14h21.25.518,searchDisc4,2020.2.10,Win32,60,,,space,0.11072,2,1,0.43745,,0,253,253,197,1,1b,83,2,4,
,,,,,,,,,,,,,,,,,,,,,,,,,,images/exp1b_trial_24_colour2_distractors1_l.png,l,1,032,001,2021-04-26_14h21.25.518,searchDisc4,2020.2.10,Win32,60,,,space,0.152945,1,1,0.493315,,0,254,254,138,1,1b,24,2,1,
,,,,,,,,,,,,,,,,,,,,,,,,,,images/exp1a_trial_109_colour3_distractors19_l.png,l,1,032,001,2021-04-26_14h21.25.518,searchDisc4,2020.2.10,Win32,60,,,space,0.166895,1,1,0.42306,,0,255,255,109,1,1a,109,3,19,
,,,,,,,,,,,,,,,,,,,,,,,,,,images/exp2c_trial_75_colour0_distractors0_l.png,l,1,032,001,2021-04-26_14h21.25.518,searchDisc4,2020.2.10,Win32,60,,,space,0.19456,1,1,0.366205,,0,256,256,531,1,2c,75,0,0,
,,,,,,,,,,,,,,,,,,,,,,,,,,images/exp1b_trial_2_colour1_distractors9_r.png,r,2,032,001,2021-04-26_14h21.25.518,searchDisc4,2020.2.10,Win32,60,,,space,0.19468,2,1,0.439895,,0,257,257,116,1,1b,2,1,9,
,,,,,,,,,,,,,,,,,,,,,,,,,,images/exp2c_trial_49_colour2_distractors43_r.png,r,2,032,001,2021-04-26_14h21.25.518,searchDisc4,2020.2.10,Win32,60,,,space,0.29251,2,1,0.52702,,0,258,258,505,1,2c,49,2,43,
,,,,,,,,,,,,,,,,,,,,,,,,,,images/exp2a_trial_64_colour2_distractors9_l.png,l,1,032,001,2021-04-26_14h21.25.518,searchDisc4,2020.2.10,Win32,60,,,space,0.20881,1,1,0.41096,,0,259,259,292,1,2a,64,2,9,
,,,,,,,,,,,,,,,,,,,,,,,,,,images/exp2b_trial_70_colour3_distractors9_l.png,l,1,032,001,2021-04-26_14h21.25.518,searchDisc4,2020.2.10,Win32,60,,,space,0.249965,1,1,0.549295,,0,260,260,412,1,2b,70,3,9,
,,,,,,,,,,,,,,,,,,,,,,,,,,images/exp1b_trial_87_colour2_distractors43_r.png,r,2,032,001,2021-04-26_14h21.25.518,searchDisc4,2020.2.10,Win32,60,,,space,0.1946,1,0,0.623195,,0,261,261,201,1,1b,87,2,43,
,,,,,,,,,,,,,,,,,,,,,,,,,,images/exp2c_trial_1_colour1_distractors4_r.png,r,2,032,001,2021-04-26_14h21.25.518,searchDisc4,2020.2.10,Win32,60,,,space,0.39734,2,1,0.673915,,0,262,262,457,1,2c,1,1,4,
,,,,,,,,,,,,,,,,,,,,,,,,,,images/exp2c_trial_18_colour1_distractors1_l.png,l,1,032,001,2021-04-26_14h21.25.518,searchDisc4,2020.2.10,Win32,60,,,space,0.221,1,1,0.51241,,0,263,263,474,1,2c,18,1,1,
,,,,,,,,,,,,,,,,,,,,,,,,,,images/exp2a_trial_50_colour3_distractors1_r.png,r,2,032,001,2021-04-26_14h21.25.518,searchDisc4,2020.2.10,Win32,60,,,space,0.23865,2,1,0.4713,,0,264,264,278,1,2a,50,3,1,
,,,,,,,,,,,,,,,,,,,,,,,,,,images/exp1a_trial_13_colour3_distractors4_r.png,r,2,032,001,2021-04-26_14h21.25.518,searchDisc4,2020.2.10,Win32,60,,,space,0.1805,2,1,2.129375,,0,265,265,13,1,1a,13,3,4,
,,,,,,,,,,,,,,,,,,,,,,,,,,images/exp2b_trial_25_colour2_distractors4_l.png,l,1,032,001,2021-04-26_14h21.25.518,searchDisc4,2020.2.10,Win32,60,,,space,0.299665,1,1,0.416455,,0,266,266,367,1,2b,25,2,4,
,,,,,,,,,,,,,,,,,,,,,,,,,,images/exp2c_trial_61_colour1_distractors43_l.png,l,1,032,001,2021-04-26_14h21.25.518,searchDisc4,2020.2.10,Win32,60,,,space,0.18762,1,1,0.603215,,0,267,267,517,1,2c,61,1,43,
,,,,,,,,,,,,,,,,,,,,,,,,,,images/exp2c_trial_60_colour1_distractors31_l.png,l,1,032,001,2021-04-26_14h21.25.518,searchDisc4,2020.2.10,Win32,60,,,space,0.269655,1,1,0.56564,,0,268,268,516,1,2c,60,1,31,
,,,,,,,,,,,,,,,,,,,,,,,,,,images/exp2c_trial_35_colour3_distractors43_l.png,l,1,032,001,2021-04-26_14h21.25.518,searchDisc4,2020.2.10,Win32,60,,,space,0.19859,1,1,0.569305,,0,269,269,491,1,2c,35,3,43,
,,,,,,,,,,,,,,,,,,,,,,,,,,images/exp2a_trial_66_colour2_distractors31_l.png,l,1,032,001,2021-04-26_14h21.25.518,searchDisc4,2020.2.10,Win32,60,,,space,0.164375,1,1,0.512575,,0,270,270,294,1,2a,66,2,31,
,,,,,,,,,,,,,,,,,,,,,,,,,,images/exp2c_trial_43_colour1_distractors43_r.png,r,2,032,001,2021-04-26_14h21.25.518,searchDisc4,2020.2.10,Win32,60,,,space,0.214635,2,1,0.465505,,0,271,271,499,1,2c,43,1,43,
,,,,,,,,,,,,,,,,,,,,,,,,,,images/exp2b_trial_57_colour1_distractors4_l.png,l,1,032,001,2021-04-26_14h21.25.518,searchDisc4,2020.2.10,Win32,60,,,space,0.140815,1,1,0.669045,,0,272,272,399,1,2b,57,1,4,
,,,,,,,,,,,,,,,,,,,,,,,,,,images/exp1a_trial_61_colour1_distractors43_l.png,l,1,032,001,2021-04-26_14h21.25.518,searchDisc4,2020.2.10,Win32,60,,,space,0.19954,1,1,0.531245,,0,273,273,61,1,1a,61,1,43,
,,,,,,,,,,,,,,,,,,,,,,,,,,images/exp2b_trial_24_colour2_distractors1_l.png,l,1,032,001,2021-04-26_14h21.25.518,searchDisc4,2020.2.10,Win32,60,,,space,0.15404,1,1,0.440985,,0,274,274,366,1,2b,24,2,1,
,,,,,,,,,,,,,,,,,,,,,,,,,,images/exp1a_trial_6_colour2_distractors1_r.png,r,2,032,001,2021-04-26_14h21.25.518,searchDisc4,2020.2.10,Win32,60,,,space,0.172065,1,0,0.458295,,0,275,275,6,1,1a,6,2,1,
,,,,,,,,,,,,,,,,,,,,,,,,,,images/exp1a_trial_5_colour1_distractors43_r.png,r,2,032,001,2021-04-26_14h21.25.518,searchDisc4,2020.2.10,Win32,60,,,space,0.244495,2,1,0.596015,,0,276,276,5,1,1a,5,1,43,
,,,,,,,,,,,,,,,,,,,,,,,,,,images/exp2c_trial_24_colour2_distractors1_l.png,l,1,032,001,2021-04-26_14h21.25.518,searchDisc4,2020.2.10,Win32,60,,,space,0.18778,1,1,0.48282,,0,277,277,480,1,2c,24,2,1,
,,,,,,,,,,,,,,,,,,,,,,,,,,images/exp1a_trial_92_colour3_distractors31_r.png,r,2,032,001,2021-04-26_14h21.25.518,searchDisc4,2020.2.10,Win32,60,,,space,0.22323,2,1,0.545075,,0,278,278,92,1,1a,92,3,31,
,,,,,,,,,,,,,,,,,,,,,,,,,,images/exp1b_trial_55_colour3_distractors43_r.png,r,2,032,001,2021-04-26_14h21.25.518,searchDisc4,2020.2.10,Win32,60,,,space,0.154895,2,1,3.819055,,0,279,279,169,1,1b,55,3,43,
,,,,,,,,,,,,,,,,,,,,,,,,,,images/exp1a_trial_3_colour1_distractors19_r.png,r,2,032,001,2021-04-26_14h21.25.518,searchDisc4,2020.2.10,Win32,60,,,space,0.234455,2,1,0.66518,,0,280,280,3,1,1a,3,1,19,
,,,,,,,,,,,,,,,,,,,,,,,,,,images/exp2b_trial_101_colour2_distractors4_l.png,l,1,032,001,2021-04-26_14h21.25.518,searchDisc4,2020.2.10,Win32,60,,,space,0.118995,1,1,0.522675,,0,281,281,443,1,2b,101,2,4,
,,,,,,,,,,,,,,,,,,,,,,,,,,images/exp2b_trial_97_colour1_distractors19_l.png,l,1,032,001,2021-04-26_14h21.25.518,searchDisc4,2020.2.10,Win32,60,,,space,0.17356,1,1,0.45873,,0,282,282,439,1,2b,97,1,19,
,,,,,,,,,,,,,,,,,,,,,,,,,,images/exp2a_trial_101_colour2_distractors4_l.png,l,1,032,001,2021-04-26_14h21.25.518,searchDisc4,2020.2.10,Win32,60,,,space,0.167175,1,1,0.573375,,0,283,283,329,1,2a,101,2,4,
,,,,,,,,,,,,,,,,,,,,,,,,,,images/exp1b_trial_91_colour3_distractors19_r.png,r,2,032,001,2021-04-26_14h21.25.518,searchDisc4,2020.2.10,Win32,60,,,space,0.06042,2,1,0.955735,,0,284,284,205,1,1b,91,3,19,
,,,,,,,,,,,,,,,,,,,,,,,,,,images/exp2c_trial_78_colour1_distractors9_r.png,r,2,032,001,2021-04-26_14h21.25.518,searchDisc4,2020.2.10,Win32,60,,,space,0.117185,2,1,0.453165,,0,285,285,534,1,2c,78,1,9,
,,,,,,,,,,,,,,,,,,,,,,,,,,images/exp2b_trial_69_colour3_distractors4_l.png,l,1,032,001,2021-04-26_14h21.25.518,searchDisc4,2020.2.10,Win32,60,,,space,0.04027,1,1,0.604835,,0,286,286,411,1,2b,69,3,4,
,,,,,,,,,,,,,,,,,,,,,,,,,,images/exp1a_trial_31_colour3_distractors4_l.png,l,1,032,001,2021-04-26_14h21.25.518,searchDisc4,2020.2.10,Win32,60,,,space,0.08912,1,1,0.51362,,0,287,287,31,1,1a,31,3,4,
,,,,,,,,,,,,,,,,,,,,,,,,,,images/exp2b_trial_74_colour0_distractors0_r.png,r,2,032,001,2021-04-26_14h21.25.518,searchDisc4,2020.2.10,Win32,60,,,space,0.08883,2,1,0.8276,,0,288,288,416,1,2b,74,0,0,
,,,,,,,,,,,,,,,,,,,,,,,,,,images/exp1b_trial_33_colour3_distractors19_l.png,l,1,032,001,2021-04-26_14h21.25.518,searchDisc4,2020.2.10,Win32,60,,,space,0.050375,1,1,1.25282,,0,289,289,147,1,1b,33,3,19,
,,,,,,,,,,,,,,,,,,,,,,,,,,images/exp1b_trial_73_colour3_distractors43_l.png,l,1,032,001,2021-04-26_14h21.25.518,searchDisc4,2020.2.10,Win32,60,,,space,0.096405,1,1,1.66185,,0,290,290,187,1,1b,73,3,43,
,,,,,,,,,,,,,,,,,,,,,,,,,,images/exp2c_trial_55_colour3_distractors43_r.png,r,2,032,001,2021-04-26_14h21.25.518,searchDisc4,2020.2.10,Win32,60,,,space,0.08133,2,1,0.60977,,0,291,291,511,1,2c,55,3,43,
,,,,,,,,,,,,,,,,,,,,,,,,,,images/exp1a_trial_60_colour1_distractors31_l.png,l,1,032,001,2021-04-26_14h21.25.518,searchDisc4,2020.2.10,Win32,60,,,space,0.053785,1,1,0.564625,,0,292,292,60,1,1a,60,1,31,
,,,,,,,,,,,,,,,,,,,,,,,,,,images/exp2b_trial_26_colour2_distractors9_l.png,l,1,032,001,2021-04-26_14h21.25.518,searchDisc4,2020.2.10,Win32,60,,,space,0.079045,1,1,0.47867,,0,293,293,368,1,2b,26,2,9,
,,,,,,,,,,,,,,,,,,,,,,,,,,images/exp2b_trial_19_colour1_distractors4_l.png,l,1,032,001,2021-04-26_14h21.25.518,searchDisc4,2020.2.10,Win32,60,,,space,0.061515,1,1,0.43089,,0,294,294,361,1,2b,19,1,4,
,,,,,,,,,,,,,,,,,,,,,,,,,,images/exp2b_trial_45_colour2_distractors4_r.png,r,2,032,001,2021-04-26_14h21.25.518,searchDisc4,2020.2.10,Win32,60,,,space,0.06719,2,1,0.527575,,0,295,295,387,1,2b,45,2,4,
,,,,,,,,,,,,,,,,,,,,,,,,,,images/exp1b_trial_44_colour2_distractors1_r.png,r,2,032,001,2021-04-26_14h21.25.518,searchDisc4,2020.2.10,Win32,60,,,space,0.09008,2,1,0.45382,,0,296,296,158,1,1b,44,2,1,
,,,,,,,,,,,,,,,,,,,,,,,,,,images/exp2a_trial_26_colour2_distractors9_l.png,l,1,032,001,2021-04-26_14h21.25.518,searchDisc4,2020.2.10,Win32,60,,,space,0.062635,1,1,0.990305,,0,297,297,254,1,2a,26,2,9,
,,,,,,,,,,,,,,,,,,,,,,,,,,images/exp2a_trial_18_colour1_distractors1_l.png,l,1,032,001,2021-04-26_14h21.25.518,searchDisc4,2020.2.10,Win32,60,,,space,0.094055,1,1,0.45325,,0,298,298,246,1,2a,18,1,1,
,,,,,,,,,,,,,,,,,,,,,,,,,,images/exp2b_trial_61_colour1_distractors43_l.png,l,1,032,001,2021-04-26_14h21.25.518,searchDisc4,2020.2.10,Win32,60,,,space,0.08498,1,1,0.462075,space,0,299,299,403,1,2b,61,1,43,0.18038
,,,,,,,,,,,,,,,,,,,,,,,,,,images/exp1a_trial_57_colour1_distractors4_l.png,l,1,032,001,2021-04-26_14h21.25.518,searchDisc4,2020.2.10,Win32,60,,,space,0.44502,1,1,0.987185,,0,300,300,57,1,1a,57,1,4,
,,,,,,,,,,,,,,,,,,,,,,,,,,images/exp2b_trial_10_colour2_distractors31_r.png,r,2,032,001,2021-04-26_14h21.25.518,searchDisc4,2020.2.10,Win32,60,,,space,0.236335,2,1,0.450605,,0,301,301,352,1,2b,10,2,31,
,,,,,,,,,,,,,,,,,,,,,,,,,,images/exp1b_trial_20_colour1_distractors9_l.png,l,1,032,001,2021-04-26_14h21.25.518,searchDisc4,2020.2.10,Win32,60,,,space,0.18519,1,1,0.567735,,0,302,302,134,1,1b,20,1,9,
,,,,,,,,,,,,,,,,,,,,,,,,,,images/exp2c_trial_27_colour2_distractors19_l.png,l,1,032,001,2021-04-26_14h21.25.518,searchDisc4,2020.2.10,Win32,60,,,space,0.15533,1,1,0.46511,,0,303,303,483,1,2c,27,2,19,
,,,,,,,,,,,,,,,,,,,,,,,,,,images/exp1a_trial_73_colour3_distractors43_l.png,l,1,032,001,2021-04-26_14h21.25.518,searchDisc4,2020.2.10,Win32,60,,,space,0.173555,1,1,0.517085,,0,304,304,73,1,1a,73,3,43,
,,,,,,,,,,,,,,,,,,,,,,,,,,images/exp2c_trial_7_colour2_distractors4_r.png,r,2,032,001,2021-04-26_14h21.25.518,searchDisc4,2020.2.10,Win32,60,,,space,0.11827,1,0,0.40843,,0,305,305,463,1,2c,7,2,4,
,,,,,,,,,,,,,,,,,,,,,,,,,,images/exp2a_trial_49_colour2_distractors43_r.png,r,2,032,001,2021-04-26_14h21.25.518,searchDisc4,2020.2.10,Win32,60,,,space,0.24868,2,1,0.628555,,0,306,306,277,1,2a,49,2,43,
,,,,,,,,,,,,,,,,,,,,,,,,,,images/exp2c_trial_66_colour2_distractors31_l.png,l,1,032,001,2021-04-26_14h21.25.518,searchDisc4,2020.2.10,Win32,60,,,space,0.118375,1,1,0.49801,,0,307,307,522,1,2c,66,2,31,
,,,,,,,,,,,,,,,,,,,,,,,,,,images/exp1a_trial_37_colour0_distractors0_l.png,l,1,032,001,2021-04-26_14h21.25.518,searchDisc4,2020.2.10,Win32,60,,,space,0.185305,1,1,0.5356,,0,308,308,37,1,1a,37,0,0,
,,,,,,,,,,,,,,,,,,,,,,,,,,images/exp2c_trial_93_colour3_distractors43_r.png,r,2,032,001,2021-04-26_14h21.25.518,searchDisc4,2020.2.10,Win32,60,,,space,0.22842,2,1,0.390135,,0,309,309,549,1,2c,93,3,43,
,,,,,,,,,,,,,,,,,,,,,,,,,,images/exp2b_trial_3_colour1_distractors19_r.png,r,2,032,001,2021-04-26_14h21.25.518,searchDisc4,2020.2.10,Win32,60,,,space,0.16604,2,1,0.399995,,0,310,310,345,1,2b,3,1,19,
,,,,,,,,,,,,,,,,,,,,,,,,,,images/exp1a_trial_0_colour1_distractors1_r.png,r,2,032,001,2021-04-26_14h21.25.518,searchDisc4,2020.2.10,Win32,60,,,space,0.223775,2,1,0.57573,,0,311,311,0,1,1a,0,1,1,
,,,,,,,,,,,,,,,,,,,,,,,,,,images/exp2a_trial_78_colour1_distractors9_r.png,r,2,032,001,2021-04-26_14h21.25.518,searchDisc4,2020.2.10,Win32,60,,,space,0.134575,2,1,0.549925,,0,312,312,306,1,2a,78,1,9,
,,,,,,,,,,,,,,,,,,,,,,,,,,images/exp2c_trial_33_colour3_distractors19_l.png,l,1,032,001,2021-04-26_14h21.25.518,searchDisc4,2020.2.10,Win32,60,,,space,0.1069,2,0,0.406755,,0,313,313,489,1,2c,33,3,19,
,,,,,,,,,,,,,,,,,,,,,,,,,,images/exp2b_trial_37_colour0_distractors0_l.png,l,1,032,001,2021-04-26_14h21.25.518,searchDisc4,2020.2.10,Win32,60,,,space,0.20153,1,1,0.57125,,0,314,314,379,1,2b,37,0,0,
,,,,,,,,,,,,,,,,,,,,,,,,,,images/exp2a_trial_63_colour2_distractors4_l.png,l,1,032,001,2021-04-26_14h21.25.518,searchDisc4,2020.2.10,Win32,60,,,space,0.172325,1,1,0.46923,,0,315,315,291,1,2a,63,2,4,
,,,,,,,,,,,,,,,,,,,,,,,,,,images/exp1a_trial_77_colour1_distractors4_r.png,r,2,032,001,2021-04-26_14h21.25.518,searchDisc4,2020.2.10,Win32,60,,,space,0.12087,2,1,0.538915,,0,316,316,77,1,1a,77,1,4,
,,,,,,,,,,,,,,,,,,,,,,,,,,images/exp1b_trial_30_colour3_distractors1_l.png,l,1,032,001,2021-04-26_14h21.25.518,searchDisc4,2020.2.10,Win32,60,,,space,0.161025,1,1,0.59296,,0,317,317,144,1,1b,30,3,1,
,,,,,,,,,,,,,,,,,,,,,,,,,,images/exp2b_trial_31_colour3_distractors4_l.png,l,1,032,001,2021-04-26_14h21.25.518,searchDisc4,2020.2.10,Win32,60,,,space,0.165565,1,1,0.568095,,0,318,318,373,1,2b,31,3,4,
,,,,,,,,,,,,,,,,,,,,,,,,,,images/exp2c_trial_52_colour3_distractors9_r.png,r,2,032,001,2021-04-26_14h21.25.518,searchDisc4,2020.2.10,Win32,60,,,space,0.119095,1,0,0.556485,,0,319,319,508,1,2c,52,3,9,
,,,,,,,,,,,,,,,,,,,,,,,,,,images/exp2c_trial_21_colour1_distractors19_l.png,l,1,032,001,2021-04-26_14h21.25.518,searchDisc4,2020.2.10,Win32,60,,,space,0.32261,1,1,0.55797,,0,320,320,477,1,2c,21,1,19,
,,,,,,,,,,,,,,,,,,,,,,,,,,images/exp2a_trial_100_colour2_distractors1_l.png,l,1,032,001,2021-04-26_14h21.25.518,searchDisc4,2020.2.10,Win32,60,,,space,0.18095,1,1,0.45538,,0,321,321,328,1,2a,100,2,1,
,,,,,,,,,,,,,,,,,,,,,,,,,,images/exp1b_trial_53_colour3_distractors19_r.png,r,2,032,001,2021-04-26_14h21.25.518,searchDisc4,2020.2.10,Win32,60,,,space,0.113315,2,1,0.63874,,0,322,322,167,1,1b,53,3,19,
,,,,,,,,,,,,,,,,,,,,,,,,,,images/exp2b_trial_41_colour1_distractors19_r.png,r,2,032,001,2021-04-26_14h21.25.518,searchDisc4,2020.2.10,Win32,60,,,space,0.091685,2,1,0.41145,,0,323,323,383,1,2b,41,1,19,
,,,,,,,,,,,,,,,,,,,,,,,,,,images/exp2b_trial_96_colour1_distractors9_l.png,l,1,032,001,2021-04-26_14h21.25.518,searchDisc4,2020.2.10,Win32,60,,,space,0.051125,1,1,0.638355,,0,324,324,438,1,2b,96,1,9,
,,,,,,,,,,,,,,,,,,,,,,,,,,images/exp2c_trial_83_colour2_distractors4_r.png,r,2,032,001,2021-04-26_14h21.25.518,searchDisc4,2020.2.10,Win32,60,,,space,0.12009,2,1,0.518735,,0,325,325,539,1,2c,83,2,4,
,,,,,,,,,,,,,,,,,,,,,,,,,,images/exp2a_trial_54_colour3_distractors31_r.png,r,2,032,001,2021-04-26_14h21.25.518,searchDisc4,2020.2.10,Win32,60,,,space,0.087305,2,1,0.47529,,0,326,326,282,1,2a,54,3,31,
,,,,,,,,,,,,,,,,,,,,,,,,,,images/exp2b_trial_104_colour2_distractors31_l.png,l,1,032,001,2021-04-26_14h21.25.518,searchDisc4,2020.2.10,Win32,60,,,space,0.07727,1,1,0.577935,,0,327,327,446,1,2b,104,2,31,
,,,,,,,,,,,,,,,,,,,,,,,,,,images/exp2a_trial_73_colour3_distractors43_l.png,l,1,032,001,2021-04-26_14h21.25.518,searchDisc4,2020.2.10,Win32,60,,,space,0.0581,1,1,0.5449,,0,328,328,301,1,2a,73,3,43,
,,,,,,,,,,,,,,,,,,,,,,,,,,images/exp1a_trial_68_colour3_distractors1_l.png,l,1,032,001,2021-04-26_14h21.25.518,searchDisc4,2020.2.10,Win32,60,,,space,0.084785,1,1,0.42554,,0,329,329,68,1,1a,68,3,1,
,,,,,,,,,,,,,,,,,,,,,,,,,,images/exp2c_trial_26_colour2_distractors9_l.png,l,1,032,001,2021-04-26_14h21.25.518,searchDisc4,2020.2.10,Win32,60,,,space,0.05806,1,1,0.53072,,0,330,330,482,1,2c,26,2,9,
,,,,,,,,,,,,,,,,,,,,,,,,,,images/exp1a_trial_87_colour2_distractors43_r.png,r,2,032,001,2021-04-26_14h21.25.518,searchDisc4,2020.2.10,Win32,60,,,space,0.085305,2,1,0.645575,,0,331,331,87,1,1a,87,2,43,
,,,,,,,,,,,,,,,,,,,,,,,,,,images/exp1a_trial_9_colour2_distractors19_r.png,r,2,032,001,2021-04-26_14h21.25.518,searchDisc4,2020.2.10,Win32,60,,,space,0.11664,2,1,0.46485,,0,332,332,9,1,1a,9,2,19,
,,,,,,,,,,,,,,,,,,,,,,,,,,images/exp2a_trial_39_colour1_distractors4_r.png,r,2,032,001,2021-04-26_14h21.25.518,searchDisc4,2020.2.10,Win32,60,,,space,0.07773,2,1,0.535565,,0,333,333,267,1,2a,39,1,4,
,,,,,,,,,,,,,,,,,,,,,,,,,,images/exp2c_trial_28_colour2_distractors31_l.png,l,1,032,001,2021-04-26_14h21.25.518,searchDisc4,2020.2.10,Win32,60,,,space,0.06287,2,0,0.410075,,0,334,334,484,1,2c,28,2,31,
,,,,,,,,,,,,,,,,,,,,,,,,,,images/exp1a_trial_42_colour1_distractors31_r.png,r,2,032,001,2021-04-26_14h21.25.518,searchDisc4,2020.2.10,Win32,60,,,space,0.105785,2,1,0.53112,,0,335,335,42,1,1a,42,1,31,
,,,,,,,,,,,,,,,,,,,,,,,,,,images/exp1a_trial_56_colour1_distractors1_l.png,l,1,032,001,2021-04-26_14h21.25.518,searchDisc4,2020.2.10,Win32,60,,,space,0.092765,1,1,0.495745,,0,336,336,56,1,1a,56,1,1,
,,,,,,,,,,,,,,,,,,,,,,,,,,images/exp2c_trial_71_colour3_distractors19_l.png,l,1,032,001,2021-04-26_14h21.25.518,searchDisc4,2020.2.10,Win32,60,,,space,0.08508,1,1,0.38756,,0,337,337,527,1,2c,71,3,19,
,,,,,,,,,,,,,,,,,,,,,,,,,,images/exp1a_trial_51_colour3_distractors4_r.png,r,2,032,001,2021-04-26_14h21.25.518,searchDisc4,2020.2.10,Win32,60,,,space,0.072255,2,1,0.417415,,0,338,338,51,1,1a,51,3,4,
,,,,,,,,,,,,,,,,,,,,,,,,,,images/exp2a_trial_41_colour1_distractors19_r.png,r,2,032,001,2021-04-26_14h21.25.518,searchDisc4,2020.2.10,Win32,60,,,space,0.090355,2,1,0.546025,,0,339,339,269,1,2a,41,1,19,
,,,,,,,,,,,,,,,,,,,,,,,,,,images/exp1b_trial_92_colour3_distractors31_r.png,r,2,032,001,2021-04-26_14h21.25.518,searchDisc4,2020.2.10,Win32,60,,,space,0.06689,2,1,0.864265,,0,340,340,206,1,1b,92,3,31,
,,,,,,,,,,,,,,,,,,,,,,,,,,images/exp2b_trial_50_colour3_distractors1_r.png,r,2,032,001,2021-04-26_14h21.25.518,searchDisc4,2020.2.10,Win32,60,,,space,0.08164,2,1,0.533795,,0,341,341,392,1,2b,50,3,1,
,,,,,,,,,,,,,,,,,,,,,,,,,,images/exp2c_trial_48_colour2_distractors31_r.png,r,2,032,001,2021-04-26_14h21.25.518,searchDisc4,2020.2.10,Win32,60,,,space,0.048735,2,1,0.530275,,0,342,342,504,1,2c,48,2,31,
,,,,,,,,,,,,,,,,,,,,,,,,,,images/exp2b_trial_89_colour3_distractors4_r.png,r,2,032,001,2021-04-26_14h21.25.518,searchDisc4,2020.2.10,Win32,60,,,space,0.076095,2,1,0.49288,,0,343,343,431,1,2b,89,3,4,
,,,,,,,,,,,,,,,,,,,,,,,,,,images/exp2a_trial_93_colour3_distractors43_r.png,r,2,032,001,2021-04-26_14h21.25.518,searchDisc4,2020.2.10,Win32,60,,,space,0.07689,2,1,0.537305,,0,344,344,321,1,2a,93,3,43,
,,,,,,,,,,,,,,,,,,,,,,,,,,images/exp2a_trial_65_colour2_distractors19_l.png,l,1,032,001,2021-04-26_14h21.25.518,searchDisc4,2020.2.10,Win32,60,,,space,0.072215,1,1,0.623215,,0,345,345,293,1,2a,65,2,19,
,,,,,,,,,,,,,,,,,,,,,,,,,,images/exp1a_trial_54_colour3_distractors31_r.png,r,2,032,001,2021-04-26_14h21.25.518,searchDisc4,2020.2.10,Win32,60,,,space,0.07283,2,1,0.570855,,0,346,346,54,1,1a,54,3,31,
,,,,,,,,,,,,,,,,,,,,,,,,,,images/exp2a_trial_5_colour1_distractors43_r.png,r,2,032,001,2021-04-26_14h21.25.518,searchDisc4,2020.2.10,Win32,60,,,space,0.102355,2,1,0.807965,,0,347,347,233,1,2a,5,1,43,
,,,,,,,,,,,,,,,,,,,,,,,,,,images/exp2a_trial_38_colour1_distractors1_r.png,r,2,032,001,2021-04-26_14h21.25.518,searchDisc4,2020.2.10,Win32,60,,,space,0.08668,2,1,0.486455,,0,348,348,266,1,2a,38,1,1,
,,,,,,,,,,,,,,,,,,,,,,,,,,images/exp2c_trial_14_colour3_distractors9_r.png,r,2,032,001,2021-04-26_14h21.25.518,searchDisc4,2020.2.10,Win32,60,,,space,0.0929,2,1,0.93214,,0,349,349,470,1,2c,14,3,9,
,,,,,,,,,,,,,,,,,,,,,,,,,,images/exp1a_trial_8_colour2_distractors9_r.png,r,2,032,001,2021-04-26_14h21.25.518,searchDisc4,2020.2.10,Win32,60,,,space,0.06011,2,1,0.49561,,0,350,350,8,1,1a,8,2,9,
,,,,,,,,,,,,,,,,,,,,,,,,,,images/exp1a_trial_75_colour0_distractors0_l.png,l,1,032,001,2021-04-26_14h21.25.518,searchDisc4,2020.2.10,Win32,60,,,space,0.089205,1,1,0.586935,,0,351,351,75,1,1a,75,0,0,
,,,,,,,,,,,,,,,,,,,,,,,,,,images/exp2b_trial_44_colour2_distractors1_r.png,r,2,032,001,2021-04-26_14h21.25.518,searchDisc4,2020.2.10,Win32,60,,,space,0.04687,2,1,0.58991,,0,352,352,386,1,2b,44,2,1,
,,,,,,,,,,,,,,,,,,,,,,,,,,images/exp1b_trial_80_colour1_distractors31_r.png,r,2,032,001,2021-04-26_14h21.25.518,searchDisc4,2020.2.10,Win32,60,,,space,0.068235,2,1,0.646805,,0,353,353,194,1,1b,80,1,31,
,,,,,,,,,,,,,,,,,,,,,,,,,,images/exp2c_trial_74_colour0_distractors0_r.png,r,2,032,001,2021-04-26_14h21.25.518,searchDisc4,2020.2.10,Win32,60,,,space,0.06806,2,1,0.476545,,0,354,354,530,1,2c,74,0,0,
,,,,,,,,,,,,,,,,,,,,,,,,,,images/exp2a_trial_98_colour1_distractors31_l.png,l,1,032,001,2021-04-26_14h21.25.518,searchDisc4,2020.2.10,Win32,60,,,space,0.0743,1,1,0.496085,,0,355,355,326,1,2a,98,1,31,
,,,,,,,,,,,,,,,,,,,,,,,,,,images/exp2a_trial_105_colour2_distractors43_l.png,l,1,032,001,2021-04-26_14h21.25.518,searchDisc4,2020.2.10,Win32,60,,,space,0.07659,1,1,0.57246,,0,356,356,333,1,2a,105,2,43,
,,,,,,,,,,,,,,,,,,,,,,,,,,images/exp1b_trial_47_colour2_distractors19_r.png,r,2,032,001,2021-04-26_14h21.25.518,searchDisc4,2020.2.10,Win32,60,,,space,0.063965,2,1,0.8202,,0,357,357,161,1,1b,47,2,19,
,,,,,,,,,,,,,,,,,,,,,,,,,,images/exp2c_trial_0_colour1_distractors1_r.png,r,2,032,001,2021-04-26_14h21.25.518,searchDisc4,2020.2.10,Win32,60,,,space,0.046885,2,1,0.61639,,0,358,358,456,1,2c,0,1,1,
,,,,,,,,,,,,,,,,,,,,,,,,,,images/exp2a_trial_55_colour3_distractors43_r.png,r,2,032,001,2021-04-26_14h21.25.518,searchDisc4,2020.2.10,Win32,60,,,space,0.036735,2,1,0.635285,space,0,359,359,283,1,2a,55,3,43,0.05535
,,,,,,,,,,,,,,,,,,,,,,,,,,images/exp2a_trial_106_colour3_distractors1_l.png,l,1,032,001,2021-04-26_14h21.25.518,searchDisc4,2020.2.10,Win32,60,,,space,0.528885,1,1,0.46874,,0,360,360,334,1,2a,106,3,1,
,,,,,,,,,,,,,,,,,,,,,,,,,,images/exp1a_trial_69_colour3_distractors4_l.png,l,1,032,001,2021-04-26_14h21.25.518,searchDisc4,2020.2.10,Win32,60,,,space,0.18131,1,1,0.434865,,0,361,361,69,1,1a,69,3,4,
,,,,,,,,,,,,,,,,,,,,,,,,,,images/exp2b_trial_36_colour0_distractors0_r.png,r,2,032,001,2021-04-26_14h21.25.518,searchDisc4,2020.2.10,Win32,60,,,space,0.13859,2,1,0.503205,,0,362,362,378,1,2b,36,0,0,
,,,,,,,,,,,,,,,,,,,,,,,,,,images/exp2c_trial_57_colour1_distractors4_l.png,l,1,032,001,2021-04-26_14h21.25.518,searchDisc4,2020.2.10,Win32,60,,,space,0.070585,1,1,0.76938,,0,363,363,513,1,2c,57,1,4,
,,,,,,,,,,,,,,,,,,,,,,,,,,images/exp1b_trial_93_colour3_distractors43_r.png,r,2,032,001,2021-04-26_14h21.25.518,searchDisc4,2020.2.10,Win32,60,,,space,0.11124,2,1,0.6477,,0,364,364,207,1,1b,93,3,43,
,,,,,,,,,,,,,,,,,,,,,,,,,,images/exp1a_trial_35_colour3_distractors43_l.png,l,1,032,001,2021-04-26_14h21.25.518,searchDisc4,2020.2.10,Win32,60,,,space,0.095985,1,1,0.600795,,0,365,365,35,1,1a,35,3,43,
,,,,,,,,,,,,,,,,,,,,,,,,,,images/exp2a_trial_24_colour2_distractors1_l.png,l,1,032,001,2021-04-26_14h21.25.518,searchDisc4,2020.2.10,Win32,60,,,space,0.097545,1,1,0.457495,,0,366,366,252,1,2a,24,2,1,
,,,,,,,,,,,,,,,,,,,,,,,,,,images/exp2c_trial_13_colour3_distractors4_r.png,r,2,032,001,2021-04-26_14h21.25.518,searchDisc4,2020.2.10,Win32,60,,,space,0.102285,2,1,0.466885,,0,367,367,469,1,2c,13,3,4,
,,,,,,,,,,,,,,,,,,,,,,,,,,images/exp1b_trial_65_colour2_distractors19_l.png,l,1,032,001,2021-04-26_14h21.25.518,searchDisc4,2020.2.10,Win32,60,,,space,0.08121,1,1,0.78051,,0,368,368,179,1,1b,65,2,19,
,,,,,,,,,,,,,,,,,,,,,,,,,,images/exp2c_trial_44_colour2_distractors1_r.png,r,2,032,001,2021-04-26_14h21.25.518,searchDisc4,2020.2.10,Win32,60,,,space,0.102955,2,1,0.624715,,0,369,369,500,1,2c,44,2,1,
,,,,,,,,,,,,,,,,,,,,,,,,,,images/exp2a_trial_46_colour2_distractors9_r.png,r,2,032,001,2021-04-26_14h21.25.518,searchDisc4,2020.2.10,Win32,60,,,space,0.074465,2,1,0.468525,,0,370,370,274,1,2a,46,2,9,
,,,,,,,,,,,,,,,,,,,,,,,,,,images/exp2a_trial_62_colour2_distractors1_l.png,l,1,032,001,2021-04-26_14h21.25.518,searchDisc4,2020.2.10,Win32,60,,,space,0.04684,1,1,0.468775,,0,371,371,290,1,2a,62,2,1,
,,,,,,,,,,,,,,,,,,,,,,,,,,images/exp1a_trial_94_colour1_distractors1_l.png,l,1,032,001,2021-04-26_14h21.25.518,searchDisc4,2020.2.10,Win32,60,,,space,0.145975,1,1,0.635315,,0,372,372,94,1,1a,94,1,1,
,,,,,,,,,,,,,,,,,,,,,,,,,,images/exp1a_trial_32_colour3_distractors9_l.png,l,1,032,001,2021-04-26_14h21.25.518,searchDisc4,2020.2.10,Win32,60,,,space,0.050925,1,1,0.479795,,0,373,373,32,1,1a,32,3,9,
,,,,,,,,,,,,,,,,,,,,,,,,,,images/exp1b_trial_21_colour1_distractors19_l.png,l,1,032,001,2021-04-26_14h21.25.518,searchDisc4,2020.2.10,Win32,60,,,space,0.043825,1,1,0.59855,,0,374,374,135,1,1b,21,1,19,
,,,,,,,,,,,,,,,,,,,,,,,,,,images/exp1a_trial_34_colour3_distractors31_l.png,l,1,032,001,2021-04-26_14h21.25.518,searchDisc4,2020.2.10,Win32,60,,,space,0.042265,1,1,0.67029,,0,375,375,34,1,1a,34,3,31,
,,,,,,,,,,,,,,,,,,,,,,,,,,images/exp2c_trial_88_colour3_distractors1_r.png,r,2,032,001,2021-04-26_14h21.25.518,searchDisc4,2020.2.10,Win32,60,,,space,0.02115,2,1,0.67012,,0,376,376,544,1,2c,88,3,1,
,,,,,,,,,,,,,,,,,,,,,,,,,,images/exp2b_trial_21_colour1_distractors19_l.png,l,1,032,001,2021-04-26_14h21.25.518,searchDisc4,2020.2.10,Win32,60,,,space,0.07193,1,1,0.611075,,0,377,377,363,1,2b,21,1,19,
,,,,,,,,,,,,,,,,,,,,,,,,,,images/exp2c_trial_64_colour2_distractors9_l.png,l,1,032,001,2021-04-26_14h21.25.518,searchDisc4,2020.2.10,Win32,60,,,space,0.173855,1,1,0.656925,,0,378,378,520,1,2c,64,2,9,
,,,,,,,,,,,,,,,,,,,,,,,,,,images/exp2a_trial_56_colour1_distractors1_l.png,l,1,032,001,2021-04-26_14h21.25.518,searchDisc4,2020.2.10,Win32,60,,,space,0.0177,1,1,0.518575,,0,379,379,284,1,2a,56,1,1,
,,,,,,,,,,,,,,,,,,,,,,,,,,images/exp1a_trial_103_colour2_distractors19_l.png,l,1,032,001,2021-04-26_14h21.25.518,searchDisc4,2020.2.10,Win32,60,,,space,0.047315,1,1,0.843035,,0,380,380,103,1,1a,103,2,19,
,,,,,,,,,,,,,,,,,,,,,,,,,,images/exp2b_trial_99_colour1_distractors43_l.png,l,1,032,001,2021-04-26_14h21.25.518,searchDisc4,2020.2.10,Win32,60,,,space,0.022215,1,1,0.569585,,0,381,381,441,1,2b,99,1,43,
,,,,,,,,,,,,,,,,,,,,,,,,,,images/exp1a_trial_64_colour2_distractors9_l.png,l,1,032,001,2021-04-26_14h21.25.518,searchDisc4,2020.2.10,Win32,60,,,space,0.00041,1,1,0.65766,,0,382,382,64,1,1a,64,2,9,
,,,,,,,,,,,,,,,,,,,,,,,,,,images/exp1b_trial_72_colour3_distractors31_l.png,l,1,032,001,2021-04-26_14h21.25.518,searchDisc4,2020.2.10,Win32,60,,,space,0.527415,1,1,0.80186,,0,383,383,186,1,1b,72,3,31,
,,,,,,,,,,,,,,,,,,,,,,,,,,images/exp2c_trial_4_colour1_distractors31_r.png,r,2,032,001,2021-04-26_14h21.25.518,searchDisc4,2020.2.10,Win32,60,,,space,0.59613,2,1,0.52344,,0,384,384,460,1,2c,4,1,31,
,,,,,,,,,,,,,,,,,,,,,,,,,,images/exp2c_trial_47_colour2_distractors19_r.png,r,2,032,001,2021-04-26_14h21.25.518,searchDisc4,2020.2.10,Win32,60,,,space,0.04844,2,1,0.59934,,0,385,385,503,1,2c,47,2,19,
,,,,,,,,,,,,,,,,,,,,,,,,,,images/exp1a_trial_53_colour3_distractors19_r.png,r,2,032,001,2021-04-26_14h21.25.518,searchDisc4,2020.2.10,Win32,60,,,space,0.41686,2,1,0.587995,,0,386,386,53,1,1a,53,3,19,
,,,,,,,,,,,,,,,,,,,,,,,,,,images/exp2c_trial_69_colour3_distractors4_l.png,l,1,032,001,2021-04-26_14h21.25.518,searchDisc4,2020.2.10,Win32,60,,,space,0.13219,1,1,0.51147,,0,387,387,525,1,2c,69,3,4,
,,,,,,,,,,,,,,,,,,,,,,,,,,images/exp2c_trial_6_colour2_distractors1_r.png,r,2,032,001,2021-04-26_14h21.25.518,searchDisc4,2020.2.10,Win32,60,,,space,0.158965,2,1,0.529055,,0,388,388,462,1,2c,6,2,1,
,,,,,,,,,,,,,,,,,,,,,,,,,,images/exp2c_trial_23_colour1_distractors43_l.png,l,1,032,001,2021-04-26_14h21.25.518,searchDisc4,2020.2.10,Win32,60,,,space,0.14754,1,1,0.52425,,0,389,389,479,1,2c,23,1,43,
,,,,,,,,,,,,,,,,,,,,,,,,,,images/exp2a_trial_47_colour2_distractors19_r.png,r,2,032,001,2021-04-26_14h21.25.518,searchDisc4,2020.2.10,Win32,60,,,space,0.146065,2,1,0.519335,,0,390,390,275,1,2a,47,2,19,
,,,,,,,,,,,,,,,,,,,,,,,,,,images/exp2c_trial_100_colour2_distractors1_l.png,l,1,032,001,2021-04-26_14h21.25.518,searchDisc4,2020.2.10,Win32,60,,,space,0.120385,1,1,0.538095,,0,391,391,556,1,2c,100,2,1,
,,,,,,,,,,,,,,,,,,,,,,,,,,images/exp1b_trial_43_colour1_distractors43_r.png,r,2,032,001,2021-04-26_14h21.25.518,searchDisc4,2020.2.10,Win32,60,,,space,0.12862,2,1,1.4062,,0,392,392,157,1,1b,43,1,43,
,,,,,,,,,,,,,,,,,,,,,,,,,,images/exp2a_trial_85_colour2_distractors19_r.png,r,2,032,001,2021-04-26_14h21.25.518,searchDisc4,2020.2.10,Win32,60,,,space,0.073805,2,1,0.471105,,0,393,393,313,1,2a,85,2,19,
,,,,,,,,,,,,,,,,,,,,,,,,,,images/exp2b_trial_107_colour3_distractors4_l.png,l,1,032,001,2021-04-26_14h21.25.518,searchDisc4,2020.2.10,Win32,60,,,space,0.0386,2,0,0.465235,,0,394,394,449,1,2b,107,3,4,
,,,,,,,,,,,,,,,,,,,,,,,,,,images/exp1b_trial_75_colour0_distractors0_l.png,l,1,032,001,2021-04-26_14h21.25.518,searchDisc4,2020.2.10,Win32,60,,,space,0.22923,1,1,0.57077,,0,395,395,189,1,1b,75,0,0,
,,,,,,,,,,,,,,,,,,,,,,,,,,images/exp2a_trial_9_colour2_distractors19_r.png,r,2,032,001,2021-04-26_14h21.25.518,searchDisc4,2020.2.10,Win32,60,,,space,0.202245,2,1,0.453085,,0,396,396,237,1,2a,9,2,19,
,,,,,,,,,,,,,,,,,,,,,,,,,,images/exp2a_trial_89_colour3_distractors4_r.png,r,2,032,001,2021-04-26_14h21.25.518,searchDisc4,2020.2.10,Win32,60,,,space,0.146255,1,0,0.607295,,0,397,397,317,1,2a,89,3,4,
,,,,,,,,,,,,,,,,,,,,,,,,,,images/exp2b_trial_30_colour3_distractors1_l.png,l,1,032,001,2021-04-26_14h21.25.518,searchDisc4,2020.2.10,Win32,60,,,space,0.34046,1,1,0.624305,,0,398,398,372,1,2b,30,3,1,
,,,,,,,,,,,,,,,,,,,,,,,,,,images/exp1b_trial_90_colour3_distractors9_r.png,r,2,032,001,2021-04-26_14h21.25.518,searchDisc4,2020.2.10,Win32,60,,,space,0.192475,2,1,0.702485,,0,399,399,204,1,1b,90,3,9,
,,,,,,,,,,,,,,,,,,,,,,,,,,images/exp1a_trial_23_colour1_distractors43_l.png,l,1,032,001,2021-04-26_14h21.25.518,searchDisc4,2020.2.10,Win32,60,,,space,0.137825,1,1,0.6074,,0,400,400,23,1,1a,23,1,43,
,,,,,,,,,,,,,,,,,,,,,,,,,,images/exp1b_trial_46_colour2_distractors9_r.png,r,2,032,001,2021-04-26_14h21.25.518,searchDisc4,2020.2.10,Win32,60,,,space,0.097405,2,1,0.88087,,0,401,401,160,1,1b,46,2,9,
,,,,,,,,,,,,,,,,,,,,,,,,,,images/exp2b_trial_8_colour2_distractors9_r.png,r,2,032,001,2021-04-26_14h21.25.518,searchDisc4,2020.2.10,Win32,60,,,space,0.07595,2,1,0.466675,,0,402,402,350,1,2b,8,2,9,
,,,,,,,,,,,,,,,,,,,,,,,,,,images/exp2b_trial_63_colour2_distractors4_l.png,l,1,032,001,2021-04-26_14h21.25.518,searchDisc4,2020.2.10,Win32,60,,,space,0.035095,1,1,0.55906,,0,403,403,405,1,2b,63,2,4,
,,,,,,,,,,,,,,,,,,,,,,,,,,images/exp2a_trial_36_colour0_distractors0_r.png,r,2,032,001,2021-04-26_14h21.25.518,searchDisc4,2020.2.10,Win32,60,,,space,0.06957,2,1,0.723175,,0,404,404,264,1,2a,36,0,0,
,,,,,,,,,,,,,,,,,,,,,,,,,,images/exp2b_trial_2_colour1_distractors9_r.png,r,2,032,001,2021-04-26_14h21.25.518,searchDisc4,2020.2.10,Win32,60,,,space,0.095535,2,1,0.46189,,0,405,405,344,1,2b,2,1,9,
,,,,,,,,,,,,,,,,,,,,,,,,,,images/exp1b_trial_37_colour0_distractors0_l.png,l,1,032,001,2021-04-26_14h21.25.518,searchDisc4,2020.2.10,Win32,60,,,space,0.050545,1,1,0.640315,,0,406,406,151,1,1b,37,0,0,
,,,,,,,,,,,,,,,,,,,,,,,,,,images/exp1b_trial_45_colour2_distractors4_r.png,r,2,032,001,2021-04-26_14h21.25.518,searchDisc4,2020.2.10,Win32,60,,,space,0.0617,2,1,0.57908,,0,407,407,159,1,1b,45,2,4,
,,,,,,,,,,,,,,,,,,,,,,,,,,images/exp1a_trial_63_colour2_distractors4_l.png,l,1,032,001,2021-04-26_14h21.25.518,searchDisc4,2020.2.10,Win32,60,,,space,0.0639,1,1,0.77852,,0,408,408,63,1,1a,63,2,4,
,,,,,,,,,,,,,,,,,,,,,,,,,,images/exp2c_trial_22_colour1_distractors31_l.png,l,1,032,001,2021-04-26_14h21.25.518,searchDisc4,2020.2.10,Win32,60,,,space,0.055435,1,1,0.93065,,0,409,409,478,1,2c,22,1,31,
,,,,,,,,,,,,,,,,,,,,,,,,,,images/exp1a_trial_96_colour1_distractors9_l.png,l,1,032,001,2021-04-26_14h21.25.518,searchDisc4,2020.2.10,Win32,60,,,space,0.0281,1,1,0.56216,,0,410,410,96,1,1a,96,1,9,
,,,,,,,,,,,,,,,,,,,,,,,,,,images/exp2b_trial_20_colour1_distractors9_l.png,l,1,032,001,2021-04-26_14h21.25.518,searchDisc4,2020.2.10,Win32,60,,,space,0.00703,1,1,0.55852,,0,411,411,362,1,2b,20,1,9,
,,,,,,,,,,,,,,,,,,,,,,,,,,images/exp2c_trial_30_colour3_distractors1_l.png,l,1,032,001,2021-04-26_14h21.25.518,searchDisc4,2020.2.10,Win32,60,,,space,0.00056,1,1,0.580905,,0,412,412,486,1,2c,30,3,1,
,,,,,,,,,,,,,,,,,,,,,,,,,,images/exp2c_trial_10_colour2_distractors31_r.png,r,2,032,001,2021-04-26_14h21.25.518,searchDisc4,2020.2.10,Win32,60,,,space,0.499615,2,1,0.4932,,0,413,413,466,1,2c,10,2,31,
,,,,,,,,,,,,,,,,,,,,,,,,,,images/exp1b_trial_1_colour1_distractors4_r.png,r,2,032,001,2021-04-26_14h21.25.518,searchDisc4,2020.2.10,Win32,60,,,space,0.061915,2,1,0.462075,,0,414,414,115,1,1b,1,1,4,
,,,,,,,,,,,,,,,,,,,,,,,,,,images/exp2b_trial_110_colour3_distractors31_l.png,l,1,032,001,2021-04-26_14h21.25.518,searchDisc4,2020.2.10,Win32,60,,,space,0.01661,1,1,0.615465,,0,415,415,452,1,2b,110,3,31,
,,,,,,,,,,,,,,,,,,,,,,,,,,images/exp1a_trial_101_colour2_distractors4_l.png,l,1,032,001,2021-04-26_14h21.25.518,searchDisc4,2020.2.10,Win32,60,,,space,0.04422,1,1,0.55373,,0,416,416,101,1,1a,101,2,4,
,,,,,,,,,,,,,,,,,,,,,,,,,,images/exp1b_trial_64_colour2_distractors9_l.png,l,1,032,001,2021-04-26_14h21.25.518,searchDisc4,2020.2.10,Win32,60,,,space,0.006215,1,1,0.761715,,0,417,417,178,1,1b,64,2,9,
,,,,,,,,,,,,,,,,,,,,,,,,,,images/exp2a_trial_22_colour1_distractors31_l.png,l,1,032,001,2021-04-26_14h21.25.518,searchDisc4,2020.2.10,Win32,60,,,space,0.457295,1,1,0.496715,,0,418,418,250,1,2a,22,1,31,
,,,,,,,,,,,,,,,,,,,,,,,,,,images/exp1b_trial_84_colour2_distractors9_r.png,r,2,032,001,2021-04-26_14h21.25.518,searchDisc4,2020.2.10,Win32,60,,,space,0.42007,2,1,0.77173,space,0,419,419,198,1,1b,84,2,9,4.452035
,,,,,,,,,,,,,,,,,,,,,,,,,,images/exp1a_trial_55_colour3_distractors43_r.png,r,2,032,001,2021-04-26_14h21.25.518,searchDisc4,2020.2.10,Win32,60,,,space,0.421335,2,1,0.55795,,0,420,420,55,1,1a,55,3,43,
,,,,,,,,,,,,,,,,,,,,,,,,,,images/exp2a_trial_69_colour3_distractors4_l.png,l,1,032,001,2021-04-26_14h21.25.518,searchDisc4,2020.2.10,Win32,60,,,space,0.02128,1,1,0.496465,,0,421,421,297,1,2a,69,3,4,
,,,,,,,,,,,,,,,,,,,,,,,,,,images/exp1a_trial_67_colour2_distractors43_l.png,l,1,032,001,2021-04-26_14h21.25.518,searchDisc4,2020.2.10,Win32,60,,,space,0.027905,1,1,0.72357,,0,422,422,67,1,1a,67,2,43,
,,,,,,,,,,,,,,,,,,,,,,,,,,images/exp2c_trial_97_colour1_distractors19_l.png,l,1,032,001,2021-04-26_14h21.25.518,searchDisc4,2020.2.10,Win32,60,,,space,0.01627,1,1,0.55868,,0,423,423,553,1,2c,97,1,19,
,,,,,,,,,,,,,,,,,,,,,,,,,,images/exp1b_trial_19_colour1_distractors4_l.png,l,1,032,001,2021-04-26_14h21.25.518,searchDisc4,2020.2.10,Win32,60,,,space,0.49216,1,1,0.75362,,0,424,424,133,1,1b,19,1,4,
,,,,,,,,,,,,,,,,,,,,,,,,,,images/exp2c_trial_110_colour3_distractors31_l.png,l,1,032,001,2021-04-26_14h21.25.518,searchDisc4,2020.2.10,Win32,60,,,space,0.10432,1,1,0.53817,,0,425,425,566,1,2c,110,3,31,
,,,,,,,,,,,,,,,,,,,,,,,,,,images/exp1b_trial_102_colour2_distractors9_l.png,l,1,032,001,2021-04-26_14h21.25.518,searchDisc4,2020.2.10,Win32,60,,,space,0.10214,1,1,0.467935,,0,426,426,216,1,1b,102,2,9,
,,,,,,,,,,,,,,,,,,,,,,,,,,images/exp2a_trial_12_colour3_distractors1_r.png,r,2,032,001,2021-04-26_14h21.25.518,searchDisc4,2020.2.10,Win32,60,,,space,0.026765,2,1,0.589725,,0,427,427,240,1,2a,12,3,1,
,,,,,,,,,,,,,,,,,,,,,,,,,,images/exp2b_trial_103_colour2_distractors19_l.png,l,1,032,001,2021-04-26_14h21.25.518,searchDisc4,2020.2.10,Win32,60,,,space,0.03701,1,1,0.58785,,0,428,428,445,1,2b,103,2,19,
,,,,,,,,,,,,,,,,,,,,,,,,,,images/exp2a_trial_34_colour3_distractors31_l.png,l,1,032,001,2021-04-26_14h21.25.518,searchDisc4,2020.2.10,Win32,60,,,space,0.253805,1,1,0.68582,,0,429,429,262,1,2a,34,3,31,
,,,,,,,,,,,,,,,,,,,,,,,,,,images/exp1b_trial_31_colour3_distractors4_l.png,l,1,032,001,2021-04-26_14h21.25.518,searchDisc4,2020.2.10,Win32,60,,,space,0.430545,1,1,0.734375,,0,430,430,145,1,1b,31,3,4,
,,,,,,,,,,,,,,,,,,,,,,,,,,images/exp2a_trial_113_colour0_distractors0_l.png,l,1,032,001,2021-04-26_14h21.25.518,searchDisc4,2020.2.10,Win32,60,,,space,0.544365,1,1,0.4984,,0,431,431,341,1,2a,113,0,0,
,,,,,,,,,,,,,,,,,,,,,,,,,,images/exp2b_trial_76_colour1_distractors1_r.png,r,2,032,001,2021-04-26_14h21.25.518,searchDisc4,2020.2.10,Win32,60,,,space,0.376265,2,1,0.501045,,0,432,432,418,1,2b,76,1,1,
,,,,,,,,,,,,,,,,,,,,,,,,,,images/exp1a_trial_33_colour3_distractors19_l.png,l,1,032,001,2021-04-26_14h21.25.518,searchDisc4,2020.2.10,Win32,60,,,space,0.00966,1,1,0.943015,,0,433,433,33,1,1a,33,3,19,
,,,,,,,,,,,,,,,,,,,,,,,,,,images/exp1b_trial_68_colour3_distractors1_l.png,l,1,032,001,2021-04-26_14h21.25.518,searchDisc4,2020.2.10,Win32,60,,,space,0.048325,2,0,0.676665,,0,434,434,182,1,1b,68,3,1,
,,,,,,,,,,,,,,,,,,,,,,,,,,images/exp1b_trial_110_colour3_distractors31_l.png,l,1,032,001,2021-04-26_14h21.25.518,searchDisc4,2020.2.10,Win32,60,,,space,0.048665,1,1,1.256565,,0,435,435,224,1,1b,110,3,31,
,,,,,,,,,,,,,,,,,,,,,,,,,,images/exp2b_trial_94_colour1_distractors1_l.png,l,1,032,001,2021-04-26_14h21.25.518,searchDisc4,2020.2.10,Win32,60,,,space,0.035155,1,1,0.50998,,0,436,436,436,1,2b,94,1,1,
,,,,,,,,,,,,,,,,,,,,,,,,,,images/exp2b_trial_73_colour3_distractors43_l.png,l,1,032,001,2021-04-26_14h21.25.518,searchDisc4,2020.2.10,Win32,60,,,space,0.02092,1,1,0.719,,0,437,437,415,1,2b,73,3,43,
,,,,,,,,,,,,,,,,,,,,,,,,,,images/exp2c_trial_81_colour1_distractors43_r.png,r,2,032,001,2021-04-26_14h21.25.518,searchDisc4,2020.2.10,Win32,60,,,space,0.46561,2,1,0.458415,,0,438,438,537,1,2c,81,1,43,
,,,,,,,,,,,,,,,,,,,,,,,,,,images/exp1a_trial_93_colour3_distractors43_r.png,r,2,032,001,2021-04-26_14h21.25.518,searchDisc4,2020.2.10,Win32,60,,,space,0.054115,2,1,0.515775,,0,439,439,93,1,1a,93,3,43,
,,,,,,,,,,,,,,,,,,,,,,,,,,images/exp1a_trial_7_colour2_distractors4_r.png,r,2,032,001,2021-04-26_14h21.25.518,searchDisc4,2020.2.10,Win32,60,,,space,0.437925,2,1,0.57463,,0,440,440,7,1,1a,7,2,4,
,,,,,,,,,,,,,,,,,,,,,,,,,,images/exp2a_trial_42_colour1_distractors31_r.png,r,2,032,001,2021-04-26_14h21.25.518,searchDisc4,2020.2.10,Win32,60,,,space,0.0006,2,1,0.532185,,0,441,441,270,1,2a,42,1,31,
,,,,,,,,,,,,,,,,,,,,,,,,,,images/exp2b_trial_111_colour3_distractors43_l.png,l,1,032,001,2021-04-26_14h21.25.518,searchDisc4,2020.2.10,Win32,60,,,space,0.53219,1,1,0.53307,,0,442,442,453,1,2b,111,3,43,
,,,,,,,,,,,,,,,,,,,,,,,,,,images/exp1b_trial_23_colour1_distractors43_l.png,l,1,032,001,2021-04-26_14h21.25.518,searchDisc4,2020.2.10,Win32,60,,,space,0.03456,1,1,0.790775,,0,443,443,137,1,1b,23,1,43,
,,,,,,,,,,,,,,,,,,,,,,,,,,images/exp1a_trial_18_colour1_distractors1_l.png,l,1,032,001,2021-04-26_14h21.25.518,searchDisc4,2020.2.10,Win32,60,,,space,0.4856,1,1,0.55332,,0,444,444,18,1,1a,18,1,1,
,,,,,,,,,,,,,,,,,,,,,,,,,,images/exp2b_trial_108_colour3_distractors9_l.png,l,1,032,001,2021-04-26_14h21.25.518,searchDisc4,2020.2.10,Win32,60,,,space,0.372815,1,1,0.50286,,0,445,445,450,1,2b,108,3,9,
,,,,,,,,,,,,,,,,,,,,,,,,,,images/exp1a_trial_47_colour2_distractors19_r.png,r,2,032,001,2021-04-26_14h21.25.518,searchDisc4,2020.2.10,Win32,60,,,space,0.34266,2,1,0.728855,,0,446,446,47,1,1a,47,2,19,
,,,,,,,,,,,,,,,,,,,,,,,,,,images/exp2a_trial_92_colour3_distractors31_r.png,r,2,032,001,2021-04-26_14h21.25.518,searchDisc4,2020.2.10,Win32,60,,,space,0.00712,2,1,0.690745,,0,447,447,320,1,2a,92,3,31,
,,,,,,,,,,,,,,,,,,,,,,,,,,images/exp2b_trial_83_colour2_distractors4_r.png,r,2,032,001,2021-04-26_14h21.25.518,searchDisc4,2020.2.10,Win32,60,,,space,0.454415,2,1,0.504745,,0,448,448,425,1,2b,83,2,4,
,,,,,,,,,,,,,,,,,,,,,,,,,,images/exp2b_trial_55_colour3_distractors43_r.png,r,2,032,001,2021-04-26_14h21.25.518,searchDisc4,2020.2.10,Win32,60,,,space,0.38953,2,1,0.52351,,0,449,449,397,1,2b,55,3,43,
,,,,,,,,,,,,,,,,,,,,,,,,,,images/exp2a_trial_103_colour2_distractors19_l.png,l,1,032,001,2021-04-26_14h21.25.518,searchDisc4,2020.2.10,Win32,60,,,space,0.380385,1,1,0.54175,,0,450,450,331,1,2a,103,2,19,
,,,,,,,,,,,,,,,,,,,,,,,,,,images/exp1a_trial_36_colour0_distractors0_r.png,r,2,032,001,2021-04-26_14h21.25.518,searchDisc4,2020.2.10,Win32,60,,,space,0.040425,2,1,0.8577,,0,451,451,36,1,1a,36,0,0,
,,,,,,,,,,,,,,,,,,,,,,,,,,images/exp2b_trial_33_colour3_distractors19_l.png,l,1,032,001,2021-04-26_14h21.25.518,searchDisc4,2020.2.10,Win32,60,,,space,0.05574,1,1,0.61674,,0,452,452,375,1,2b,33,3,19,
,,,,,,,,,,,,,,,,,,,,,,,,,,images/exp2a_trial_40_colour1_distractors9_r.png,r,2,032,001,2021-04-26_14h21.25.518,searchDisc4,2020.2.10,Win32,60,,,space,0.033945,2,1,0.599495,,0,453,453,268,1,2a,40,1,9,
,,,,,,,,,,,,,,,,,,,,,,,,,,images/exp2a_trial_0_colour1_distractors1_r.png,r,2,032,001,2021-04-26_14h21.25.518,searchDisc4,2020.2.10,Win32,60,,,space,0.090305,2,1,0.525415,,0,454,454,228,1,2a,0,1,1,
,,,,,,,,,,,,,,,,,,,,,,,,,,images/exp2c_trial_104_colour2_distractors31_l.png,l,1,032,001,2021-04-26_14h21.25.518,searchDisc4,2020.2.10,Win32,60,,,space,0.090375,1,1,0.53392,,0,455,455,560,1,2c,104,2,31,
,,,,,,,,,,,,,,,,,,,,,,,,,,images/exp2b_trial_43_colour1_distractors43_r.png,r,2,032,001,2021-04-26_14h21.25.518,searchDisc4,2020.2.10,Win32,60,,,space,0.093795,2,1,0.615285,,0,456,456,385,1,2b,43,1,43,
,,,,,,,,,,,,,,,,,,,,,,,,,,images/exp1b_trial_100_colour2_distractors1_l.png,l,1,032,001,2021-04-26_14h21.25.518,searchDisc4,2020.2.10,Win32,60,,,space,0.096555,1,1,0.559025,,0,457,457,214,1,1b,100,2,1,
,,,,,,,,,,,,,,,,,,,,,,,,,,images/exp2b_trial_68_colour3_distractors1_l.png,l,1,032,001,2021-04-26_14h21.25.518,searchDisc4,2020.2.10,Win32,60,,,space,0.068655,1,1,0.49611,,0,458,458,410,1,2b,68,3,1,
,,,,,,,,,,,,,,,,,,,,,,,,,,images/exp2b_trial_9_colour2_distractors19_r.png,r,2,032,001,2021-04-26_14h21.25.518,searchDisc4,2020.2.10,Win32,60,,,space,0.089465,2,1,0.49822,,0,459,459,351,1,2b,9,2,19,
,,,,,,,,,,,,,,,,,,,,,,,,,,images/exp1b_trial_60_colour1_distractors31_l.png,l,1,032,001,2021-04-26_14h21.25.518,searchDisc4,2020.2.10,Win32,60,,,space,0.09548,1,1,0.69562,,0,460,460,174,1,1b,60,1,31,
,,,,,,,,,,,,,,,,,,,,,,,,,,images/exp2b_trial_113_colour0_distractors0_l.png,l,1,032,001,2021-04-26_14h21.25.518,searchDisc4,2020.2.10,Win32,60,,,space,0.0743,1,1,0.441355,,0,461,461,455,1,2b,113,0,0,
,,,,,,,,,,,,,,,,,,,,,,,,,,images/exp1b_trial_54_colour3_distractors31_r.png,r,2,032,001,2021-04-26_14h21.25.518,searchDisc4,2020.2.10,Win32,60,,,space,0.035875,2,1,0.630285,,0,462,462,168,1,1b,54,3,31,
,,,,,,,,,,,,,,,,,,,,,,,,,,images/exp2b_trial_100_colour2_distractors1_l.png,l,1,032,001,2021-04-26_14h21.25.518,searchDisc4,2020.2.10,Win32,60,,,space,0.092195,1,1,0.489235,,0,463,463,442,1,2b,100,2,1,
,,,,,,,,,,,,,,,,,,,,,,,,,,images/exp2b_trial_12_colour3_distractors1_r.png,r,2,032,001,2021-04-26_14h21.25.518,searchDisc4,2020.2.10,Win32,60,,,space,0.088715,2,1,0.52544,,0,464,464,354,1,2b,12,3,1,
,,,,,,,,,,,,,,,,,,,,,,,,,,images/exp1a_trial_79_colour1_distractors19_r.png,r,2,032,001,2021-04-26_14h21.25.518,searchDisc4,2020.2.10,Win32,60,,,space,0.089245,2,1,0.459385,,0,465,465,79,1,1a,79,1,19,
,,,,,,,,,,,,,,,,,,,,,,,,,,images/exp2c_trial_9_colour2_distractors19_r.png,r,2,032,001,2021-04-26_14h21.25.518,searchDisc4,2020.2.10,Win32,60,,,space,0.067165,2,1,0.607195,,0,466,466,465,1,2c,9,2,19,
,,,,,,,,,,,,,,,,,,,,,,,,,,images/exp1a_trial_102_colour2_distractors9_l.png,l,1,032,001,2021-04-26_14h21.25.518,searchDisc4,2020.2.10,Win32,60,,,space,0.05508,1,1,0.615755,,0,467,467,102,1,1a,102,2,9,
,,,,,,,,,,,,,,,,,,,,,,,,,,images/exp2a_trial_97_colour1_distractors19_l.png,l,1,032,001,2021-04-26_14h21.25.518,searchDisc4,2020.2.10,Win32,60,,,space,0.091985,1,1,0.497165,,0,468,468,325,1,2a,97,1,19,
,,,,,,,,,,,,,,,,,,,,,,,,,,images/exp1b_trial_109_colour3_distractors19_l.png,l,1,032,001,2021-04-26_14h21.25.518,searchDisc4,2020.2.10,Win32,60,,,space,0.10647,1,1,0.855635,,0,469,469,223,1,1b,109,3,19,
,,,,,,,,,,,,,,,,,,,,,,,,,,images/exp2a_trial_53_colour3_distractors19_r.png,r,2,032,001,2021-04-26_14h21.25.518,searchDisc4,2020.2.10,Win32,60,,,space,0.070205,2,1,0.71817,,0,470,470,281,1,2a,53,3,19,
,,,,,,,,,,,,,,,,,,,,,,,,,,images/exp1b_trial_27_colour2_distractors19_l.png,l,1,032,001,2021-04-26_14h21.25.518,searchDisc4,2020.2.10,Win32,60,,,space,0.07442,1,1,0.652175,,0,471,471,141,1,1b,27,2,19,
,,,,,,,,,,,,,,,,,,,,,,,,,,images/exp1a_trial_22_colour1_distractors31_l.png,l,1,032,001,2021-04-26_14h21.25.518,searchDisc4,2020.2.10,Win32,60,,,space,0.08231,1,1,0.53696,,0,472,472,22,1,1a,22,1,31,
,,,,,,,,,,,,,,,,,,,,,,,,,,images/exp2a_trial_31_colour3_distractors4_l.png,l,1,032,001,2021-04-26_14h21.25.518,searchDisc4,2020.2.10,Win32,60,,,space,0.229415,1,1,0.52575,,0,473,473,259,1,2a,31,3,4,
,,,,,,,,,,,,,,,,,,,,,,,,,,images/exp2b_trial_15_colour3_distractors19_r.png,r,2,032,001,2021-04-26_14h21.25.518,searchDisc4,2020.2.10,Win32,60,,,space,0.116005,2,1,0.60857,,0,474,474,357,1,2b,15,3,19,
,,,,,,,,,,,,,,,,,,,,,,,,,,images/exp2b_trial_18_colour1_distractors1_l.png,l,1,032,001,2021-04-26_14h21.25.518,searchDisc4,2020.2.10,Win32,60,,,space,0.137425,1,1,0.658145,,0,475,475,360,1,2b,18,1,1,
,,,,,,,,,,,,,,,,,,,,,,,,,,images/exp1b_trial_106_colour3_distractors1_l.png,l,1,032,001,2021-04-26_14h21.25.518,searchDisc4,2020.2.10,Win32,60,,,space,0.05612,1,1,1.46677,,0,476,476,220,1,1b,106,3,1,
