X Scale,Y Scale,key_resp_10.keys,key_resp_10.rt,key_resp_11.keys,key_resp_11.rt,key_resp_12.keys,key_resp_12.rt,key_resp_13.keys,key_resp_13.rt,key_resp_5.keys,key_resp_5.rt,key_resp_8.keys,key_resp_8.rt,key_resp_6.keys,key_resp_6.rt,key_resp_7.keys,key_resp_7.rt,key_resp_4.keys,key_resp_4.corr,key_resp_4.rt,trials_2.thisRepN,trials_2.thisTrialN,trials_2.thisN,trials_2.thisIndex,trials_2.ran,ImageFile,targ_side,correctAnswer,participant,session,date,expName,psychopyVersion,OS,frameRate,key_resp_3.keys,key_resp_3.rt,key_resp_9.keys,key_resp_9.rt,key_resp_2.keys,key_resp_2.corr,key_resp_2.rt,key_resp.keys,trials.thisRepN,trials.thisTrialN,trials.thisN,trials.thisIndex,trials.ran,exp,trial,colour,distNo,key_resp.rt
19.8,19.8,space,2.118495,space,2.38343,space,0.83977,space,0.879075,space,0.172545,space,1.832915,space,1.895075,space,0.512145,1,1,0.741075,0,0,0,10,1,Practice arrays/exp1a_trial_20_colour1_distractors9_l.png,l,1,033,001,2021-04-26_16h03.28.769,searchDisc4,2020.2.10,Win32,60,,,,,,,,,,,,,,,,,,
,,,,,,,,,,,,,,,,space,0.22397,1,1,0.732575,0,1,1,12,1,Practice arrays/exp1a_trial_25_colour2_distractors4_l.png,l,1,033,001,2021-04-26_16h03.28.769,searchDisc4,2020.2.10,Win32,60,,,,,,,,,,,,,,,,,,
,,,,,,,,,,,,,,,,space,0.17785,1,0,0.42771,0,2,2,7,1,Practice arrays/exp1a_trial_13_colour3_distractors4_r.png,r,2,033,001,2021-04-26_16h03.28.769,searchDisc4,2020.2.10,Win32,60,,,,,,,,,,,,,,,,,,
,,,,,,,,,,,,,,,,space,0.182845,2,1,0.648445,0,3,3,6,1,Practice arrays/exp1a_trial_12_colour3_distractors1_r.png,r,2,033,001,2021-04-26_16h03.28.769,searchDisc4,2020.2.10,Win32,60,,,,,,,,,,,,,,,,,,
,,,,,,,,,,,,,,,,space,0.146145,2,1,0.462765,0,4,4,4,1,Practice arrays/exp1a_trial_8_colour2_distractors9_r.png,r,2,033,001,2021-04-26_16h03.28.769,searchDisc4,2020.2.10,Win32,60,,,,,,,,,,,,,,,,,,
,,,,,,,,,,,,,,,,space,0.2393,1,1,0.569025,0,5,5,14,1,Practice arrays/exp1a_trial_29_colour2_distractors43_l.png,l,1,033,001,2021-04-26_16h03.28.769,searchDisc4,2020.2.10,Win32,60,,,,,,,,,,,,,,,,,,
,,,,,,,,,,,,,,,,space,0.3343,2,1,0.542125,0,6,6,0,1,Practice arrays/exp1a_trial_0_colour1_distractors1_r.png,r,2,033,001,2021-04-26_16h03.28.769,searchDisc4,2020.2.10,Win32,60,,,,,,,,,,,,,,,,,,
,,,,,,,,,,,,,,,,space,0.25821,1,1,0.409715,0,7,7,9,1,Practice arrays/exp1a_trial_19_colour1_distractors4_l.png,l,1,033,001,2021-04-26_16h03.28.769,searchDisc4,2020.2.10,Win32,60,,,,,,,,,,,,,,,,,,
,,,,,,,,,,,,,,,,space,0.257795,1,1,0.531955,0,8,8,16,1,Practice arrays/exp1a_trial_33_colour3_distractors19_l.png,l,1,033,001,2021-04-26_16h03.28.769,searchDisc4,2020.2.10,Win32,60,,,,,,,,,,,,,,,,,,
,,,,,,,,,,,,,,,,space,0.18855,2,1,0.68429,0,9,9,2,1,Practice arrays/exp1a_trial_5_colour1_distractors43_r.png,r,2,033,001,2021-04-26_16h03.28.769,searchDisc4,2020.2.10,Win32,60,,,,,,,,,,,,,,,,,,
,,,,,,,,,,,,,,,,space,0.070105,1,1,0.59839,0,10,10,17,1,Practice arrays/exp1a_trial_35_colour3_distractors43_l.png,l,1,033,001,2021-04-26_16h03.28.769,searchDisc4,2020.2.10,Win32,60,,,,,,,,,,,,,,,,,,
,,,,,,,,,,,,,,,,space,0.02939,2,1,0.636475,0,11,11,1,1,Practice arrays/exp1a_trial_3_colour1_distractors19_r.png,r,2,033,001,2021-04-26_16h03.28.769,searchDisc4,2020.2.10,Win32,60,,,,,,,,,,,,,,,,,,
,,,,,,,,,,,,,,,,space,0.031365,1,1,0.4619,0,12,12,19,1,Practice arrays/exp1a_trial_37_colour0_distractors0_l.png,l,1,033,001,2021-04-26_16h03.28.769,searchDisc4,2020.2.10,Win32,60,,,,,,,,,,,,,,,,,,
,,,,,,,,,,,,,,,,space,0.007445,1,1,0.456245,0,13,13,11,1,Practice arrays/exp1a_trial_21_colour1_distractors19_l.png,l,1,033,001,2021-04-26_16h03.28.769,searchDisc4,2020.2.10,Win32,60,,,,,,,,,,,,,,,,,,
,,,,,,,,,,,,,,,,space,0.34217,1,1,0.52883,0,14,14,15,1,Practice arrays/exp1a_trial_32_colour3_distractors9_l.png,l,1,033,001,2021-04-26_16h03.28.769,searchDisc4,2020.2.10,Win32,60,,,,,,,,,,,,,,,,,,
,,,,,,,,,,,,,,,,space,0.022435,2,1,0.58645,0,15,15,5,1,Practice arrays/exp1a_trial_10_colour2_distractors31_r.png,r,2,033,001,2021-04-26_16h03.28.769,searchDisc4,2020.2.10,Win32,60,,,,,,,,,,,,,,,,,,
,,,,,,,,,,,,,,,,space,0.22254,2,1,0.45677,0,16,16,18,1,Practice arrays/exp1a_trial_36_colour0_distractors0_r.png,r,2,033,001,2021-04-26_16h03.28.769,searchDisc4,2020.2.10,Win32,60,,,,,,,,,,,,,,,,,,
,,,,,,,,,,,,,,,,space,0.222685,2,1,0.54563,0,17,17,8,1,Practice arrays/exp1a_trial_16_colour3_distractors31_r.png,r,2,033,001,2021-04-26_16h03.28.769,searchDisc4,2020.2.10,Win32,60,,,,,,,,,,,,,,,,,,
,,,,,,,,,,,,,,,,space,0.33742,2,1,0.57578,0,18,18,3,1,Practice arrays/exp1a_trial_7_colour2_distractors4_r.png,r,2,033,001,2021-04-26_16h03.28.769,searchDisc4,2020.2.10,Win32,60,,,,,,,,,,,,,,,,,,
,,,,,,,,,,,,,,,,space,0.153595,1,1,0.531325,0,19,19,13,1,Practice arrays/exp1a_trial_28_colour2_distractors31_l.png,l,1,033,001,2021-04-26_16h03.28.769,searchDisc4,2020.2.10,Win32,60,,,,,,,,,,,,,,,,,,
,,,,,,,,,,,,,,,,,,,,,,,,,,images/exp1b_trial_36_colour0_distractors0_r.png,r,2,033,001,2021-04-26_16h03.28.769,searchDisc4,2020.2.10,Win32,60,space,1.237815,space,0.57742,2,1,0.663395,,0,0,0,150,1,1b,36,0,0,
,,,,,,,,,,,,,,,,,,,,,,,,,,images/exp1a_trial_44_colour2_distractors1_r.png,r,2,033,001,2021-04-26_16h03.28.769,searchDisc4,2020.2.10,Win32,60,,,space,0.534915,2,1,0.725355,,0,1,1,44,1,1a,44,2,1,
,,,,,,,,,,,,,,,,,,,,,,,,,,images/exp1b_trial_21_colour1_distractors19_l.png,l,1,033,001,2021-04-26_16h03.28.769,searchDisc4,2020.2.10,Win32,60,,,space,0.394595,1,1,1.316435,,0,2,2,135,1,1b,21,1,19,
,,,,,,,,,,,,,,,,,,,,,,,,,,images/exp2b_trial_87_colour2_distractors43_r.png,r,2,033,001,2021-04-26_16h03.28.769,searchDisc4,2020.2.10,Win32,60,,,space,0.38396,2,1,0.596285,,0,3,3,429,1,2b,87,2,43,
,,,,,,,,,,,,,,,,,,,,,,,,,,images/exp2a_trial_36_colour0_distractors0_r.png,r,2,033,001,2021-04-26_16h03.28.769,searchDisc4,2020.2.10,Win32,60,,,space,0.374315,2,1,0.44272,,0,4,4,264,1,2a,36,0,0,
,,,,,,,,,,,,,,,,,,,,,,,,,,images/exp2b_trial_103_colour2_distractors19_l.png,l,1,033,001,2021-04-26_16h03.28.769,searchDisc4,2020.2.10,Win32,60,,,space,0.34163,1,1,0.455855,,0,5,5,445,1,2b,103,2,19,
,,,,,,,,,,,,,,,,,,,,,,,,,,images/exp1b_trial_50_colour3_distractors1_r.png,r,2,033,001,2021-04-26_16h03.28.769,searchDisc4,2020.2.10,Win32,60,,,space,0.312735,2,1,0.57291,,0,6,6,164,1,1b,50,3,1,
,,,,,,,,,,,,,,,,,,,,,,,,,,images/exp1a_trial_36_colour0_distractors0_r.png,r,2,033,001,2021-04-26_16h03.28.769,searchDisc4,2020.2.10,Win32,60,,,space,0.33018,2,1,0.467565,,0,7,7,36,1,1a,36,0,0,
,,,,,,,,,,,,,,,,,,,,,,,,,,images/exp2c_trial_56_colour1_distractors1_l.png,l,1,033,001,2021-04-26_16h03.28.769,searchDisc4,2020.2.10,Win32,60,,,space,0.332615,1,1,0.55106,,0,8,8,512,1,2c,56,1,1,
,,,,,,,,,,,,,,,,,,,,,,,,,,images/exp1a_trial_99_colour1_distractors43_l.png,l,1,033,001,2021-04-26_16h03.28.769,searchDisc4,2020.2.10,Win32,60,,,space,0.319515,1,1,0.56577,,0,9,9,99,1,1a,99,1,43,
,,,,,,,,,,,,,,,,,,,,,,,,,,images/exp2a_trial_13_colour3_distractors4_r.png,r,2,033,001,2021-04-26_16h03.28.769,searchDisc4,2020.2.10,Win32,60,,,space,0.26073,2,1,0.545755,,0,10,10,241,1,2a,13,3,4,
,,,,,,,,,,,,,,,,,,,,,,,,,,images/exp2a_trial_64_colour2_distractors9_l.png,l,1,033,001,2021-04-26_16h03.28.769,searchDisc4,2020.2.10,Win32,60,,,space,0.234905,1,1,0.559145,,0,11,11,292,1,2a,64,2,9,
,,,,,,,,,,,,,,,,,,,,,,,,,,images/exp2c_trial_82_colour2_distractors1_r.png,r,2,033,001,2021-04-26_16h03.28.769,searchDisc4,2020.2.10,Win32,60,,,space,0.204175,2,1,0.55074,,0,12,12,538,1,2c,82,2,1,
,,,,,,,,,,,,,,,,,,,,,,,,,,images/exp2c_trial_45_colour2_distractors4_r.png,r,2,033,001,2021-04-26_16h03.28.769,searchDisc4,2020.2.10,Win32,60,,,space,0.242375,2,1,0.58949,,0,13,13,501,1,2c,45,2,4,
,,,,,,,,,,,,,,,,,,,,,,,,,,images/exp2a_trial_103_colour2_distractors19_l.png,l,1,033,001,2021-04-26_16h03.28.769,searchDisc4,2020.2.10,Win32,60,,,space,0.23187,1,1,0.493735,,0,14,14,331,1,2a,103,2,19,
,,,,,,,,,,,,,,,,,,,,,,,,,,images/exp1a_trial_34_colour3_distractors31_l.png,l,1,033,001,2021-04-26_16h03.28.769,searchDisc4,2020.2.10,Win32,60,,,space,0.18955,1,1,0.671195,,0,15,15,34,1,1a,34,3,31,
,,,,,,,,,,,,,,,,,,,,,,,,,,images/exp1a_trial_78_colour1_distractors9_r.png,r,2,033,001,2021-04-26_16h03.28.769,searchDisc4,2020.2.10,Win32,60,,,space,0.18068,2,1,0.52102,,0,16,16,78,1,1a,78,1,9,
,,,,,,,,,,,,,,,,,,,,,,,,,,images/exp1b_trial_9_colour2_distractors19_r.png,r,2,033,001,2021-04-26_16h03.28.769,searchDisc4,2020.2.10,Win32,60,,,space,0.21282,2,1,0.878675,,0,17,17,123,1,1b,9,2,19,
,,,,,,,,,,,,,,,,,,,,,,,,,,images/exp2b_trial_39_colour1_distractors4_r.png,r,2,033,001,2021-04-26_16h03.28.769,searchDisc4,2020.2.10,Win32,60,,,space,0.21316,2,1,0.627385,,0,18,18,381,1,2b,39,1,4,
,,,,,,,,,,,,,,,,,,,,,,,,,,images/exp1a_trial_68_colour3_distractors1_l.png,l,1,033,001,2021-04-26_16h03.28.769,searchDisc4,2020.2.10,Win32,60,,,space,0.1628,1,1,0.486385,,0,19,19,68,1,1a,68,3,1,
,,,,,,,,,,,,,,,,,,,,,,,,,,images/exp2b_trial_24_colour2_distractors1_l.png,l,1,033,001,2021-04-26_16h03.28.769,searchDisc4,2020.2.10,Win32,60,,,space,0.199475,1,1,0.48922,,0,20,20,366,1,2b,24,2,1,
,,,,,,,,,,,,,,,,,,,,,,,,,,images/exp1a_trial_105_colour2_distractors43_l.png,l,1,033,001,2021-04-26_16h03.28.769,searchDisc4,2020.2.10,Win32,60,,,space,0.195095,1,1,0.524375,,0,21,21,105,1,1a,105,2,43,
,,,,,,,,,,,,,,,,,,,,,,,,,,images/exp1b_trial_17_colour3_distractors43_r.png,r,2,033,001,2021-04-26_16h03.28.769,searchDisc4,2020.2.10,Win32,60,,,space,0.14389,2,1,0.617995,,0,22,22,131,1,1b,17,3,43,
,,,,,,,,,,,,,,,,,,,,,,,,,,images/exp2c_trial_32_colour3_distractors9_l.png,l,1,033,001,2021-04-26_16h03.28.769,searchDisc4,2020.2.10,Win32,60,,,space,0.20069,1,1,0.517165,,0,23,23,488,1,2c,32,3,9,
,,,,,,,,,,,,,,,,,,,,,,,,,,images/exp2b_trial_4_colour1_distractors31_r.png,r,2,033,001,2021-04-26_16h03.28.769,searchDisc4,2020.2.10,Win32,60,,,space,0.20228,2,1,0.44565,,0,24,24,346,1,2b,4,1,31,
,,,,,,,,,,,,,,,,,,,,,,,,,,images/exp2a_trial_49_colour2_distractors43_r.png,r,2,033,001,2021-04-26_16h03.28.769,searchDisc4,2020.2.10,Win32,60,,,space,0.20058,2,1,0.555045,,0,25,25,277,1,2a,49,2,43,
,,,,,,,,,,,,,,,,,,,,,,,,,,images/exp1a_trial_8_colour2_distractors9_r.png,r,2,033,001,2021-04-26_16h03.28.769,searchDisc4,2020.2.10,Win32,60,,,space,0.192905,2,1,0.459765,,0,26,26,8,1,1a,8,2,9,
,,,,,,,,,,,,,,,,,,,,,,,,,,images/exp2c_trial_34_colour3_distractors31_l.png,l,1,033,001,2021-04-26_16h03.28.769,searchDisc4,2020.2.10,Win32,60,,,space,0.271015,1,1,0.428505,,0,27,27,490,1,2c,34,3,31,
,,,,,,,,,,,,,,,,,,,,,,,,,,images/exp1a_trial_52_colour3_distractors9_r.png,r,2,033,001,2021-04-26_16h03.28.769,searchDisc4,2020.2.10,Win32,60,,,space,0.159805,2,1,0.645745,,0,28,28,52,1,1a,52,3,9,
,,,,,,,,,,,,,,,,,,,,,,,,,,images/exp1a_trial_87_colour2_distractors43_r.png,r,2,033,001,2021-04-26_16h03.28.769,searchDisc4,2020.2.10,Win32,60,,,space,0.19466,2,1,0.57854,,0,29,29,87,1,1a,87,2,43,
,,,,,,,,,,,,,,,,,,,,,,,,,,images/exp2c_trial_70_colour3_distractors9_l.png,l,1,033,001,2021-04-26_16h03.28.769,searchDisc4,2020.2.10,Win32,60,,,space,0.1529,1,1,0.466815,,0,30,30,526,1,2c,70,3,9,
,,,,,,,,,,,,,,,,,,,,,,,,,,images/exp1a_trial_24_colour2_distractors1_l.png,l,1,033,001,2021-04-26_16h03.28.769,searchDisc4,2020.2.10,Win32,60,,,space,0.156035,1,1,0.49475,,0,31,31,24,1,1a,24,2,1,
,,,,,,,,,,,,,,,,,,,,,,,,,,images/exp2a_trial_59_colour1_distractors19_l.png,l,1,033,001,2021-04-26_16h03.28.769,searchDisc4,2020.2.10,Win32,60,,,space,0.178155,2,0,0.41933,,0,32,32,287,1,2a,59,1,19,
,,,,,,,,,,,,,,,,,,,,,,,,,,images/exp2a_trial_43_colour1_distractors43_r.png,r,2,033,001,2021-04-26_16h03.28.769,searchDisc4,2020.2.10,Win32,60,,,space,0.34618,2,1,0.408795,,0,33,33,271,1,2a,43,1,43,
,,,,,,,,,,,,,,,,,,,,,,,,,,images/exp2a_trial_77_colour1_distractors4_r.png,r,2,033,001,2021-04-26_16h03.28.769,searchDisc4,2020.2.10,Win32,60,,,space,0.146185,2,1,0.75527,,0,34,34,305,1,2a,77,1,4,
,,,,,,,,,,,,,,,,,,,,,,,,,,images/exp2b_trial_109_colour3_distractors19_l.png,l,1,033,001,2021-04-26_16h03.28.769,searchDisc4,2020.2.10,Win32,60,,,space,0.22417,2,0,0.430885,,0,35,35,451,1,2b,109,3,19,
,,,,,,,,,,,,,,,,,,,,,,,,,,images/exp2c_trial_57_colour1_distractors4_l.png,l,1,033,001,2021-04-26_16h03.28.769,searchDisc4,2020.2.10,Win32,60,,,space,0.46559,1,1,0.37175,,0,36,36,513,1,2c,57,1,4,
,,,,,,,,,,,,,,,,,,,,,,,,,,images/exp2a_trial_87_colour2_distractors43_r.png,r,2,033,001,2021-04-26_16h03.28.769,searchDisc4,2020.2.10,Win32,60,,,space,0.13432,2,1,0.49358,,0,37,37,315,1,2a,87,2,43,
,,,,,,,,,,,,,,,,,,,,,,,,,,images/exp2c_trial_52_colour3_distractors9_r.png,r,2,033,001,2021-04-26_16h03.28.769,searchDisc4,2020.2.10,Win32,60,,,space,0.10188,1,0,0.418815,,0,38,38,508,1,2c,52,3,9,
,,,,,,,,,,,,,,,,,,,,,,,,,,images/exp2c_trial_86_colour2_distractors31_r.png,r,2,033,001,2021-04-26_16h03.28.769,searchDisc4,2020.2.10,Win32,60,,,space,0.169775,2,1,0.746755,,0,39,39,542,1,2c,86,2,31,
,,,,,,,,,,,,,,,,,,,,,,,,,,images/exp1b_trial_48_colour2_distractors31_r.png,r,2,033,001,2021-04-26_16h03.28.769,searchDisc4,2020.2.10,Win32,60,,,space,0.07666,2,1,0.55799,,0,40,40,162,1,1b,48,2,31,
,,,,,,,,,,,,,,,,,,,,,,,,,,images/exp1a_trial_37_colour0_distractors0_l.png,l,1,033,001,2021-04-26_16h03.28.769,searchDisc4,2020.2.10,Win32,60,,,space,0.084135,1,1,0.574275,,0,41,41,37,1,1a,37,0,0,
,,,,,,,,,,,,,,,,,,,,,,,,,,images/exp2a_trial_10_colour2_distractors31_r.png,r,2,033,001,2021-04-26_16h03.28.769,searchDisc4,2020.2.10,Win32,60,,,space,0.08347,2,1,0.514575,,0,42,42,238,1,2a,10,2,31,
,,,,,,,,,,,,,,,,,,,,,,,,,,images/exp1a_trial_13_colour3_distractors4_r.png,r,2,033,001,2021-04-26_16h03.28.769,searchDisc4,2020.2.10,Win32,60,,,space,0.07829,2,1,0.586845,,0,43,43,13,1,1a,13,3,4,
,,,,,,,,,,,,,,,,,,,,,,,,,,images/exp2b_trial_96_colour1_distractors9_l.png,l,1,033,001,2021-04-26_16h03.28.769,searchDisc4,2020.2.10,Win32,60,,,space,0.05686,1,1,0.50036,,0,44,44,438,1,2b,96,1,9,
,,,,,,,,,,,,,,,,,,,,,,,,,,images/exp1a_trial_14_colour3_distractors9_r.png,r,2,033,001,2021-04-26_16h03.28.769,searchDisc4,2020.2.10,Win32,60,,,space,0.06901,2,1,0.477975,,0,45,45,14,1,1a,14,3,9,
,,,,,,,,,,,,,,,,,,,,,,,,,,images/exp2b_trial_42_colour1_distractors31_r.png,r,2,033,001,2021-04-26_16h03.28.769,searchDisc4,2020.2.10,Win32,60,,,space,0.087755,2,1,0.604055,,0,46,46,384,1,2b,42,1,31,
,,,,,,,,,,,,,,,,,,,,,,,,,,images/exp1b_trial_87_colour2_distractors43_r.png,r,2,033,001,2021-04-26_16h03.28.769,searchDisc4,2020.2.10,Win32,60,,,space,0.03263,2,1,0.563655,,0,47,47,201,1,1b,87,2,43,
,,,,,,,,,,,,,,,,,,,,,,,,,,images/exp2a_trial_69_colour3_distractors4_l.png,l,1,033,001,2021-04-26_16h03.28.769,searchDisc4,2020.2.10,Win32,60,,,space,0.09802,1,1,0.521195,,0,48,48,297,1,2a,69,3,4,
,,,,,,,,,,,,,,,,,,,,,,,,,,images/exp1a_trial_20_colour1_distractors9_l.png,l,1,033,001,2021-04-26_16h03.28.769,searchDisc4,2020.2.10,Win32,60,,,space,0.09675,1,1,0.66577,,0,49,49,20,1,1a,20,1,9,
,,,,,,,,,,,,,,,,,,,,,,,,,,images/exp2a_trial_42_colour1_distractors31_r.png,r,2,033,001,2021-04-26_16h03.28.769,searchDisc4,2020.2.10,Win32,60,,,space,0.07785,2,1,0.68127,,0,50,50,270,1,2a,42,1,31,
,,,,,,,,,,,,,,,,,,,,,,,,,,images/exp2c_trial_16_colour3_distractors31_r.png,r,2,033,001,2021-04-26_16h03.28.769,searchDisc4,2020.2.10,Win32,60,,,space,0.05325,2,1,0.571855,,0,51,51,472,1,2c,16,3,31,
,,,,,,,,,,,,,,,,,,,,,,,,,,images/exp1a_trial_6_colour2_distractors1_r.png,r,2,033,001,2021-04-26_16h03.28.769,searchDisc4,2020.2.10,Win32,60,,,space,0.03083,2,1,0.503075,,0,52,52,6,1,1a,6,2,1,
,,,,,,,,,,,,,,,,,,,,,,,,,,images/exp2c_trial_103_colour2_distractors19_l.png,l,1,033,001,2021-04-26_16h03.28.769,searchDisc4,2020.2.10,Win32,60,,,space,0.042005,1,1,0.53584,,0,53,53,559,1,2c,103,2,19,
,,,,,,,,,,,,,,,,,,,,,,,,,,images/exp2c_trial_23_colour1_distractors43_l.png,l,1,033,001,2021-04-26_16h03.28.769,searchDisc4,2020.2.10,Win32,60,,,space,0.089725,1,1,0.578965,,0,54,54,479,1,2c,23,1,43,
,,,,,,,,,,,,,,,,,,,,,,,,,,images/exp1a_trial_89_colour3_distractors4_r.png,r,2,033,001,2021-04-26_16h03.28.769,searchDisc4,2020.2.10,Win32,60,,,space,0.079215,2,1,0.5915,,0,55,55,89,1,1a,89,3,4,
,,,,,,,,,,,,,,,,,,,,,,,,,,images/exp2c_trial_41_colour1_distractors19_r.png,r,2,033,001,2021-04-26_16h03.28.769,searchDisc4,2020.2.10,Win32,60,,,space,0.074555,2,1,0.64659,,0,56,56,497,1,2c,41,1,19,
,,,,,,,,,,,,,,,,,,,,,,,,,,images/exp1b_trial_57_colour1_distractors4_l.png,l,1,033,001,2021-04-26_16h03.28.769,searchDisc4,2020.2.10,Win32,60,,,space,0.624365,1,1,0.67409,,0,57,57,171,1,1b,57,1,4,
,,,,,,,,,,,,,,,,,,,,,,,,,,images/exp1b_trial_98_colour1_distractors31_l.png,l,1,033,001,2021-04-26_16h03.28.769,searchDisc4,2020.2.10,Win32,60,,,space,0.077745,2,0,0.71996,,0,58,58,212,1,1b,98,1,31,
,,,,,,,,,,,,,,,,,,,,,,,,,,images/exp2b_trial_62_colour2_distractors1_l.png,l,1,033,001,2021-04-26_16h03.28.769,searchDisc4,2020.2.10,Win32,60,,,space,0.07683,1,1,0.594575,space,0,59,59,404,1,2b,62,2,1,0.043935
,,,,,,,,,,,,,,,,,,,,,,,,,,images/exp1b_trial_104_colour2_distractors31_l.png,l,1,033,001,2021-04-26_16h03.28.769,searchDisc4,2020.2.10,Win32,60,,,space,0.857025,1,1,2.61186,,0,60,60,218,1,1b,104,2,31,
,,,,,,,,,,,,,,,,,,,,,,,,,,images/exp2b_trial_102_colour2_distractors9_l.png,l,1,033,001,2021-04-26_16h03.28.769,searchDisc4,2020.2.10,Win32,60,,,space,0.034435,1,1,0.7125,,0,61,61,444,1,2b,102,2,9,
,,,,,,,,,,,,,,,,,,,,,,,,,,images/exp1a_trial_30_colour3_distractors1_l.png,l,1,033,001,2021-04-26_16h03.28.769,searchDisc4,2020.2.10,Win32,60,,,space,0.090605,1,1,0.62566,,0,62,62,30,1,1a,30,3,1,
,,,,,,,,,,,,,,,,,,,,,,,,,,images/exp1a_trial_93_colour3_distractors43_r.png,r,2,033,001,2021-04-26_16h03.28.769,searchDisc4,2020.2.10,Win32,60,,,space,0.100435,2,1,0.69076,,0,63,63,93,1,1a,93,3,43,
,,,,,,,,,,,,,,,,,,,,,,,,,,images/exp2b_trial_38_colour1_distractors1_r.png,r,2,033,001,2021-04-26_16h03.28.769,searchDisc4,2020.2.10,Win32,60,,,space,0.064335,2,1,0.50711,,0,64,64,380,1,2b,38,1,1,
,,,,,,,,,,,,,,,,,,,,,,,,,,images/exp2a_trial_19_colour1_distractors4_l.png,l,1,033,001,2021-04-26_16h03.28.769,searchDisc4,2020.2.10,Win32,60,,,space,0.264835,1,1,0.48793,,0,65,65,247,1,2a,19,1,4,
,,,,,,,,,,,,,,,,,,,,,,,,,,images/exp2b_trial_9_colour2_distractors19_r.png,r,2,033,001,2021-04-26_16h03.28.769,searchDisc4,2020.2.10,Win32,60,,,space,0.25615,2,1,0.58107,,0,66,66,351,1,2b,9,2,19,
,,,,,,,,,,,,,,,,,,,,,,,,,,images/exp1b_trial_20_colour1_distractors9_l.png,l,1,033,001,2021-04-26_16h03.28.769,searchDisc4,2020.2.10,Win32,60,,,space,0.21496,1,1,0.482805,,0,67,67,134,1,1b,20,1,9,
,,,,,,,,,,,,,,,,,,,,,,,,,,images/exp2b_trial_7_colour2_distractors4_r.png,r,2,033,001,2021-04-26_16h03.28.769,searchDisc4,2020.2.10,Win32,60,,,space,0.251915,2,1,0.52369,,0,68,68,349,1,2b,7,2,4,
,,,,,,,,,,,,,,,,,,,,,,,,,,images/exp2b_trial_111_colour3_distractors43_l.png,l,1,033,001,2021-04-26_16h03.28.769,searchDisc4,2020.2.10,Win32,60,,,space,0.1715,1,1,0.481655,,0,69,69,453,1,2b,111,3,43,
,,,,,,,,,,,,,,,,,,,,,,,,,,images/exp2c_trial_113_colour0_distractors0_l.png,l,1,033,001,2021-04-26_16h03.28.769,searchDisc4,2020.2.10,Win32,60,,,space,0.1925,1,1,0.397095,,0,70,70,569,1,2c,113,0,0,
,,,,,,,,,,,,,,,,,,,,,,,,,,images/exp2b_trial_71_colour3_distractors19_l.png,l,1,033,001,2021-04-26_16h03.28.769,searchDisc4,2020.2.10,Win32,60,,,space,0.21651,1,1,0.50849,,0,71,71,413,1,2b,71,3,19,
,,,,,,,,,,,,,,,,,,,,,,,,,,images/exp1b_trial_91_colour3_distractors19_r.png,r,2,033,001,2021-04-26_16h03.28.769,searchDisc4,2020.2.10,Win32,60,,,space,0.13128,2,1,3.359125,,0,72,72,205,1,1b,91,3,19,
,,,,,,,,,,,,,,,,,,,,,,,,,,images/exp1b_trial_43_colour1_distractors43_r.png,r,2,033,001,2021-04-26_16h03.28.769,searchDisc4,2020.2.10,Win32,60,,,space,0.15655,2,1,2.092945,,0,73,73,157,1,1b,43,1,43,
,,,,,,,,,,,,,,,,,,,,,,,,,,images/exp1b_trial_56_colour1_distractors1_l.png,l,1,033,001,2021-04-26_16h03.28.769,searchDisc4,2020.2.10,Win32,60,,,space,0.140865,1,1,0.56072,,0,74,74,170,1,1b,56,1,1,
,,,,,,,,,,,,,,,,,,,,,,,,,,images/exp1b_trial_85_colour2_distractors19_r.png,r,2,033,001,2021-04-26_16h03.28.769,searchDisc4,2020.2.10,Win32,60,,,space,0.1286,2,1,0.80684,,0,75,75,199,1,1b,85,2,19,
,,,,,,,,,,,,,,,,,,,,,,,,,,images/exp1a_trial_16_colour3_distractors31_r.png,r,2,033,001,2021-04-26_16h03.28.769,searchDisc4,2020.2.10,Win32,60,,,space,0.12803,2,1,0.584265,,0,76,76,16,1,1a,16,3,31,
,,,,,,,,,,,,,,,,,,,,,,,,,,images/exp2a_trial_102_colour2_distractors9_l.png,l,1,033,001,2021-04-26_16h03.28.769,searchDisc4,2020.2.10,Win32,60,,,space,0.14651,1,1,0.48585,,0,77,77,330,1,2a,102,2,9,
,,,,,,,,,,,,,,,,,,,,,,,,,,images/exp2b_trial_51_colour3_distractors4_r.png,r,2,033,001,2021-04-26_16h03.28.769,searchDisc4,2020.2.10,Win32,60,,,space,0.12062,2,1,0.542965,,0,78,78,393,1,2b,51,3,4,
,,,,,,,,,,,,,,,,,,,,,,,,,,images/exp2a_trial_63_colour2_distractors4_l.png,l,1,033,001,2021-04-26_16h03.28.769,searchDisc4,2020.2.10,Win32,60,,,space,0.178435,1,1,0.53342,,0,79,79,291,1,2a,63,2,4,
,,,,,,,,,,,,,,,,,,,,,,,,,,images/exp2c_trial_38_colour1_distractors1_r.png,r,2,033,001,2021-04-26_16h03.28.769,searchDisc4,2020.2.10,Win32,60,,,space,0.16676,2,1,0.466,,0,80,80,494,1,2c,38,1,1,
,,,,,,,,,,,,,,,,,,,,,,,,,,images/exp1a_trial_1_colour1_distractors4_r.png,r,2,033,001,2021-04-26_16h03.28.769,searchDisc4,2020.2.10,Win32,60,,,space,0.20399,2,1,0.5096,,0,81,81,1,1,1a,1,1,4,
,,,,,,,,,,,,,,,,,,,,,,,,,,images/exp2b_trial_53_colour3_distractors19_r.png,r,2,033,001,2021-04-26_16h03.28.769,searchDisc4,2020.2.10,Win32,60,,,space,0.193995,2,1,0.57736,,0,82,82,395,1,2b,53,3,19,
,,,,,,,,,,,,,,,,,,,,,,,,,,images/exp2a_trial_110_colour3_distractors31_l.png,l,1,033,001,2021-04-26_16h03.28.769,searchDisc4,2020.2.10,Win32,60,,,space,0.207445,1,1,0.502105,,0,83,83,338,1,2a,110,3,31,
,,,,,,,,,,,,,,,,,,,,,,,,,,images/exp1a_trial_0_colour1_distractors1_r.png,r,2,033,001,2021-04-26_16h03.28.769,searchDisc4,2020.2.10,Win32,60,,,space,0.203385,1,0,0.892475,,0,84,84,0,1,1a,0,1,1,
,,,,,,,,,,,,,,,,,,,,,,,,,,images/exp1a_trial_42_colour1_distractors31_r.png,r,2,033,001,2021-04-26_16h03.28.769,searchDisc4,2020.2.10,Win32,60,,,space,0.22229,2,1,0.579615,,0,85,85,42,1,1a,42,1,31,
,,,,,,,,,,,,,,,,,,,,,,,,,,images/exp1b_trial_95_colour1_distractors4_l.png,l,1,033,001,2021-04-26_16h03.28.769,searchDisc4,2020.2.10,Win32,60,,,space,0.11126,1,1,0.58822,,0,86,86,209,1,1b,95,1,4,
,,,,,,,,,,,,,,,,,,,,,,,,,,images/exp2a_trial_81_colour1_distractors43_r.png,r,2,033,001,2021-04-26_16h03.28.769,searchDisc4,2020.2.10,Win32,60,,,space,0.15066,2,1,0.53458,,0,87,87,309,1,2a,81,1,43,
,,,,,,,,,,,,,,,,,,,,,,,,,,images/exp2c_trial_94_colour1_distractors1_l.png,l,1,033,001,2021-04-26_16h03.28.769,searchDisc4,2020.2.10,Win32,60,,,space,0.16549,1,1,0.44999,,0,88,88,550,1,2c,94,1,1,
,,,,,,,,,,,,,,,,,,,,,,,,,,images/exp2c_trial_24_colour2_distractors1_l.png,l,1,033,001,2021-04-26_16h03.28.769,searchDisc4,2020.2.10,Win32,60,,,space,0.20291,2,0,0.479785,,0,89,89,480,1,2c,24,2,1,
,,,,,,,,,,,,,,,,,,,,,,,,,,images/exp1b_trial_79_colour1_distractors19_r.png,r,2,033,001,2021-04-26_16h03.28.769,searchDisc4,2020.2.10,Win32,60,,,space,0.305315,2,1,0.698595,,0,90,90,193,1,1b,79,1,19,
,,,,,,,,,,,,,,,,,,,,,,,,,,images/exp2c_trial_30_colour3_distractors1_l.png,l,1,033,001,2021-04-26_16h03.28.769,searchDisc4,2020.2.10,Win32,60,,,space,0.17008,1,1,0.654155,,0,91,91,486,1,2c,30,3,1,
,,,,,,,,,,,,,,,,,,,,,,,,,,images/exp2c_trial_10_colour2_distractors31_r.png,r,2,033,001,2021-04-26_16h03.28.769,searchDisc4,2020.2.10,Win32,60,,,space,0.14133,2,1,0.51592,,0,92,92,466,1,2c,10,2,31,
,,,,,,,,,,,,,,,,,,,,,,,,,,images/exp1a_trial_4_colour1_distractors31_r.png,r,2,033,001,2021-04-26_16h03.28.769,searchDisc4,2020.2.10,Win32,60,,,space,0.139885,2,1,0.468095,,0,93,93,4,1,1a,4,1,31,
,,,,,,,,,,,,,,,,,,,,,,,,,,images/exp2a_trial_28_colour2_distractors31_l.png,l,1,033,001,2021-04-26_16h03.28.769,searchDisc4,2020.2.10,Win32,60,,,space,0.19672,2,0,0.539575,,0,94,94,256,1,2a,28,2,31,
,,,,,,,,,,,,,,,,,,,,,,,,,,images/exp2c_trial_72_colour3_distractors31_l.png,l,1,033,001,2021-04-26_16h03.28.769,searchDisc4,2020.2.10,Win32,60,,,space,0.489885,1,1,0.56522,,0,95,95,528,1,2c,72,3,31,
,,,,,,,,,,,,,,,,,,,,,,,,,,images/exp2a_trial_25_colour2_distractors4_l.png,l,1,033,001,2021-04-26_16h03.28.769,searchDisc4,2020.2.10,Win32,60,,,space,0.14211,1,1,0.489435,,0,96,96,253,1,2a,25,2,4,
,,,,,,,,,,,,,,,,,,,,,,,,,,images/exp1a_trial_70_colour3_distractors9_l.png,l,1,033,001,2021-04-26_16h03.28.769,searchDisc4,2020.2.10,Win32,60,,,space,0.16905,1,1,0.62719,,0,97,97,70,1,1a,70,3,9,
,,,,,,,,,,,,,,,,,,,,,,,,,,images/exp1a_trial_111_colour3_distractors43_l.png,l,1,033,001,2021-04-26_16h03.28.769,searchDisc4,2020.2.10,Win32,60,,,space,0.2029,1,1,0.52635,,0,98,98,111,1,1a,111,3,43,
,,,,,,,,,,,,,,,,,,,,,,,,,,images/exp1b_trial_72_colour3_distractors31_l.png,l,1,033,001,2021-04-26_16h03.28.769,searchDisc4,2020.2.10,Win32,60,,,space,0.14418,1,1,0.920655,,0,99,99,186,1,1b,72,3,31,
,,,,,,,,,,,,,,,,,,,,,,,,,,images/exp2b_trial_72_colour3_distractors31_l.png,l,1,033,001,2021-04-26_16h03.28.769,searchDisc4,2020.2.10,Win32,60,,,space,0.106615,1,1,0.78004,,0,100,100,414,1,2b,72,3,31,
,,,,,,,,,,,,,,,,,,,,,,,,,,images/exp2b_trial_76_colour1_distractors1_r.png,r,2,033,001,2021-04-26_16h03.28.769,searchDisc4,2020.2.10,Win32,60,,,space,0.11878,2,1,0.50848,,0,101,101,418,1,2b,76,1,1,
,,,,,,,,,,,,,,,,,,,,,,,,,,images/exp1b_trial_34_colour3_distractors31_l.png,l,1,033,001,2021-04-26_16h03.28.769,searchDisc4,2020.2.10,Win32,60,,,space,0.112615,1,1,0.553395,,0,102,102,148,1,1b,34,3,31,
,,,,,,,,,,,,,,,,,,,,,,,,,,images/exp1b_trial_8_colour2_distractors9_r.png,r,2,033,001,2021-04-26_16h03.28.769,searchDisc4,2020.2.10,Win32,60,,,space,0.113225,2,1,0.55217,,0,103,103,122,1,1b,8,2,9,
,,,,,,,,,,,,,,,,,,,,,,,,,,images/exp2a_trial_112_colour0_distractors0_r.png,r,2,033,001,2021-04-26_16h03.28.769,searchDisc4,2020.2.10,Win32,60,,,space,0.08353,2,1,0.49223,,0,104,104,340,1,2a,112,0,0,
,,,,,,,,,,,,,,,,,,,,,,,,,,images/exp1b_trial_54_colour3_distractors31_r.png,r,2,033,001,2021-04-26_16h03.28.769,searchDisc4,2020.2.10,Win32,60,,,space,0.03086,2,1,3.00853,,0,105,105,168,1,1b,54,3,31,
,,,,,,,,,,,,,,,,,,,,,,,,,,images/exp2c_trial_81_colour1_distractors43_r.png,r,2,033,001,2021-04-26_16h03.28.769,searchDisc4,2020.2.10,Win32,60,,,space,0.17803,2,1,0.613135,,0,106,106,537,1,2c,81,1,43,
,,,,,,,,,,,,,,,,,,,,,,,,,,images/exp1b_trial_97_colour1_distractors19_l.png,l,1,033,001,2021-04-26_16h03.28.769,searchDisc4,2020.2.10,Win32,60,,,space,0.11988,1,1,0.61173,,0,107,107,211,1,1b,97,1,19,
,,,,,,,,,,,,,,,,,,,,,,,,,,images/exp2c_trial_109_colour3_distractors19_l.png,l,1,033,001,2021-04-26_16h03.28.769,searchDisc4,2020.2.10,Win32,60,,,space,0.11023,1,1,0.55233,,0,108,108,565,1,2c,109,3,19,
,,,,,,,,,,,,,,,,,,,,,,,,,,images/exp2b_trial_74_colour0_distractors0_r.png,r,2,033,001,2021-04-26_16h03.28.769,searchDisc4,2020.2.10,Win32,60,,,space,0.07431,2,1,0.49285,,0,109,109,416,1,2b,74,0,0,
,,,,,,,,,,,,,,,,,,,,,,,,,,images/exp2b_trial_21_colour1_distractors19_l.png,l,1,033,001,2021-04-26_16h03.28.769,searchDisc4,2020.2.10,Win32,60,,,space,0.090675,1,1,0.563415,,0,110,110,363,1,2b,21,1,19,
,,,,,,,,,,,,,,,,,,,,,,,,,,images/exp2c_trial_102_colour2_distractors9_l.png,l,1,033,001,2021-04-26_16h03.28.769,searchDisc4,2020.2.10,Win32,60,,,space,0.078565,1,1,0.669615,,0,111,111,558,1,2c,102,2,9,
,,,,,,,,,,,,,,,,,,,,,,,,,,images/exp2a_trial_37_colour0_distractors0_l.png,l,1,033,001,2021-04-26_16h03.28.769,searchDisc4,2020.2.10,Win32,60,,,space,0.076845,1,1,0.5074,,0,112,112,265,1,2a,37,0,0,
,,,,,,,,,,,,,,,,,,,,,,,,,,images/exp2a_trial_24_colour2_distractors1_l.png,l,1,033,001,2021-04-26_16h03.28.769,searchDisc4,2020.2.10,Win32,60,,,space,0.13227,1,1,0.518875,,0,113,113,252,1,2a,24,2,1,
,,,,,,,,,,,,,,,,,,,,,,,,,,images/exp2c_trial_104_colour2_distractors31_l.png,l,1,033,001,2021-04-26_16h03.28.769,searchDisc4,2020.2.10,Win32,60,,,space,0.20904,1,1,0.494755,,0,114,114,560,1,2c,104,2,31,
,,,,,,,,,,,,,,,,,,,,,,,,,,images/exp2a_trial_54_colour3_distractors31_r.png,r,2,033,001,2021-04-26_16h03.28.769,searchDisc4,2020.2.10,Win32,60,,,space,0.079355,2,1,0.64942,,0,115,115,282,1,2a,54,3,31,
,,,,,,,,,,,,,,,,,,,,,,,,,,images/exp2c_trial_63_colour2_distractors4_l.png,l,1,033,001,2021-04-26_16h03.28.769,searchDisc4,2020.2.10,Win32,60,,,space,0.125415,1,1,0.437035,,0,116,116,519,1,2c,63,2,4,
,,,,,,,,,,,,,,,,,,,,,,,,,,images/exp1a_trial_58_colour1_distractors9_l.png,l,1,033,001,2021-04-26_16h03.28.769,searchDisc4,2020.2.10,Win32,60,,,space,0.105865,1,1,0.526275,,0,117,117,58,1,1a,58,1,9,
,,,,,,,,,,,,,,,,,,,,,,,,,,images/exp2c_trial_101_colour2_distractors4_l.png,l,1,033,001,2021-04-26_16h03.28.769,searchDisc4,2020.2.10,Win32,60,,,space,0.045875,1,1,0.539095,,0,118,118,557,1,2c,101,2,4,
,,,,,,,,,,,,,,,,,,,,,,,,,,images/exp1b_trial_47_colour2_distractors19_r.png,r,2,033,001,2021-04-26_16h03.28.769,searchDisc4,2020.2.10,Win32,60,,,space,0.03416,2,1,1.111915,space,0,119,119,161,1,1b,47,2,19,0.12962
,,,,,,,,,,,,,,,,,,,,,,,,,,images/exp2a_trial_27_colour2_distractors19_l.png,l,1,033,001,2021-04-26_16h03.28.769,searchDisc4,2020.2.10,Win32,60,,,space,0.5539,1,1,0.495905,,0,120,120,255,1,2a,27,2,19,
,,,,,,,,,,,,,,,,,,,,,,,,,,images/exp1b_trial_101_colour2_distractors4_l.png,l,1,033,001,2021-04-26_16h03.28.769,searchDisc4,2020.2.10,Win32,60,,,space,0.02189,1,1,0.59195,,0,121,121,215,1,1b,101,2,4,
,,,,,,,,,,,,,,,,,,,,,,,,,,images/exp2a_trial_86_colour2_distractors31_r.png,r,2,033,001,2021-04-26_16h03.28.769,searchDisc4,2020.2.10,Win32,60,,,space,0.092825,2,1,0.502955,,0,122,122,314,1,2a,86,2,31,
,,,,,,,,,,,,,,,,,,,,,,,,,,images/exp1b_trial_74_colour0_distractors0_r.png,r,2,033,001,2021-04-26_16h03.28.769,searchDisc4,2020.2.10,Win32,60,,,space,0.1043,2,1,0.451425,,0,123,123,188,1,1b,74,0,0,
,,,,,,,,,,,,,,,,,,,,,,,,,,images/exp1b_trial_82_colour2_distractors1_r.png,r,2,033,001,2021-04-26_16h03.28.769,searchDisc4,2020.2.10,Win32,60,,,space,0.076645,2,1,0.76548,,0,124,124,196,1,1b,82,2,1,
,,,,,,,,,,,,,,,,,,,,,,,,,,images/exp1b_trial_55_colour3_distractors43_r.png,r,2,033,001,2021-04-26_16h03.28.769,searchDisc4,2020.2.10,Win32,60,,,space,0.062705,2,1,2.398065,,0,125,125,169,1,1b,55,3,43,
,,,,,,,,,,,,,,,,,,,,,,,,,,images/exp2a_trial_57_colour1_distractors4_l.png,l,1,033,001,2021-04-26_16h03.28.769,searchDisc4,2020.2.10,Win32,60,,,space,0.09176,1,1,0.581065,,0,126,126,285,1,2a,57,1,4,
,,,,,,,,,,,,,,,,,,,,,,,,,,images/exp2a_trial_39_colour1_distractors4_r.png,r,2,033,001,2021-04-26_16h03.28.769,searchDisc4,2020.2.10,Win32,60,,,space,0.055135,2,1,0.57132,,0,127,127,267,1,2a,39,1,4,
,,,,,,,,,,,,,,,,,,,,,,,,,,images/exp2b_trial_97_colour1_distractors19_l.png,l,1,033,001,2021-04-26_16h03.28.769,searchDisc4,2020.2.10,Win32,60,,,space,0.08932,1,1,0.39734,,0,128,128,439,1,2b,97,1,19,
,,,,,,,,,,,,,,,,,,,,,,,,,,images/exp2b_trial_23_colour1_distractors43_l.png,l,1,033,001,2021-04-26_16h03.28.769,searchDisc4,2020.2.10,Win32,60,,,space,0.095795,1,1,0.48844,,0,129,129,365,1,2b,23,1,43,
,,,,,,,,,,,,,,,,,,,,,,,,,,images/exp2a_trial_105_colour2_distractors43_l.png,l,1,033,001,2021-04-26_16h03.28.769,searchDisc4,2020.2.10,Win32,60,,,space,0.105575,1,1,0.515895,,0,130,130,333,1,2a,105,2,43,
,,,,,,,,,,,,,,,,,,,,,,,,,,images/exp1b_trial_0_colour1_distractors1_r.png,r,2,033,001,2021-04-26_16h03.28.769,searchDisc4,2020.2.10,Win32,60,,,space,0.08133,2,1,0.44808,,0,131,131,114,1,1b,0,1,1,
,,,,,,,,,,,,,,,,,,,,,,,,,,images/exp2b_trial_37_colour0_distractors0_l.png,l,1,033,001,2021-04-26_16h03.28.769,searchDisc4,2020.2.10,Win32,60,,,space,0.09563,1,1,0.47937,,0,132,132,379,1,2b,37,0,0,
,,,,,,,,,,,,,,,,,,,,,,,,,,images/exp1a_trial_26_colour2_distractors9_l.png,l,1,033,001,2021-04-26_16h03.28.769,searchDisc4,2020.2.10,Win32,60,,,space,0.15697,1,1,0.693955,,0,133,133,26,1,1a,26,2,9,
,,,,,,,,,,,,,,,,,,,,,,,,,,images/exp2c_trial_90_colour3_distractors9_r.png,r,2,033,001,2021-04-26_16h03.28.769,searchDisc4,2020.2.10,Win32,60,,,space,0.06689,2,1,0.57911,,0,134,134,546,1,2c,90,3,9,
,,,,,,,,,,,,,,,,,,,,,,,,,,images/exp1a_trial_101_colour2_distractors4_l.png,l,1,033,001,2021-04-26_16h03.28.769,searchDisc4,2020.2.10,Win32,60,,,space,0.155295,1,1,0.66716,,0,135,135,101,1,1a,101,2,4,
,,,,,,,,,,,,,,,,,,,,,,,,,,images/exp2c_trial_51_colour3_distractors4_r.png,r,2,033,001,2021-04-26_16h03.28.769,searchDisc4,2020.2.10,Win32,60,,,space,0.26245,2,1,0.419965,,0,136,136,507,1,2c,51,3,4,
,,,,,,,,,,,,,,,,,,,,,,,,,,images/exp1a_trial_50_colour3_distractors1_r.png,r,2,033,001,2021-04-26_16h03.28.769,searchDisc4,2020.2.10,Win32,60,,,space,0.129595,1,0,0.39531,,0,137,137,50,1,1a,50,3,1,
,,,,,,,,,,,,,,,,,,,,,,,,,,images/exp1b_trial_108_colour3_distractors9_l.png,l,1,033,001,2021-04-26_16h03.28.769,searchDisc4,2020.2.10,Win32,60,,,space,0.33588,2,0,0.554775,,0,138,138,222,1,1b,108,3,9,
,,,,,,,,,,,,,,,,,,,,,,,,,,images/exp1b_trial_25_colour2_distractors4_l.png,l,1,033,001,2021-04-26_16h03.28.769,searchDisc4,2020.2.10,Win32,60,,,space,0.29873,1,1,0.852885,,0,139,139,139,1,1b,25,2,4,
,,,,,,,,,,,,,,,,,,,,,,,,,,images/exp2c_trial_18_colour1_distractors1_l.png,l,1,033,001,2021-04-26_16h03.28.769,searchDisc4,2020.2.10,Win32,60,,,space,0.12607,1,1,0.43596,,0,140,140,474,1,2c,18,1,1,
,,,,,,,,,,,,,,,,,,,,,,,,,,images/exp2c_trial_6_colour2_distractors1_r.png,r,2,033,001,2021-04-26_16h03.28.769,searchDisc4,2020.2.10,Win32,60,,,space,0.059925,1,0,0.64585,,0,141,141,462,1,2c,6,2,1,
,,,,,,,,,,,,,,,,,,,,,,,,,,images/exp2c_trial_47_colour2_distractors19_r.png,r,2,033,001,2021-04-26_16h03.28.769,searchDisc4,2020.2.10,Win32,60,,,space,0.479065,1,0,0.42198,,0,142,142,503,1,2c,47,2,19,
,,,,,,,,,,,,,,,,,,,,,,,,,,images/exp2b_trial_49_colour2_distractors43_r.png,r,2,033,001,2021-04-26_16h03.28.769,searchDisc4,2020.2.10,Win32,60,,,space,0.23704,2,1,0.522635,,0,143,143,391,1,2b,49,2,43,
,,,,,,,,,,,,,,,,,,,,,,,,,,images/exp2b_trial_104_colour2_distractors31_l.png,l,1,033,001,2021-04-26_16h03.28.769,searchDisc4,2020.2.10,Win32,60,,,space,0.08084,1,1,0.613515,,0,144,144,446,1,2b,104,2,31,
,,,,,,,,,,,,,,,,,,,,,,,,,,images/exp2c_trial_39_colour1_distractors4_r.png,r,2,033,001,2021-04-26_16h03.28.769,searchDisc4,2020.2.10,Win32,60,,,space,0.064505,2,1,0.516505,,0,145,145,495,1,2c,39,1,4,
,,,,,,,,,,,,,,,,,,,,,,,,,,images/exp1a_trial_27_colour2_distractors19_l.png,l,1,033,001,2021-04-26_16h03.28.769,searchDisc4,2020.2.10,Win32,60,,,space,0.088345,1,1,0.49161,,0,146,146,27,1,1a,27,2,19,
,,,,,,,,,,,,,,,,,,,,,,,,,,images/exp2b_trial_20_colour1_distractors9_l.png,l,1,033,001,2021-04-26_16h03.28.769,searchDisc4,2020.2.10,Win32,60,,,space,0.04182,1,1,0.486095,,0,147,147,362,1,2b,20,1,9,
,,,,,,,,,,,,,,,,,,,,,,,,,,images/exp2c_trial_48_colour2_distractors31_r.png,r,2,033,001,2021-04-26_16h03.28.769,searchDisc4,2020.2.10,Win32,60,,,space,0.048935,2,1,0.480845,,0,148,148,504,1,2c,48,2,31,
,,,,,,,,,,,,,,,,,,,,,,,,,,images/exp2b_trial_64_colour2_distractors9_l.png,l,1,033,001,2021-04-26_16h03.28.769,searchDisc4,2020.2.10,Win32,60,,,space,0.053815,1,1,0.56321,,0,149,149,406,1,2b,64,2,9,
,,,,,,,,,,,,,,,,,,,,,,,,,,images/exp1a_trial_62_colour2_distractors1_l.png,l,1,033,001,2021-04-26_16h03.28.769,searchDisc4,2020.2.10,Win32,60,,,space,0.27726,1,1,0.461685,,0,150,150,62,1,1a,62,2,1,
,,,,,,,,,,,,,,,,,,,,,,,,,,images/exp2c_trial_49_colour2_distractors43_r.png,r,2,033,001,2021-04-26_16h03.28.769,searchDisc4,2020.2.10,Win32,60,,,space,0.089635,2,1,0.651575,,0,151,151,505,1,2c,49,2,43,
,,,,,,,,,,,,,,,,,,,,,,,,,,images/exp2a_trial_5_colour1_distractors43_r.png,r,2,033,001,2021-04-26_16h03.28.769,searchDisc4,2020.2.10,Win32,60,,,space,0.427635,2,1,0.668175,,0,152,152,233,1,2a,5,1,43,
,,,,,,,,,,,,,,,,,,,,,,,,,,images/exp1a_trial_90_colour3_distractors9_r.png,r,2,033,001,2021-04-26_16h03.28.769,searchDisc4,2020.2.10,Win32,60,,,space,0.12105,1,0,0.482345,,0,153,153,90,1,1a,90,3,9,
,,,,,,,,,,,,,,,,,,,,,,,,,,images/exp1b_trial_12_colour3_distractors1_r.png,r,2,033,001,2021-04-26_16h03.28.769,searchDisc4,2020.2.10,Win32,60,,,space,0.501155,2,1,0.736175,,0,154,154,126,1,1b,12,3,1,
,,,,,,,,,,,,,,,,,,,,,,,,,,images/exp1a_trial_113_colour0_distractors0_l.png,l,1,033,001,2021-04-26_16h03.28.769,searchDisc4,2020.2.10,Win32,60,,,space,0.24077,1,1,0.432725,,0,155,155,113,1,1a,113,0,0,
,,,,,,,,,,,,,,,,,,,,,,,,,,images/exp2c_trial_96_colour1_distractors9_l.png,l,1,033,001,2021-04-26_16h03.28.769,searchDisc4,2020.2.10,Win32,60,,,space,0.12388,1,1,0.51415,,0,156,156,552,1,2c,96,1,9,
,,,,,,,,,,,,,,,,,,,,,,,,,,images/exp2c_trial_80_colour1_distractors31_r.png,r,2,033,001,2021-04-26_16h03.28.769,searchDisc4,2020.2.10,Win32,60,,,space,0.111215,2,1,0.552245,,0,157,157,536,1,2c,80,1,31,
,,,,,,,,,,,,,,,,,,,,,,,,,,images/exp1a_trial_112_colour0_distractors0_r.png,r,2,033,001,2021-04-26_16h03.28.769,searchDisc4,2020.2.10,Win32,60,,,space,0.125785,2,1,0.49556,,0,158,158,112,1,1a,112,0,0,
,,,,,,,,,,,,,,,,,,,,,,,,,,images/exp1a_trial_67_colour2_distractors43_l.png,l,1,033,001,2021-04-26_16h03.28.769,searchDisc4,2020.2.10,Win32,60,,,space,0.083575,1,1,0.67017,,0,159,159,67,1,1a,67,2,43,
,,,,,,,,,,,,,,,,,,,,,,,,,,images/exp2b_trial_112_colour0_distractors0_r.png,r,2,033,001,2021-04-26_16h03.28.769,searchDisc4,2020.2.10,Win32,60,,,space,0.150505,2,1,0.58448,,0,160,160,454,1,2b,112,0,0,
,,,,,,,,,,,,,,,,,,,,,,,,,,images/exp2b_trial_70_colour3_distractors9_l.png,l,1,033,001,2021-04-26_16h03.28.769,searchDisc4,2020.2.10,Win32,60,,,space,0.170245,1,1,0.607105,,0,161,161,412,1,2b,70,3,9,
,,,,,,,,,,,,,,,,,,,,,,,,,,images/exp2c_trial_1_colour1_distractors4_r.png,r,2,033,001,2021-04-26_16h03.28.769,searchDisc4,2020.2.10,Win32,60,,,space,0.197445,2,1,0.60154,,0,162,162,457,1,2c,1,1,4,
,,,,,,,,,,,,,,,,,,,,,,,,,,images/exp1a_trial_53_colour3_distractors19_r.png,r,2,033,001,2021-04-26_16h03.28.769,searchDisc4,2020.2.10,Win32,60,,,space,0.57688,2,1,0.54498,,0,163,163,53,1,1a,53,3,19,
,,,,,,,,,,,,,,,,,,,,,,,,,,images/exp2c_trial_62_colour2_distractors1_l.png,l,1,033,001,2021-04-26_16h03.28.769,searchDisc4,2020.2.10,Win32,60,,,space,0.1068,1,1,0.578215,,0,164,164,518,1,2c,62,2,1,
,,,,,,,,,,,,,,,,,,,,,,,,,,images/exp2b_trial_22_colour1_distractors31_l.png,l,1,033,001,2021-04-26_16h03.28.769,searchDisc4,2020.2.10,Win32,60,,,space,0.12409,1,1,0.539215,,0,165,165,364,1,2b,22,1,31,
,,,,,,,,,,,,,,,,,,,,,,,,,,images/exp2b_trial_19_colour1_distractors4_l.png,l,1,033,001,2021-04-26_16h03.28.769,searchDisc4,2020.2.10,Win32,60,,,space,0.16562,1,1,0.396695,,0,166,166,361,1,2b,19,1,4,
,,,,,,,,,,,,,,,,,,,,,,,,,,images/exp2c_trial_46_colour2_distractors9_r.png,r,2,033,001,2021-04-26_16h03.28.769,searchDisc4,2020.2.10,Win32,60,,,space,0.08218,2,1,0.519175,,0,167,167,502,1,2c,46,2,9,
,,,,,,,,,,,,,,,,,,,,,,,,,,images/exp1b_trial_78_colour1_distractors9_r.png,r,2,033,001,2021-04-26_16h03.28.769,searchDisc4,2020.2.10,Win32,60,,,space,0.093105,2,1,0.54969,,0,168,168,192,1,1b,78,1,9,
,,,,,,,,,,,,,,,,,,,,,,,,,,images/exp1b_trial_39_colour1_distractors4_r.png,r,2,033,001,2021-04-26_16h03.28.769,searchDisc4,2020.2.10,Win32,60,,,space,0.136,2,1,0.50731,,0,169,169,153,1,1b,39,1,4,
,,,,,,,,,,,,,,,,,,,,,,,,,,images/exp2b_trial_3_colour1_distractors19_r.png,r,2,033,001,2021-04-26_16h03.28.769,searchDisc4,2020.2.10,Win32,60,,,space,0.123865,2,1,0.438155,,0,170,170,345,1,2b,3,1,19,
,,,,,,,,,,,,,,,,,,,,,,,,,,images/exp1a_trial_79_colour1_distractors19_r.png,r,2,033,001,2021-04-26_16h03.28.769,searchDisc4,2020.2.10,Win32,60,,,space,0.144545,2,1,0.437455,,0,171,171,79,1,1a,79,1,19,
,,,,,,,,,,,,,,,,,,,,,,,,,,images/exp1a_trial_100_colour2_distractors1_l.png,l,1,033,001,2021-04-26_16h03.28.769,searchDisc4,2020.2.10,Win32,60,,,space,0.112985,1,1,0.47374,,0,172,172,100,1,1a,100,2,1,
,,,,,,,,,,,,,,,,,,,,,,,,,,images/exp1a_trial_88_colour3_distractors1_r.png,r,2,033,001,2021-04-26_16h03.28.769,searchDisc4,2020.2.10,Win32,60,,,space,0.156495,2,1,0.57687,,0,173,173,88,1,1a,88,3,1,
,,,,,,,,,,,,,,,,,,,,,,,,,,images/exp2b_trial_13_colour3_distractors4_r.png,r,2,033,001,2021-04-26_16h03.28.769,searchDisc4,2020.2.10,Win32,60,,,space,0.08229,2,1,0.53751,,0,174,174,355,1,2b,13,3,4,
,,,,,,,,,,,,,,,,,,,,,,,,,,images/exp1b_trial_2_colour1_distractors9_r.png,r,2,033,001,2021-04-26_16h03.28.769,searchDisc4,2020.2.10,Win32,60,,,space,0.02793,2,1,0.545185,,0,175,175,116,1,1b,2,1,9,
,,,,,,,,,,,,,,,,,,,,,,,,,,images/exp2b_trial_40_colour1_distractors9_r.png,r,2,033,001,2021-04-26_16h03.28.769,searchDisc4,2020.2.10,Win32,60,,,space,0.10966,2,1,0.503015,,0,176,176,382,1,2b,40,1,9,
,,,,,,,,,,,,,,,,,,,,,,,,,,images/exp2c_trial_75_colour0_distractors0_l.png,l,1,033,001,2021-04-26_16h03.28.769,searchDisc4,2020.2.10,Win32,60,,,space,0.07519,1,1,0.50463,,0,177,177,531,1,2c,75,0,0,
,,,,,,,,,,,,,,,,,,,,,,,,,,images/exp1b_trial_49_colour2_distractors43_r.png,r,2,033,001,2021-04-26_16h03.28.769,searchDisc4,2020.2.10,Win32,60,,,space,0.10422,2,1,0.517515,,0,178,178,163,1,1b,49,2,43,
,,,,,,,,,,,,,,,,,,,,,,,,,,images/exp1a_trial_11_colour2_distractors43_r.png,r,2,033,001,2021-04-26_16h03.28.769,searchDisc4,2020.2.10,Win32,60,,,space,0.090415,2,1,0.44248,space,0,179,179,11,1,1a,11,2,43,0.0882
,,,,,,,,,,,,,,,,,,,,,,,,,,images/exp1b_trial_5_colour1_distractors43_r.png,r,2,033,001,2021-04-26_16h03.28.769,searchDisc4,2020.2.10,Win32,60,,,space,0.54498,2,1,0.631455,,0,180,180,119,1,1b,5,1,43,
,,,,,,,,,,,,,,,,,,,,,,,,,,images/exp2c_trial_85_colour2_distractors19_r.png,r,2,033,001,2021-04-26_16h03.28.769,searchDisc4,2020.2.10,Win32,60,,,space,0.0623,2,1,0.486855,,0,181,181,541,1,2c,85,2,19,
,,,,,,,,,,,,,,,,,,,,,,,,,,images/exp2a_trial_38_colour1_distractors1_r.png,r,2,033,001,2021-04-26_16h03.28.769,searchDisc4,2020.2.10,Win32,60,,,space,0.09341,2,1,0.43868,,0,182,182,266,1,2a,38,1,1,
,,,,,,,,,,,,,,,,,,,,,,,,,,images/exp2c_trial_55_colour3_distractors43_r.png,r,2,033,001,2021-04-26_16h03.28.769,searchDisc4,2020.2.10,Win32,60,,,space,0.11186,2,1,0.455065,,0,183,183,511,1,2c,55,3,43,
,,,,,,,,,,,,,,,,,,,,,,,,,,images/exp2c_trial_19_colour1_distractors4_l.png,l,1,033,001,2021-04-26_16h03.28.769,searchDisc4,2020.2.10,Win32,60,,,space,0.144075,1,1,0.4737,,0,184,184,475,1,2c,19,1,4,
,,,,,,,,,,,,,,,,,,,,,,,,,,images/exp2c_trial_89_colour3_distractors4_r.png,r,2,033,001,2021-04-26_16h03.28.769,searchDisc4,2020.2.10,Win32,60,,,space,0.1284,2,1,0.53151,,0,185,185,545,1,2c,89,3,4,
,,,,,,,,,,,,,,,,,,,,,,,,,,images/exp2b_trial_81_colour1_distractors43_r.png,r,2,033,001,2021-04-26_16h03.28.769,searchDisc4,2020.2.10,Win32,60,,,space,0.103655,2,1,0.542475,,0,186,186,423,1,2b,81,1,43,
,,,,,,,,,,,,,,,,,,,,,,,,,,images/exp2b_trial_106_colour3_distractors1_l.png,l,1,033,001,2021-04-26_16h03.28.769,searchDisc4,2020.2.10,Win32,60,,,space,0.030645,1,1,0.83357,,0,187,187,448,1,2b,106,3,1,
,,,,,,,,,,,,,,,,,,,,,,,,,,images/exp2a_trial_106_colour3_distractors1_l.png,l,1,033,001,2021-04-26_16h03.28.769,searchDisc4,2020.2.10,Win32,60,,,space,0.12023,1,1,0.47592,,0,188,188,334,1,2a,106,3,1,
,,,,,,,,,,,,,,,,,,,,,,,,,,images/exp2b_trial_5_colour1_distractors43_r.png,r,2,033,001,2021-04-26_16h03.28.769,searchDisc4,2020.2.10,Win32,60,,,space,0.087115,2,1,0.502255,,0,189,189,347,1,2b,5,1,43,
,,,,,,,,,,,,,,,,,,,,,,,,,,images/exp1b_trial_103_colour2_distractors19_l.png,l,1,033,001,2021-04-26_16h03.28.769,searchDisc4,2020.2.10,Win32,60,,,space,0.10493,1,1,0.60708,,0,190,190,217,1,1b,103,2,19,
,,,,,,,,,,,,,,,,,,,,,,,,,,images/exp1a_trial_49_colour2_distractors43_r.png,r,2,033,001,2021-04-26_16h03.28.769,searchDisc4,2020.2.10,Win32,60,,,space,0.031365,2,1,0.493545,,0,191,191,49,1,1a,49,2,43,
,,,,,,,,,,,,,,,,,,,,,,,,,,images/exp2c_trial_9_colour2_distractors19_r.png,r,2,033,001,2021-04-26_16h03.28.769,searchDisc4,2020.2.10,Win32,60,,,space,0.07818,2,1,0.494635,,0,192,192,465,1,2c,9,2,19,
,,,,,,,,,,,,,,,,,,,,,,,,,,images/exp2b_trial_11_colour2_distractors43_r.png,r,2,033,001,2021-04-26_16h03.28.769,searchDisc4,2020.2.10,Win32,60,,,space,0.098465,2,1,0.508035,,0,193,193,353,1,2b,11,2,43,
,,,,,,,,,,,,,,,,,,,,,,,,,,images/exp1a_trial_95_colour1_distractors4_l.png,l,1,033,001,2021-04-26_16h03.28.769,searchDisc4,2020.2.10,Win32,60,,,space,0.062185,2,0,0.45736,,0,194,194,95,1,1a,95,1,4,
,,,,,,,,,,,,,,,,,,,,,,,,,,images/exp1a_trial_38_colour1_distractors1_r.png,r,2,033,001,2021-04-26_16h03.28.769,searchDisc4,2020.2.10,Win32,60,,,space,0.087785,2,1,0.51543,,0,195,195,38,1,1a,38,1,1,
,,,,,,,,,,,,,,,,,,,,,,,,,,images/exp1b_trial_41_colour1_distractors19_r.png,r,2,033,001,2021-04-26_16h03.28.769,searchDisc4,2020.2.10,Win32,60,,,space,0.123045,2,1,0.639375,,0,196,196,155,1,1b,41,1,19,
,,,,,,,,,,,,,,,,,,,,,,,,,,images/exp1b_trial_31_colour3_distractors4_l.png,l,1,033,001,2021-04-26_16h03.28.769,searchDisc4,2020.2.10,Win32,60,,,space,0.0313,1,1,0.70441,,0,197,197,145,1,1b,31,3,4,
,,,,,,,,,,,,,,,,,,,,,,,,,,images/exp2b_trial_31_colour3_distractors4_l.png,l,1,033,001,2021-04-26_16h03.28.769,searchDisc4,2020.2.10,Win32,60,,,space,0.556915,1,1,0.53782,,0,198,198,373,1,2b,31,3,4,
,,,,,,,,,,,,,,,,,,,,,,,,,,images/exp1a_trial_83_colour2_distractors4_r.png,r,2,033,001,2021-04-26_16h03.28.769,searchDisc4,2020.2.10,Win32,60,,,space,0.09516,2,1,0.59969,,0,199,199,83,1,1a,83,2,4,
,,,,,,,,,,,,,,,,,,,,,,,,,,images/exp1a_trial_81_colour1_distractors43_r.png,r,2,033,001,2021-04-26_16h03.28.769,searchDisc4,2020.2.10,Win32,60,,,space,0.129125,2,1,0.554815,,0,200,200,81,1,1a,81,1,43,
,,,,,,,,,,,,,,,,,,,,,,,,,,images/exp2a_trial_96_colour1_distractors9_l.png,l,1,033,001,2021-04-26_16h03.28.769,searchDisc4,2020.2.10,Win32,60,,,space,0.06019,1,1,0.473215,,0,201,201,324,1,2a,96,1,9,
,,,,,,,,,,,,,,,,,,,,,,,,,,images/exp2b_trial_25_colour2_distractors4_l.png,l,1,033,001,2021-04-26_16h03.28.769,searchDisc4,2020.2.10,Win32,60,,,space,0.17452,1,1,0.48675,,0,202,202,367,1,2b,25,2,4,
,,,,,,,,,,,,,,,,,,,,,,,,,,images/exp2b_trial_10_colour2_distractors31_r.png,r,2,033,001,2021-04-26_16h03.28.769,searchDisc4,2020.2.10,Win32,60,,,space,0.09336,2,1,0.486115,,0,203,203,352,1,2b,10,2,31,
,,,,,,,,,,,,,,,,,,,,,,,,,,images/exp1b_trial_107_colour3_distractors4_l.png,l,1,033,001,2021-04-26_16h03.28.769,searchDisc4,2020.2.10,Win32,60,,,space,0.063795,2,0,0.980305,,0,204,204,221,1,1b,107,3,4,
,,,,,,,,,,,,,,,,,,,,,,,,,,images/exp1b_trial_80_colour1_distractors31_r.png,r,2,033,001,2021-04-26_16h03.28.769,searchDisc4,2020.2.10,Win32,60,,,space,0.368575,2,1,1.10581,,0,205,205,194,1,1b,80,1,31,
,,,,,,,,,,,,,,,,,,,,,,,,,,images/exp2c_trial_111_colour3_distractors43_l.png,l,1,033,001,2021-04-26_16h03.28.769,searchDisc4,2020.2.10,Win32,60,,,space,0.403485,1,1,0.50439,,0,206,206,567,1,2c,111,3,43,
,,,,,,,,,,,,,,,,,,,,,,,,,,images/exp2a_trial_83_colour2_distractors4_r.png,r,2,033,001,2021-04-26_16h03.28.769,searchDisc4,2020.2.10,Win32,60,,,space,0.20637,2,1,0.522715,,0,207,207,311,1,2a,83,2,4,
,,,,,,,,,,,,,,,,,,,,,,,,,,images/exp1a_trial_72_colour3_distractors31_l.png,l,1,033,001,2021-04-26_16h03.28.769,searchDisc4,2020.2.10,Win32,60,,,space,0.17556,1,1,0.441005,,0,208,208,72,1,1a,72,3,31,
,,,,,,,,,,,,,,,,,,,,,,,,,,images/exp2b_trial_86_colour2_distractors31_r.png,r,2,033,001,2021-04-26_16h03.28.769,searchDisc4,2020.2.10,Win32,60,,,space,0.14083,2,1,0.42601,,0,209,209,428,1,2b,86,2,31,
,,,,,,,,,,,,,,,,,,,,,,,,,,images/exp2c_trial_108_colour3_distractors9_l.png,l,1,033,001,2021-04-26_16h03.28.769,searchDisc4,2020.2.10,Win32,60,,,space,0.14981,1,1,0.5255,,0,210,210,564,1,2c,108,3,9,
,,,,,,,,,,,,,,,,,,,,,,,,,,images/exp2c_trial_88_colour3_distractors1_r.png,r,2,033,001,2021-04-26_16h03.28.769,searchDisc4,2020.2.10,Win32,60,,,space,0.122615,2,1,0.43994,,0,211,211,544,1,2c,88,3,1,
,,,,,,,,,,,,,,,,,,,,,,,,,,images/exp1b_trial_89_colour3_distractors4_r.png,r,2,033,001,2021-04-26_16h03.28.769,searchDisc4,2020.2.10,Win32,60,,,space,0.10159,1,0,0.47354,,0,212,212,203,1,1b,89,3,4,
,,,,,,,,,,,,,,,,,,,,,,,,,,images/exp2b_trial_32_colour3_distractors9_l.png,l,1,033,001,2021-04-26_16h03.28.769,searchDisc4,2020.2.10,Win32,60,,,space,0.10448,1,1,0.71167,,0,213,213,374,1,2b,32,3,9,
,,,,,,,,,,,,,,,,,,,,,,,,,,images/exp2a_trial_85_colour2_distractors19_r.png,r,2,033,001,2021-04-26_16h03.28.769,searchDisc4,2020.2.10,Win32,60,,,space,0.067515,2,1,0.517785,,0,214,214,313,1,2a,85,2,19,
,,,,,,,,,,,,,,,,,,,,,,,,,,images/exp2a_trial_15_colour3_distractors19_r.png,r,2,033,001,2021-04-26_16h03.28.769,searchDisc4,2020.2.10,Win32,60,,,space,0.05762,2,1,0.452055,,0,215,215,243,1,2a,15,3,19,
,,,,,,,,,,,,,,,,,,,,,,,,,,images/exp1b_trial_102_colour2_distractors9_l.png,l,1,033,001,2021-04-26_16h03.28.769,searchDisc4,2020.2.10,Win32,60,,,space,0.07553,1,1,0.722275,,0,216,216,216,1,1b,102,2,9,
,,,,,,,,,,,,,,,,,,,,,,,,,,images/exp2c_trial_77_colour1_distractors4_r.png,r,2,033,001,2021-04-26_16h03.28.769,searchDisc4,2020.2.10,Win32,60,,,space,0.05777,2,1,0.566925,,0,217,217,533,1,2c,77,1,4,
,,,,,,,,,,,,,,,,,,,,,,,,,,images/exp2a_trial_47_colour2_distractors19_r.png,r,2,033,001,2021-04-26_16h03.28.769,searchDisc4,2020.2.10,Win32,60,,,space,0.00668,2,1,0.52608,,0,218,218,275,1,2a,47,2,19,
,,,,,,,,,,,,,,,,,,,,,,,,,,images/exp1a_trial_59_colour1_distractors19_l.png,l,1,033,001,2021-04-26_16h03.28.769,searchDisc4,2020.2.10,Win32,60,,,space,0.018925,1,1,0.491235,,0,219,219,59,1,1a,59,1,19,
,,,,,,,,,,,,,,,,,,,,,,,,,,images/exp1b_trial_4_colour1_distractors31_r.png,r,2,033,001,2021-04-26_16h03.28.769,searchDisc4,2020.2.10,Win32,60,,,space,0.05827,2,1,0.624955,,0,220,220,118,1,1b,4,1,31,
,,,,,,,,,,,,,,,,,,,,,,,,,,images/exp1b_trial_40_colour1_distractors9_r.png,r,2,033,001,2021-04-26_16h03.28.769,searchDisc4,2020.2.10,Win32,60,,,space,0.029335,2,1,0.62069,,0,221,221,154,1,1b,40,1,9,
,,,,,,,,,,,,,,,,,,,,,,,,,,images/exp2a_trial_56_colour1_distractors1_l.png,l,1,033,001,2021-04-26_16h03.28.769,searchDisc4,2020.2.10,Win32,60,,,space,0.012085,1,1,0.57674,,0,222,222,284,1,2a,56,1,1,
,,,,,,,,,,,,,,,,,,,,,,,,,,images/exp1a_trial_63_colour2_distractors4_l.png,l,1,033,001,2021-04-26_16h03.28.769,searchDisc4,2020.2.10,Win32,60,,,space,0.057105,1,1,0.80894,,0,223,223,63,1,1a,63,2,4,
,,,,,,,,,,,,,,,,,,,,,,,,,,images/exp2b_trial_98_colour1_distractors31_l.png,l,1,033,001,2021-04-26_16h03.28.769,searchDisc4,2020.2.10,Win32,60,,,space,0.041855,1,1,0.60422,,0,224,224,440,1,2b,98,1,31,
,,,,,,,,,,,,,,,,,,,,,,,,,,images/exp2c_trial_14_colour3_distractors9_r.png,r,2,033,001,2021-04-26_16h03.28.769,searchDisc4,2020.2.10,Win32,60,,,space,0.680755,2,1,0.70732,,0,225,225,470,1,2c,14,3,9,
,,,,,,,,,,,,,,,,,,,,,,,,,,images/exp2a_trial_79_colour1_distractors19_r.png,r,2,033,001,2021-04-26_16h03.28.769,searchDisc4,2020.2.10,Win32,60,,,space,0.201365,2,1,0.451355,,0,226,226,307,1,2a,79,1,19,
,,,,,,,,,,,,,,,,,,,,,,,,,,images/exp2c_trial_64_colour2_distractors9_l.png,l,1,033,001,2021-04-26_16h03.28.769,searchDisc4,2020.2.10,Win32,60,,,space,0.103765,1,1,0.543165,,0,227,227,520,1,2c,64,2,9,
,,,,,,,,,,,,,,,,,,,,,,,,,,images/exp2c_trial_106_colour3_distractors1_l.png,l,1,033,001,2021-04-26_16h03.28.769,searchDisc4,2020.2.10,Win32,60,,,space,0.091515,1,1,0.53923,,0,228,228,562,1,2c,106,3,1,
,,,,,,,,,,,,,,,,,,,,,,,,,,images/exp2c_trial_15_colour3_distractors19_r.png,r,2,033,001,2021-04-26_16h03.28.769,searchDisc4,2020.2.10,Win32,60,,,space,0.07927,2,1,0.620645,,0,229,229,471,1,2c,15,3,19,
,,,,,,,,,,,,,,,,,,,,,,,,,,images/exp1b_trial_77_colour1_distractors4_r.png,r,2,033,001,2021-04-26_16h03.28.769,searchDisc4,2020.2.10,Win32,60,,,space,0.08852,2,1,0.44088,,0,230,230,191,1,1b,77,1,4,
,,,,,,,,,,,,,,,,,,,,,,,,,,images/exp1b_trial_90_colour3_distractors9_r.png,r,2,033,001,2021-04-26_16h03.28.769,searchDisc4,2020.2.10,Win32,60,,,space,0.11862,2,1,0.80825,,0,231,231,204,1,1b,90,3,9,
,,,,,,,,,,,,,,,,,,,,,,,,,,images/exp1b_trial_67_colour2_distractors43_l.png,l,1,033,001,2021-04-26_16h03.28.769,searchDisc4,2020.2.10,Win32,60,,,space,0.139735,2,0,0.516745,,0,232,232,181,1,1b,67,2,43,
,,,,,,,,,,,,,,,,,,,,,,,,,,images/exp1a_trial_92_colour3_distractors31_r.png,r,2,033,001,2021-04-26_16h03.28.769,searchDisc4,2020.2.10,Win32,60,,,space,0.316365,2,1,0.51282,,0,233,233,92,1,1a,92,3,31,
,,,,,,,,,,,,,,,,,,,,,,,,,,images/exp2a_trial_60_colour1_distractors31_l.png,l,1,033,001,2021-04-26_16h03.28.769,searchDisc4,2020.2.10,Win32,60,,,space,0.27486,1,1,0.725205,,0,234,234,288,1,2a,60,1,31,
,,,,,,,,,,,,,,,,,,,,,,,,,,images/exp1a_trial_15_colour3_distractors19_r.png,r,2,033,001,2021-04-26_16h03.28.769,searchDisc4,2020.2.10,Win32,60,,,space,0.105425,2,1,0.468835,,0,235,235,15,1,1a,15,3,19,
,,,,,,,,,,,,,,,,,,,,,,,,,,images/exp1b_trial_26_colour2_distractors9_l.png,l,1,033,001,2021-04-26_16h03.28.769,searchDisc4,2020.2.10,Win32,60,,,space,0.0631,1,1,0.733115,,0,236,236,140,1,1b,26,2,9,
,,,,,,,,,,,,,,,,,,,,,,,,,,images/exp1b_trial_84_colour2_distractors9_r.png,r,2,033,001,2021-04-26_16h03.28.769,searchDisc4,2020.2.10,Win32,60,,,space,0.06775,2,1,0.652865,,0,237,237,198,1,1b,84,2,9,
,,,,,,,,,,,,,,,,,,,,,,,,,,images/exp1a_trial_94_colour1_distractors1_l.png,l,1,033,001,2021-04-26_16h03.28.769,searchDisc4,2020.2.10,Win32,60,,,space,0.049285,1,1,0.569745,,0,238,238,94,1,1a,94,1,1,
,,,,,,,,,,,,,,,,,,,,,,,,,,images/exp2c_trial_11_colour2_distractors43_r.png,r,2,033,001,2021-04-26_16h03.28.769,searchDisc4,2020.2.10,Win32,60,,,space,0.049575,2,1,0.47559,space,0,239,239,467,1,2c,11,2,43,0.041945
,,,,,,,,,,,,,,,,,,,,,,,,,,images/exp1b_trial_18_colour1_distractors1_l.png,l,1,033,001,2021-04-26_16h03.28.769,searchDisc4,2020.2.10,Win32,60,,,space,0.511655,1,1,0.70135,,0,240,240,132,1,1b,18,1,1,
,,,,,,,,,,,,,,,,,,,,,,,,,,images/exp2b_trial_89_colour3_distractors4_r.png,r,2,033,001,2021-04-26_16h03.28.769,searchDisc4,2020.2.10,Win32,60,,,space,0.12412,2,1,0.45658,,0,241,241,431,1,2b,89,3,4,
,,,,,,,,,,,,,,,,,,,,,,,,,,images/exp2c_trial_20_colour1_distractors9_l.png,l,1,033,001,2021-04-26_16h03.28.769,searchDisc4,2020.2.10,Win32,60,,,space,0.130905,1,1,0.461305,,0,242,242,476,1,2c,20,1,9,
,,,,,,,,,,,,,,,,,,,,,,,,,,images/exp2a_trial_101_colour2_distractors4_l.png,l,1,033,001,2021-04-26_16h03.28.769,searchDisc4,2020.2.10,Win32,60,,,space,0.099645,2,0,0.434335,,0,243,243,329,1,2a,101,2,4,
,,,,,,,,,,,,,,,,,,,,,,,,,,images/exp2b_trial_78_colour1_distractors9_r.png,r,2,033,001,2021-04-26_16h03.28.769,searchDisc4,2020.2.10,Win32,60,,,space,0.386915,2,1,0.64718,,0,244,244,420,1,2b,78,1,9,
,,,,,,,,,,,,,,,,,,,,,,,,,,images/exp2b_trial_80_colour1_distractors31_r.png,r,2,033,001,2021-04-26_16h03.28.769,searchDisc4,2020.2.10,Win32,60,,,space,0.061975,2,1,0.517245,,0,245,245,422,1,2b,80,1,31,
,,,,,,,,,,,,,,,,,,,,,,,,,,images/exp2a_trial_78_colour1_distractors9_r.png,r,2,033,001,2021-04-26_16h03.28.769,searchDisc4,2020.2.10,Win32,60,,,space,0.08795,2,1,0.493335,,0,246,246,306,1,2a,78,1,9,
,,,,,,,,,,,,,,,,,,,,,,,,,,images/exp1a_trial_54_colour3_distractors31_r.png,r,2,033,001,2021-04-26_16h03.28.769,searchDisc4,2020.2.10,Win32,60,,,space,0.06947,2,1,0.617965,,0,247,247,54,1,1a,54,3,31,
,,,,,,,,,,,,,,,,,,,,,,,,,,images/exp1a_trial_28_colour2_distractors31_l.png,l,1,033,001,2021-04-26_16h03.28.769,searchDisc4,2020.2.10,Win32,60,,,space,0.061605,1,1,0.7061,,0,248,248,28,1,1a,28,2,31,
,,,,,,,,,,,,,,,,,,,,,,,,,,images/exp1b_trial_45_colour2_distractors4_r.png,r,2,033,001,2021-04-26_16h03.28.769,searchDisc4,2020.2.10,Win32,60,,,space,0.034155,2,1,0.57198,,0,249,249,159,1,1b,45,2,4,
,,,,,,,,,,,,,,,,,,,,,,,,,,images/exp2a_trial_0_colour1_distractors1_r.png,r,2,033,001,2021-04-26_16h03.28.769,searchDisc4,2020.2.10,Win32,60,,,space,0.033525,2,1,0.610875,,0,250,250,228,1,2a,0,1,1,
,,,,,,,,,,,,,,,,,,,,,,,,,,images/exp1a_trial_110_colour3_distractors31_l.png,l,1,033,001,2021-04-26_16h03.28.769,searchDisc4,2020.2.10,Win32,60,,,space,0.08787,1,1,0.516425,,0,251,251,110,1,1a,110,3,31,
,,,,,,,,,,,,,,,,,,,,,,,,,,images/exp1b_trial_24_colour2_distractors1_l.png,l,1,033,001,2021-04-26_16h03.28.769,searchDisc4,2020.2.10,Win32,60,,,space,0.048715,1,1,0.575925,,0,252,252,138,1,1b,24,2,1,
,,,,,,,,,,,,,,,,,,,,,,,,,,images/exp1a_trial_96_colour1_distractors9_l.png,l,1,033,001,2021-04-26_16h03.28.769,searchDisc4,2020.2.10,Win32,60,,,space,0.020315,1,1,0.553545,,0,253,253,96,1,1a,96,1,9,
,,,,,,,,,,,,,,,,,,,,,,,,,,images/exp1a_trial_5_colour1_distractors43_r.png,r,2,033,001,2021-04-26_16h03.28.769,searchDisc4,2020.2.10,Win32,60,,,space,0.019325,2,1,0.56406,,0,254,254,5,1,1a,5,1,43,
,,,,,,,,,,,,,,,,,,,,,,,,,,images/exp2c_trial_22_colour1_distractors31_l.png,l,1,033,001,2021-04-26_16h03.28.769,searchDisc4,2020.2.10,Win32,60,,,space,0.079775,1,1,0.673155,,0,255,255,478,1,2c,22,1,31,
,,,,,,,,,,,,,,,,,,,,,,,,,,images/exp2a_trial_1_colour1_distractors4_r.png,r,2,033,001,2021-04-26_16h03.28.769,searchDisc4,2020.2.10,Win32,60,,,space,0.10359,2,1,0.488745,,0,256,256,229,1,2a,1,1,4,
,,,,,,,,,,,,,,,,,,,,,,,,,,images/exp2b_trial_65_colour2_distractors19_l.png,l,1,033,001,2021-04-26_16h03.28.769,searchDisc4,2020.2.10,Win32,60,,,space,0.264985,1,1,0.493565,,0,257,257,407,1,2b,65,2,19,
,,,,,,,,,,,,,,,,,,,,,,,,,,images/exp2a_trial_3_colour1_distractors19_r.png,r,2,033,001,2021-04-26_16h03.28.769,searchDisc4,2020.2.10,Win32,60,,,space,0.0607,2,1,0.570125,,0,258,258,231,1,2a,3,1,19,
,,,,,,,,,,,,,,,,,,,,,,,,,,images/exp2a_trial_113_colour0_distractors0_l.png,l,1,033,001,2021-04-26_16h03.28.769,searchDisc4,2020.2.10,Win32,60,,,space,0.150875,1,1,0.412,,0,259,259,341,1,2a,113,0,0,
,,,,,,,,,,,,,,,,,,,,,,,,,,images/exp2a_trial_26_colour2_distractors9_l.png,l,1,033,001,2021-04-26_16h03.28.769,searchDisc4,2020.2.10,Win32,60,,,space,0.14359,1,1,0.508145,,0,260,260,254,1,2a,26,2,9,
,,,,,,,,,,,,,,,,,,,,,,,,,,images/exp1b_trial_70_colour3_distractors9_l.png,l,1,033,001,2021-04-26_16h03.28.769,searchDisc4,2020.2.10,Win32,60,,,space,0.13198,1,1,1.201195,,0,261,261,184,1,1b,70,3,9,
,,,,,,,,,,,,,,,,,,,,,,,,,,images/exp2b_trial_69_colour3_distractors4_l.png,l,1,033,001,2021-04-26_16h03.28.769,searchDisc4,2020.2.10,Win32,60,,,space,0.077745,1,1,0.627775,,0,262,262,411,1,2b,69,3,4,
,,,,,,,,,,,,,,,,,,,,,,,,,,images/exp2b_trial_35_colour3_distractors43_l.png,l,1,033,001,2021-04-26_16h03.28.769,searchDisc4,2020.2.10,Win32,60,,,space,0.15734,1,1,0.523385,,0,263,263,377,1,2b,35,3,43,
,,,,,,,,,,,,,,,,,,,,,,,,,,images/exp1b_trial_6_colour2_distractors1_r.png,r,2,033,001,2021-04-26_16h03.28.769,searchDisc4,2020.2.10,Win32,60,,,space,0.0655,2,1,0.75331,,0,264,264,120,1,1b,6,2,1,
,,,,,,,,,,,,,,,,,,,,,,,,,,images/exp1b_trial_86_colour2_distractors31_r.png,r,2,033,001,2021-04-26_16h03.28.769,searchDisc4,2020.2.10,Win32,60,,,space,0.15962,2,1,0.771075,,0,265,265,200,1,1b,86,2,31,
,,,,,,,,,,,,,,,,,,,,,,,,,,images/exp1b_trial_16_colour3_distractors31_r.png,r,2,033,001,2021-04-26_16h03.28.769,searchDisc4,2020.2.10,Win32,60,,,space,0.11878,2,1,1.28869,,0,266,266,130,1,1b,16,3,31,
,,,,,,,,,,,,,,,,,,,,,,,,,,images/exp1a_trial_18_colour1_distractors1_l.png,l,1,033,001,2021-04-26_16h03.28.769,searchDisc4,2020.2.10,Win32,60,,,space,0.17884,1,1,0.586485,,0,267,267,18,1,1a,18,1,1,
,,,,,,,,,,,,,,,,,,,,,,,,,,images/exp2c_trial_93_colour3_distractors43_r.png,r,2,033,001,2021-04-26_16h03.28.769,searchDisc4,2020.2.10,Win32,60,,,space,0.09017,2,1,0.532845,,0,268,268,549,1,2c,93,3,43,
,,,,,,,,,,,,,,,,,,,,,,,,,,images/exp2b_trial_26_colour2_distractors9_l.png,l,1,033,001,2021-04-26_16h03.28.769,searchDisc4,2020.2.10,Win32,60,,,space,0.11388,1,1,0.53215,,0,269,269,368,1,2b,26,2,9,
,,,,,,,,,,,,,,,,,,,,,,,,,,images/exp2a_trial_61_colour1_distractors43_l.png,l,1,033,001,2021-04-26_16h03.28.769,searchDisc4,2020.2.10,Win32,60,,,space,0.07891,1,1,0.586815,,0,270,270,289,1,2a,61,1,43,
,,,,,,,,,,,,,,,,,,,,,,,,,,images/exp2a_trial_11_colour2_distractors43_r.png,r,2,033,001,2021-04-26_16h03.28.769,searchDisc4,2020.2.10,Win32,60,,,space,0.10431,2,1,0.537945,,0,271,271,239,1,2a,11,2,43,
,,,,,,,,,,,,,,,,,,,,,,,,,,images/exp2a_trial_76_colour1_distractors1_r.png,r,2,033,001,2021-04-26_16h03.28.769,searchDisc4,2020.2.10,Win32,60,,,space,0.17378,2,1,0.50945,,0,272,272,304,1,2a,76,1,1,
,,,,,,,,,,,,,,,,,,,,,,,,,,images/exp2c_trial_110_colour3_distractors31_l.png,l,1,033,001,2021-04-26_16h03.28.769,searchDisc4,2020.2.10,Win32,60,,,space,0.129975,1,1,0.564365,,0,273,273,566,1,2c,110,3,31,
,,,,,,,,,,,,,,,,,,,,,,,,,,images/exp2a_trial_51_colour3_distractors4_r.png,r,2,033,001,2021-04-26_16h03.28.769,searchDisc4,2020.2.10,Win32,60,,,space,0.094305,2,1,0.559895,,0,274,274,279,1,2a,51,3,4,
,,,,,,,,,,,,,,,,,,,,,,,,,,images/exp1b_trial_63_colour2_distractors4_l.png,l,1,033,001,2021-04-26_16h03.28.769,searchDisc4,2020.2.10,Win32,60,,,space,0.123675,1,1,0.6638,,0,275,275,177,1,1b,63,2,4,
,,,,,,,,,,,,,,,,,,,,,,,,,,images/exp1a_trial_69_colour3_distractors4_l.png,l,1,033,001,2021-04-26_16h03.28.769,searchDisc4,2020.2.10,Win32,60,,,space,0.055155,1,1,0.62358,,0,276,276,69,1,1a,69,3,4,
,,,,,,,,,,,,,,,,,,,,,,,,,,images/exp2a_trial_7_colour2_distractors4_r.png,r,2,033,001,2021-04-26_16h03.28.769,searchDisc4,2020.2.10,Win32,60,,,space,0.02262,1,0,0.56625,,0,277,277,235,1,2a,7,2,4,
,,,,,,,,,,,,,,,,,,,,,,,,,,images/exp2c_trial_58_colour1_distractors9_l.png,l,1,033,001,2021-04-26_16h03.28.769,searchDisc4,2020.2.10,Win32,60,,,space,0.51653,1,1,0.4249,,0,278,278,514,1,2c,58,1,9,
,,,,,,,,,,,,,,,,,,,,,,,,,,images/exp1a_trial_33_colour3_distractors19_l.png,l,1,033,001,2021-04-26_16h03.28.769,searchDisc4,2020.2.10,Win32,60,,,space,0.107835,1,1,0.47264,,0,279,279,33,1,1a,33,3,19,
,,,,,,,,,,,,,,,,,,,,,,,,,,images/exp1b_trial_66_colour2_distractors31_l.png,l,1,033,001,2021-04-26_16h03.28.769,searchDisc4,2020.2.10,Win32,60,,,space,0.17114,1,1,0.523965,,0,280,280,180,1,1b,66,2,31,
,,,,,,,,,,,,,,,,,,,,,,,,,,images/exp2b_trial_29_colour2_distractors43_l.png,l,1,033,001,2021-04-26_16h03.28.769,searchDisc4,2020.2.10,Win32,60,,,space,0.19457,1,1,0.44406,,0,281,281,371,1,2b,29,2,43,
,,,,,,,,,,,,,,,,,,,,,,,,,,images/exp2a_trial_45_colour2_distractors4_r.png,r,2,033,001,2021-04-26_16h03.28.769,searchDisc4,2020.2.10,Win32,60,,,space,0.060535,2,1,0.57804,,0,282,282,273,1,2a,45,2,4,
,,,,,,,,,,,,,,,,,,,,,,,,,,images/exp1a_trial_84_colour2_distractors9_r.png,r,2,033,001,2021-04-26_16h03.28.769,searchDisc4,2020.2.10,Win32,60,,,space,0.114245,2,1,0.576015,,0,283,283,84,1,1a,84,2,9,
,,,,,,,,,,,,,,,,,,,,,,,,,,images/exp2a_trial_88_colour3_distractors1_r.png,r,2,033,001,2021-04-26_16h03.28.769,searchDisc4,2020.2.10,Win32,60,,,space,0.17758,2,1,0.578665,,0,284,284,316,1,2a,88,3,1,
,,,,,,,,,,,,,,,,,,,,,,,,,,images/exp1b_trial_105_colour2_distractors43_l.png,l,1,033,001,2021-04-26_16h03.28.769,searchDisc4,2020.2.10,Win32,60,,,space,0.179005,1,1,0.810985,,0,285,285,219,1,1b,105,2,43,
,,,,,,,,,,,,,,,,,,,,,,,,,,images/exp2b_trial_95_colour1_distractors4_l.png,l,1,033,001,2021-04-26_16h03.28.769,searchDisc4,2020.2.10,Win32,60,,,space,0.15288,1,1,0.633465,,0,286,286,437,1,2b,95,1,4,
,,,,,,,,,,,,,,,,,,,,,,,,,,images/exp2a_trial_21_colour1_distractors19_l.png,l,1,033,001,2021-04-26_16h03.28.769,searchDisc4,2020.2.10,Win32,60,,,space,0.11559,1,1,0.63557,,0,287,287,249,1,2a,21,1,19,
,,,,,,,,,,,,,,,,,,,,,,,,,,images/exp1a_trial_61_colour1_distractors43_l.png,l,1,033,001,2021-04-26_16h03.28.769,searchDisc4,2020.2.10,Win32,60,,,space,0.076635,1,1,0.53476,,0,288,288,61,1,1a,61,1,43,
,,,,,,,,,,,,,,,,,,,,,,,,,,images/exp2a_trial_91_colour3_distractors19_r.png,r,2,033,001,2021-04-26_16h03.28.769,searchDisc4,2020.2.10,Win32,60,,,space,0.178715,2,1,0.574715,,0,289,289,319,1,2a,91,3,19,
,,,,,,,,,,,,,,,,,,,,,,,,,,images/exp2c_trial_60_colour1_distractors31_l.png,l,1,033,001,2021-04-26_16h03.28.769,searchDisc4,2020.2.10,Win32,60,,,space,0.090455,1,1,0.585165,,0,290,290,516,1,2c,60,1,31,
,,,,,,,,,,,,,,,,,,,,,,,,,,images/exp2b_trial_52_colour3_distractors9_r.png,r,2,033,001,2021-04-26_16h03.28.769,searchDisc4,2020.2.10,Win32,60,,,space,0.22177,1,0,0.49539,,0,291,291,394,1,2b,52,3,9,
,,,,,,,,,,,,,,,,,,,,,,,,,,images/exp2b_trial_108_colour3_distractors9_l.png,l,1,033,001,2021-04-26_16h03.28.769,searchDisc4,2020.2.10,Win32,60,,,space,0.48395,1,1,0.556325,,0,292,292,450,1,2b,108,3,9,
,,,,,,,,,,,,,,,,,,,,,,,,,,images/exp1b_trial_93_colour3_distractors43_r.png,r,2,033,001,2021-04-26_16h03.28.769,searchDisc4,2020.2.10,Win32,60,,,space,0.09499,2,1,1.13511,,0,293,293,207,1,1b,93,3,43,
,,,,,,,,,,,,,,,,,,,,,,,,,,images/exp2c_trial_67_colour2_distractors43_l.png,l,1,033,001,2021-04-26_16h03.28.769,searchDisc4,2020.2.10,Win32,60,,,space,0.134395,1,1,0.82949,,0,294,294,523,1,2c,67,2,43,
,,,,,,,,,,,,,,,,,,,,,,,,,,images/exp2b_trial_75_colour0_distractors0_l.png,l,1,033,001,2021-04-26_16h03.28.769,searchDisc4,2020.2.10,Win32,60,,,space,0.11857,1,1,0.52455,,0,295,295,417,1,2b,75,0,0,
,,,,,,,,,,,,,,,,,,,,,,,,,,images/exp2b_trial_61_colour1_distractors43_l.png,l,1,033,001,2021-04-26_16h03.28.769,searchDisc4,2020.2.10,Win32,60,,,space,0.131695,1,1,0.626735,,0,296,296,403,1,2b,61,1,43,
,,,,,,,,,,,,,,,,,,,,,,,,,,images/exp2b_trial_85_colour2_distractors19_r.png,r,2,033,001,2021-04-26_16h03.28.769,searchDisc4,2020.2.10,Win32,60,,,space,0.10547,2,1,0.462925,,0,297,297,427,1,2b,85,2,19,
,,,,,,,,,,,,,,,,,,,,,,,,,,images/exp2b_trial_44_colour2_distractors1_r.png,r,2,033,001,2021-04-26_16h03.28.769,searchDisc4,2020.2.10,Win32,60,,,space,0.113135,2,1,0.4354,,0,298,298,386,1,2b,44,2,1,
,,,,,,,,,,,,,,,,,,,,,,,,,,images/exp2b_trial_77_colour1_distractors4_r.png,r,2,033,001,2021-04-26_16h03.28.769,searchDisc4,2020.2.10,Win32,60,,,space,0.131555,2,1,0.65166,space,0,299,299,419,1,2b,77,1,4,0.14831
,,,,,,,,,,,,,,,,,,,,,,,,,,images/exp1b_trial_14_colour3_distractors9_r.png,r,2,033,001,2021-04-26_16h03.28.769,searchDisc4,2020.2.10,Win32,60,,,space,0.512995,2,1,0.501525,,0,300,300,128,1,1b,14,3,9,
,,,,,,,,,,,,,,,,,,,,,,,,,,images/exp2b_trial_15_colour3_distractors19_r.png,r,2,033,001,2021-04-26_16h03.28.769,searchDisc4,2020.2.10,Win32,60,,,space,0.231845,2,1,0.524315,,0,301,301,357,1,2b,15,3,19,
,,,,,,,,,,,,,,,,,,,,,,,,,,images/exp2b_trial_16_colour3_distractors31_r.png,r,2,033,001,2021-04-26_16h03.28.769,searchDisc4,2020.2.10,Win32,60,,,space,0.196575,2,1,0.91214,,0,302,302,358,1,2b,16,3,31,
,,,,,,,,,,,,,,,,,,,,,,,,,,images/exp2a_trial_93_colour3_distractors43_r.png,r,2,033,001,2021-04-26_16h03.28.769,searchDisc4,2020.2.10,Win32,60,,,space,0.13045,2,1,0.499885,,0,303,303,321,1,2a,93,3,43,
,,,,,,,,,,,,,,,,,,,,,,,,,,images/exp1b_trial_33_colour3_distractors19_l.png,l,1,033,001,2021-04-26_16h03.28.769,searchDisc4,2020.2.10,Win32,60,,,space,0.135545,1,1,1.478165,,0,304,304,147,1,1b,33,3,19,
,,,,,,,,,,,,,,,,,,,,,,,,,,images/exp1b_trial_73_colour3_distractors43_l.png,l,1,033,001,2021-04-26_16h03.28.769,searchDisc4,2020.2.10,Win32,60,,,space,0.120925,1,1,3.45235,,0,305,305,187,1,1b,73,3,43,
,,,,,,,,,,,,,,,,,,,,,,,,,,images/exp1a_trial_29_colour2_distractors43_l.png,l,1,033,001,2021-04-26_16h03.28.769,searchDisc4,2020.2.10,Win32,60,,,space,0.115195,1,1,0.91254,,0,306,306,29,1,1a,29,2,43,
,,,,,,,,,,,,,,,,,,,,,,,,,,images/exp2c_trial_53_colour3_distractors19_r.png,r,2,033,001,2021-04-26_16h03.28.769,searchDisc4,2020.2.10,Win32,60,,,space,0.103465,2,1,0.528205,,0,307,307,509,1,2c,53,3,19,
,,,,,,,,,,,,,,,,,,,,,,,,,,images/exp2c_trial_100_colour2_distractors1_l.png,l,1,033,001,2021-04-26_16h03.28.769,searchDisc4,2020.2.10,Win32,60,,,space,0.095135,1,1,0.508005,,0,308,308,556,1,2c,100,2,1,
,,,,,,,,,,,,,,,,,,,,,,,,,,images/exp1a_trial_97_colour1_distractors19_l.png,l,1,033,001,2021-04-26_16h03.28.769,searchDisc4,2020.2.10,Win32,60,,,space,0.10256,1,1,0.72277,,0,309,309,97,1,1a,97,1,19,
,,,,,,,,,,,,,,,,,,,,,,,,,,images/exp2c_trial_3_colour1_distractors19_r.png,r,2,033,001,2021-04-26_16h03.28.769,searchDisc4,2020.2.10,Win32,60,,,space,0.04442,2,1,0.502965,,0,310,310,459,1,2c,3,1,19,
,,,,,,,,,,,,,,,,,,,,,,,,,,images/exp2c_trial_35_colour3_distractors43_l.png,l,1,033,001,2021-04-26_16h03.28.769,searchDisc4,2020.2.10,Win32,60,,,space,0.09473,1,1,0.477005,,0,311,311,491,1,2c,35,3,43,
,,,,,,,,,,,,,,,,,,,,,,,,,,images/exp2a_trial_82_colour2_distractors1_r.png,r,2,033,001,2021-04-26_16h03.28.769,searchDisc4,2020.2.10,Win32,60,,,space,0.091965,2,1,0.45589,,0,312,312,310,1,2a,82,2,1,
,,,,,,,,,,,,,,,,,,,,,,,,,,images/exp2a_trial_6_colour2_distractors1_r.png,r,2,033,001,2021-04-26_16h03.28.769,searchDisc4,2020.2.10,Win32,60,,,space,0.090225,2,1,0.440215,,0,313,313,234,1,2a,6,2,1,
,,,,,,,,,,,,,,,,,,,,,,,,,,images/exp1b_trial_27_colour2_distractors19_l.png,l,1,033,001,2021-04-26_16h03.28.769,searchDisc4,2020.2.10,Win32,60,,,space,0.111385,1,1,0.754585,,0,314,314,141,1,1b,27,2,19,
,,,,,,,,,,,,,,,,,,,,,,,,,,images/exp2b_trial_110_colour3_distractors31_l.png,l,1,033,001,2021-04-26_16h03.28.769,searchDisc4,2020.2.10,Win32,60,,,space,0.097245,1,1,0.47945,,0,315,315,452,1,2b,110,3,31,
,,,,,,,,,,,,,,,,,,,,,,,,,,images/exp1b_trial_11_colour2_distractors43_r.png,r,2,033,001,2021-04-26_16h03.28.769,searchDisc4,2020.2.10,Win32,60,,,space,0.145965,2,1,0.53415,,0,316,316,125,1,1b,11,2,43,
,,,,,,,,,,,,,,,,,,,,,,,,,,images/exp2c_trial_95_colour1_distractors4_l.png,l,1,033,001,2021-04-26_16h03.28.769,searchDisc4,2020.2.10,Win32,60,,,space,0.27419,1,1,0.499015,,0,317,317,551,1,2c,95,1,4,
,,,,,,,,,,,,,,,,,,,,,,,,,,images/exp2c_trial_27_colour2_distractors19_l.png,l,1,033,001,2021-04-26_16h03.28.769,searchDisc4,2020.2.10,Win32,60,,,space,0.070655,1,1,0.719465,,0,318,318,483,1,2c,27,2,19,
,,,,,,,,,,,,,,,,,,,,,,,,,,images/exp1b_trial_28_colour2_distractors31_l.png,l,1,033,001,2021-04-26_16h03.28.769,searchDisc4,2020.2.10,Win32,60,,,space,0.06411,1,1,0.54281,,0,319,319,142,1,1b,28,2,31,
,,,,,,,,,,,,,,,,,,,,,,,,,,images/exp2c_trial_50_colour3_distractors1_r.png,r,2,033,001,2021-04-26_16h03.28.769,searchDisc4,2020.2.10,Win32,60,,,space,0.26184,2,1,0.46342,,0,320,320,506,1,2c,50,3,1,
,,,,,,,,,,,,,,,,,,,,,,,,,,images/exp2a_trial_111_colour3_distractors43_l.png,l,1,033,001,2021-04-26_16h03.28.769,searchDisc4,2020.2.10,Win32,60,,,space,0.12849,1,1,0.41198,,0,321,321,339,1,2a,111,3,43,
,,,,,,,,,,,,,,,,,,,,,,,,,,images/exp2c_trial_91_colour3_distractors19_r.png,r,2,033,001,2021-04-26_16h03.28.769,searchDisc4,2020.2.10,Win32,60,,,space,0.0985,1,0,0.475905,,0,322,322,547,1,2c,91,3,19,
,,,,,,,,,,,,,,,,,,,,,,,,,,images/exp2a_trial_71_colour3_distractors19_l.png,l,1,033,001,2021-04-26_16h03.28.769,searchDisc4,2020.2.10,Win32,60,,,space,0.44984,1,1,0.503185,,0,323,323,299,1,2a,71,3,19,
,,,,,,,,,,,,,,,,,,,,,,,,,,images/exp2a_trial_68_colour3_distractors1_l.png,l,1,033,001,2021-04-26_16h03.28.769,searchDisc4,2020.2.10,Win32,60,,,space,0.11737,1,1,0.460435,,0,324,324,296,1,2a,68,3,1,
,,,,,,,,,,,,,,,,,,,,,,,,,,images/exp2b_trial_107_colour3_distractors4_l.png,l,1,033,001,2021-04-26_16h03.28.769,searchDisc4,2020.2.10,Win32,60,,,space,0.071025,1,1,0.462685,,0,325,325,449,1,2b,107,3,4,
,,,,,,,,,,,,,,,,,,,,,,,,,,images/exp1a_trial_39_colour1_distractors4_r.png,r,2,033,001,2021-04-26_16h03.28.769,searchDisc4,2020.2.10,Win32,60,,,space,0.0825,2,1,0.44251,,0,326,326,39,1,1a,39,1,4,
,,,,,,,,,,,,,,,,,,,,,,,,,,images/exp2a_trial_20_colour1_distractors9_l.png,l,1,033,001,2021-04-26_16h03.28.769,searchDisc4,2020.2.10,Win32,60,,,space,0.21443,1,1,0.567295,,0,327,327,248,1,2a,20,1,9,
,,,,,,,,,,,,,,,,,,,,,,,,,,images/exp1a_trial_25_colour2_distractors4_l.png,l,1,033,001,2021-04-26_16h03.28.769,searchDisc4,2020.2.10,Win32,60,,,space,0.073685,1,1,0.694625,,0,328,328,25,1,1a,25,2,4,
,,,,,,,,,,,,,,,,,,,,,,,,,,images/exp1b_trial_51_colour3_distractors4_r.png,r,2,033,001,2021-04-26_16h03.28.769,searchDisc4,2020.2.10,Win32,60,,,space,0.04286,2,1,0.53729,,0,329,329,165,1,1b,51,3,4,
,,,,,,,,,,,,,,,,,,,,,,,,,,images/exp2a_trial_33_colour3_distractors19_l.png,l,1,033,001,2021-04-26_16h03.28.769,searchDisc4,2020.2.10,Win32,60,,,space,0.109175,1,1,0.438615,,0,330,330,261,1,2a,33,3,19,
,,,,,,,,,,,,,,,,,,,,,,,,,,images/exp2c_trial_17_colour3_distractors43_r.png,r,2,033,001,2021-04-26_16h03.28.769,searchDisc4,2020.2.10,Win32,60,,,space,0.102075,2,1,0.49332,,0,331,331,473,1,2c,17,3,43,
,,,,,,,,,,,,,,,,,,,,,,,,,,images/exp1a_trial_60_colour1_distractors31_l.png,l,1,033,001,2021-04-26_16h03.28.769,searchDisc4,2020.2.10,Win32,60,,,space,0.12271,1,1,0.459795,,0,332,332,60,1,1a,60,1,31,
,,,,,,,,,,,,,,,,,,,,,,,,,,images/exp1b_trial_32_colour3_distractors9_l.png,l,1,033,001,2021-04-26_16h03.28.769,searchDisc4,2020.2.10,Win32,60,,,space,0.178465,1,1,2.409465,,0,333,333,146,1,1b,32,3,9,
,,,,,,,,,,,,,,,,,,,,,,,,,,images/exp2a_trial_16_colour3_distractors31_r.png,r,2,033,001,2021-04-26_16h03.28.769,searchDisc4,2020.2.10,Win32,60,,,space,0.12547,2,1,0.801105,,0,334,334,244,1,2a,16,3,31,
,,,,,,,,,,,,,,,,,,,,,,,,,,images/exp2b_trial_63_colour2_distractors4_l.png,l,1,033,001,2021-04-26_16h03.28.769,searchDisc4,2020.2.10,Win32,60,,,space,0.11908,1,1,0.450385,,0,335,335,405,1,2b,63,2,4,
,,,,,,,,,,,,,,,,,,,,,,,,,,images/exp2c_trial_21_colour1_distractors19_l.png,l,1,033,001,2021-04-26_16h03.28.769,searchDisc4,2020.2.10,Win32,60,,,space,0.081675,1,1,0.53626,,0,336,336,477,1,2c,21,1,19,
,,,,,,,,,,,,,,,,,,,,,,,,,,images/exp2c_trial_68_colour3_distractors1_l.png,l,1,033,001,2021-04-26_16h03.28.769,searchDisc4,2020.2.10,Win32,60,,,space,0.065055,1,1,0.45409,,0,337,337,524,1,2c,68,3,1,
,,,,,,,,,,,,,,,,,,,,,,,,,,images/exp2c_trial_8_colour2_distractors9_r.png,r,2,033,001,2021-04-26_16h03.28.769,searchDisc4,2020.2.10,Win32,60,,,space,0.166425,1,0,0.49763,,0,338,338,464,1,2c,8,2,9,
,,,,,,,,,,,,,,,,,,,,,,,,,,images/exp2a_trial_80_colour1_distractors31_r.png,r,2,033,001,2021-04-26_16h03.28.769,searchDisc4,2020.2.10,Win32,60,,,space,0.438155,2,1,0.498045,,0,339,339,308,1,2a,80,1,31,
,,,,,,,,,,,,,,,,,,,,,,,,,,images/exp1b_trial_35_colour3_distractors43_l.png,l,1,033,001,2021-04-26_16h03.28.769,searchDisc4,2020.2.10,Win32,60,,,space,0.08289,1,1,4.118565,,0,340,340,149,1,1b,35,3,43,
,,,,,,,,,,,,,,,,,,,,,,,,,,images/exp2a_trial_2_colour1_distractors9_r.png,r,2,033,001,2021-04-26_16h03.28.769,searchDisc4,2020.2.10,Win32,60,,,space,0.132045,2,1,0.647535,,0,341,341,230,1,2a,2,1,9,
,,,,,,,,,,,,,,,,,,,,,,,,,,images/exp1b_trial_100_colour2_distractors1_l.png,l,1,033,001,2021-04-26_16h03.28.769,searchDisc4,2020.2.10,Win32,60,,,space,0.0598,1,1,0.527285,,0,342,342,214,1,1b,100,2,1,
,,,,,,,,,,,,,,,,,,,,,,,,,,images/exp2c_trial_26_colour2_distractors9_l.png,l,1,033,001,2021-04-26_16h03.28.769,searchDisc4,2020.2.10,Win32,60,,,space,0.068735,2,0,0.00844,,0,343,343,482,1,2c,26,2,9,
,,,,,,,,,,,,,,,,,,,,,,,,,,images/exp2a_trial_107_colour3_distractors4_l.png,l,1,033,001,2021-04-26_16h03.28.769,searchDisc4,2020.2.10,Win32,60,,,space,0.91629,1,1,0.459865,,0,344,344,335,1,2a,107,3,4,
,,,,,,,,,,,,,,,,,,,,,,,,,,images/exp1b_trial_1_colour1_distractors4_r.png,r,2,033,001,2021-04-26_16h03.28.769,searchDisc4,2020.2.10,Win32,60,,,space,0.07441,2,1,0.521885,,0,345,345,115,1,1b,1,1,4,
,,,,,,,,,,,,,,,,,,,,,,,,,,images/exp1a_trial_10_colour2_distractors31_r.png,r,2,033,001,2021-04-26_16h03.28.769,searchDisc4,2020.2.10,Win32,60,,,space,0.07937,2,1,0.537085,,0,346,346,10,1,1a,10,2,31,
,,,,,,,,,,,,,,,,,,,,,,,,,,images/exp1b_trial_38_colour1_distractors1_r.png,r,2,033,001,2021-04-26_16h03.28.769,searchDisc4,2020.2.10,Win32,60,,,space,0.144385,2,1,0.575355,,0,347,347,152,1,1b,38,1,1,
,,,,,,,,,,,,,,,,,,,,,,,,,,images/exp2b_trial_105_colour2_distractors43_l.png,l,1,033,001,2021-04-26_16h03.28.769,searchDisc4,2020.2.10,Win32,60,,,space,0.09376,1,1,0.53412,,0,348,348,447,1,2b,105,2,43,
,,,,,,,,,,,,,,,,,,,,,,,,,,images/exp2a_trial_94_colour1_distractors1_l.png,l,1,033,001,2021-04-26_16h03.28.769,searchDisc4,2020.2.10,Win32,60,,,space,0.09306,1,1,0.464295,,0,349,349,322,1,2a,94,1,1,
,,,,,,,,,,,,,,,,,,,,,,,,,,images/exp2a_trial_30_colour3_distractors1_l.png,l,1,033,001,2021-04-26_16h03.28.769,searchDisc4,2020.2.10,Win32,60,,,space,0.139815,1,1,0.54898,,0,350,350,258,1,2a,30,3,1,
,,,,,,,,,,,,,,,,,,,,,,,,,,images/exp1a_trial_22_colour1_distractors31_l.png,l,1,033,001,2021-04-26_16h03.28.769,searchDisc4,2020.2.10,Win32,60,,,space,0.173765,1,1,0.47116,,0,351,351,22,1,1a,22,1,31,
,,,,,,,,,,,,,,,,,,,,,,,,,,images/exp1b_trial_68_colour3_distractors1_l.png,l,1,033,001,2021-04-26_16h03.28.769,searchDisc4,2020.2.10,Win32,60,,,space,0.14661,1,1,0.527875,,0,352,352,182,1,1b,68,3,1,
,,,,,,,,,,,,,,,,,,,,,,,,,,images/exp2b_trial_43_colour1_distractors43_r.png,r,2,033,001,2021-04-26_16h03.28.769,searchDisc4,2020.2.10,Win32,60,,,space,0.2233,2,1,0.51505,,0,353,353,385,1,2b,43,1,43,
,,,,,,,,,,,,,,,,,,,,,,,,,,images/exp2b_trial_57_colour1_distractors4_l.png,l,1,033,001,2021-04-26_16h03.28.769,searchDisc4,2020.2.10,Win32,60,,,space,0.125735,2,0,0.5264,,0,354,354,399,1,2b,57,1,4,
,,,,,,,,,,,,,,,,,,,,,,,,,,images/exp1a_trial_73_colour3_distractors43_l.png,l,1,033,001,2021-04-26_16h03.28.769,searchDisc4,2020.2.10,Win32,60,,,space,0.47234,1,1,0.46196,,0,355,355,73,1,1a,73,3,43,
,,,,,,,,,,,,,,,,,,,,,,,,,,images/exp1b_trial_76_colour1_distractors1_r.png,r,2,033,001,2021-04-26_16h03.28.769,searchDisc4,2020.2.10,Win32,60,,,space,0.14437,2,1,0.49329,,0,356,356,190,1,1b,76,1,1,
,,,,,,,,,,,,,,,,,,,,,,,,,,images/exp2a_trial_74_colour0_distractors0_r.png,r,2,033,001,2021-04-26_16h03.28.769,searchDisc4,2020.2.10,Win32,60,,,space,0.182335,2,1,0.556805,,0,357,357,302,1,2a,74,0,0,
,,,,,,,,,,,,,,,,,,,,,,,,,,images/exp2a_trial_58_colour1_distractors9_l.png,l,1,033,001,2021-04-26_16h03.28.769,searchDisc4,2020.2.10,Win32,60,,,space,0.158925,1,1,0.528515,,0,358,358,286,1,2a,58,1,9,
,,,,,,,,,,,,,,,,,,,,,,,,,,images/exp1a_trial_35_colour3_distractors43_l.png,l,1,033,001,2021-04-26_16h03.28.769,searchDisc4,2020.2.10,Win32,60,,,space,0.14497,1,1,0.59438,space,0,359,359,35,1,1a,35,3,43,0.083635
,,,,,,,,,,,,,,,,,,,,,,,,,,images/exp2c_trial_65_colour2_distractors19_l.png,l,1,033,001,2021-04-26_16h03.28.769,searchDisc4,2020.2.10,Win32,60,,,space,0.6327,1,1,0.52957,,0,360,360,521,1,2c,65,2,19,
,,,,,,,,,,,,,,,,,,,,,,,,,,images/exp1a_trial_51_colour3_distractors4_r.png,r,2,033,001,2021-04-26_16h03.28.769,searchDisc4,2020.2.10,Win32,60,,,space,0.142135,2,1,0.47335,,0,361,361,51,1,1a,51,3,4,
,,,,,,,,,,,,,,,,,,,,,,,,,,images/exp2b_trial_59_colour1_distractors19_l.png,l,1,033,001,2021-04-26_16h03.28.769,searchDisc4,2020.2.10,Win32,60,,,space,0.121355,1,1,0.543405,,0,362,362,401,1,2b,59,1,19,
,,,,,,,,,,,,,,,,,,,,,,,,,,images/exp1a_trial_103_colour2_distractors19_l.png,l,1,033,001,2021-04-26_16h03.28.769,searchDisc4,2020.2.10,Win32,60,,,space,0.07498,2,0,0.537895,,0,363,363,103,1,1a,103,2,19,
,,,,,,,,,,,,,,,,,,,,,,,,,,images/exp2c_trial_98_colour1_distractors31_l.png,l,1,033,001,2021-04-26_16h03.28.769,searchDisc4,2020.2.10,Win32,60,,,space,0.22604,1,1,0.423415,,0,364,364,554,1,2c,98,1,31,
,,,,,,,,,,,,,,,,,,,,,,,,,,images/exp2a_trial_12_colour3_distractors1_r.png,r,2,033,001,2021-04-26_16h03.28.769,searchDisc4,2020.2.10,Win32,60,,,space,0.144515,2,1,0.510485,,0,365,365,240,1,2a,12,3,1,
,,,,,,,,,,,,,,,,,,,,,,,,,,images/exp2a_trial_53_colour3_distractors19_r.png,r,2,033,001,2021-04-26_16h03.28.769,searchDisc4,2020.2.10,Win32,60,,,space,0.104755,2,1,0.65189,,0,366,366,281,1,2a,53,3,19,
,,,,,,,,,,,,,,,,,,,,,,,,,,images/exp2b_trial_83_colour2_distractors4_r.png,r,2,033,001,2021-04-26_16h03.28.769,searchDisc4,2020.2.10,Win32,60,,,space,0.082315,2,1,0.576805,,0,367,367,425,1,2b,83,2,4,
,,,,,,,,,,,,,,,,,,,,,,,,,,images/exp2a_trial_31_colour3_distractors4_l.png,l,1,033,001,2021-04-26_16h03.28.769,searchDisc4,2020.2.10,Win32,60,,,space,0.133425,1,1,0.4317,,0,368,368,259,1,2a,31,3,4,
,,,,,,,,,,,,,,,,,,,,,,,,,,images/exp1a_trial_75_colour0_distractors0_l.png,l,1,033,001,2021-04-26_16h03.28.769,searchDisc4,2020.2.10,Win32,60,,,space,0.10983,1,1,0.480815,,0,369,369,75,1,1a,75,0,0,
,,,,,,,,,,,,,,,,,,,,,,,,,,images/exp2b_trial_66_colour2_distractors31_l.png,l,1,033,001,2021-04-26_16h03.28.769,searchDisc4,2020.2.10,Win32,60,,,space,0.05747,2,0,0.60296,,0,370,370,408,1,2b,66,2,31,
,,,,,,,,,,,,,,,,,,,,,,,,,,images/exp2a_trial_98_colour1_distractors31_l.png,l,1,033,001,2021-04-26_16h03.28.769,searchDisc4,2020.2.10,Win32,60,,,space,0.408275,1,1,0.523825,,0,371,371,326,1,2a,98,1,31,
,,,,,,,,,,,,,,,,,,,,,,,,,,images/exp1a_trial_46_colour2_distractors9_r.png,r,2,033,001,2021-04-26_16h03.28.769,searchDisc4,2020.2.10,Win32,60,,,space,0.066865,2,1,0.43096,,0,372,372,46,1,1a,46,2,9,
,,,,,,,,,,,,,,,,,,,,,,,,,,images/exp2c_trial_44_colour2_distractors1_r.png,r,2,033,001,2021-04-26_16h03.28.769,searchDisc4,2020.2.10,Win32,60,,,space,0.10102,2,1,0.544845,,0,373,373,500,1,2c,44,2,1,
,,,,,,,,,,,,,,,,,,,,,,,,,,images/exp2b_trial_60_colour1_distractors31_l.png,l,1,033,001,2021-04-26_16h03.28.769,searchDisc4,2020.2.10,Win32,60,,,space,0.0802,1,1,0.46969,,0,374,374,402,1,2b,60,1,31,
,,,,,,,,,,,,,,,,,,,,,,,,,,images/exp1b_trial_96_colour1_distractors9_l.png,l,1,033,001,2021-04-26_16h03.28.769,searchDisc4,2020.2.10,Win32,60,,,space,0.082315,1,1,0.73756,,0,375,375,210,1,1b,96,1,9,
,,,,,,,,,,,,,,,,,,,,,,,,,,images/exp1b_trial_113_colour0_distractors0_l.png,l,1,033,001,2021-04-26_16h03.28.769,searchDisc4,2020.2.10,Win32,60,,,space,0.07684,1,1,0.498735,,0,376,376,227,1,1b,113,0,0,
,,,,,,,,,,,,,,,,,,,,,,,,,,images/exp1b_trial_64_colour2_distractors9_l.png,l,1,033,001,2021-04-26_16h03.28.769,searchDisc4,2020.2.10,Win32,60,,,space,0.01171,1,1,0.62784,,0,377,377,178,1,1b,64,2,9,
,,,,,,,,,,,,,,,,,,,,,,,,,,images/exp2a_trial_109_colour3_distractors19_l.png,l,1,033,001,2021-04-26_16h03.28.769,searchDisc4,2020.2.10,Win32,60,,,space,0.10306,1,1,0.466215,,0,378,378,337,1,2a,109,3,19,
,,,,,,,,,,,,,,,,,,,,,,,,,,images/exp1b_trial_30_colour3_distractors1_l.png,l,1,033,001,2021-04-26_16h03.28.769,searchDisc4,2020.2.10,Win32,60,,,space,0.12704,1,1,0.51188,,0,379,379,144,1,1b,30,3,1,
,,,,,,,,,,,,,,,,,,,,,,,,,,images/exp2b_trial_36_colour0_distractors0_r.png,r,2,033,001,2021-04-26_16h03.28.769,searchDisc4,2020.2.10,Win32,60,,,space,0.012855,2,1,0.546935,,0,380,380,378,1,2b,36,0,0,
,,,,,,,,,,,,,,,,,,,,,,,,,,images/exp2c_trial_87_colour2_distractors43_r.png,r,2,033,001,2021-04-26_16h03.28.769,searchDisc4,2020.2.10,Win32,60,,,space,0.116235,2,1,0.502075,,0,381,381,543,1,2c,87,2,43,
,,,,,,,,,,,,,,,,,,,,,,,,,,images/exp1b_trial_99_colour1_distractors43_l.png,l,1,033,001,2021-04-26_16h03.28.769,searchDisc4,2020.2.10,Win32,60,,,space,0.11689,1,1,0.579785,,0,382,382,213,1,1b,99,1,43,
,,,,,,,,,,,,,,,,,,,,,,,,,,images/exp2a_trial_89_colour3_distractors4_r.png,r,2,033,001,2021-04-26_16h03.28.769,searchDisc4,2020.2.10,Win32,60,,,space,0.098425,2,1,0.507295,,0,383,383,317,1,2a,89,3,4,
,,,,,,,,,,,,,,,,,,,,,,,,,,images/exp2b_trial_47_colour2_distractors19_r.png,r,2,033,001,2021-04-26_16h03.28.769,searchDisc4,2020.2.10,Win32,60,,,space,0.16481,1,0,0.406095,,0,384,384,389,1,2b,47,2,19,
,,,,,,,,,,,,,,,,,,,,,,,,,,images/exp1b_trial_92_colour3_distractors31_r.png,r,2,033,001,2021-04-26_16h03.28.769,searchDisc4,2020.2.10,Win32,60,,,space,0.340285,2,1,1.109735,,0,385,385,206,1,1b,92,3,31,
,,,,,,,,,,,,,,,,,,,,,,,,,,images/exp2c_trial_74_colour0_distractors0_r.png,r,2,033,001,2021-04-26_16h03.28.769,searchDisc4,2020.2.10,Win32,60,,,space,0.07093,2,1,0.433605,,0,386,386,530,1,2c,74,0,0,
,,,,,,,,,,,,,,,,,,,,,,,,,,images/exp1a_trial_106_colour3_distractors1_l.png,l,1,033,001,2021-04-26_16h03.28.769,searchDisc4,2020.2.10,Win32,60,,,space,0.132335,1,1,0.43334,,0,387,387,106,1,1a,106,3,1,
,,,,,,,,,,,,,,,,,,,,,,,,,,images/exp2a_trial_9_colour2_distractors19_r.png,r,2,033,001,2021-04-26_16h03.28.769,searchDisc4,2020.2.10,Win32,60,,,space,0.10556,2,1,0.44668,,0,388,388,237,1,2a,9,2,19,
,,,,,,,,,,,,,,,,,,,,,,,,,,images/exp2b_trial_58_colour1_distractors9_l.png,l,1,033,001,2021-04-26_16h03.28.769,searchDisc4,2020.2.10,Win32,60,,,space,0.10328,1,1,0.454825,,0,389,389,400,1,2b,58,1,9,
,,,,,,,,,,,,,,,,,,,,,,,,,,images/exp2a_trial_34_colour3_distractors31_l.png,l,1,033,001,2021-04-26_16h03.28.769,searchDisc4,2020.2.10,Win32,60,,,space,0.202835,1,1,0.588275,,0,390,390,262,1,2a,34,3,31,
,,,,,,,,,,,,,,,,,,,,,,,,,,images/exp1a_trial_12_colour3_distractors1_r.png,r,2,033,001,2021-04-26_16h03.28.769,searchDisc4,2020.2.10,Win32,60,,,space,0.028615,2,1,0.66205,,0,391,391,12,1,1a,12,3,1,
,,,,,,,,,,,,,,,,,,,,,,,,,,images/exp1b_trial_44_colour2_distractors1_r.png,r,2,033,001,2021-04-26_16h03.28.769,searchDisc4,2020.2.10,Win32,60,,,space,0.0696,2,1,0.48166,,0,392,392,158,1,1b,44,2,1,
,,,,,,,,,,,,,,,,,,,,,,,,,,images/exp2b_trial_48_colour2_distractors31_r.png,r,2,033,001,2021-04-26_16h03.28.769,searchDisc4,2020.2.10,Win32,60,,,space,0.07651,2,1,0.474795,,0,393,393,390,1,2b,48,2,31,
,,,,,,,,,,,,,,,,,,,,,,,,,,images/exp2b_trial_54_colour3_distractors31_r.png,r,2,033,001,2021-04-26_16h03.28.769,searchDisc4,2020.2.10,Win32,60,,,space,0.132355,2,1,0.72491,,0,394,394,396,1,2b,54,3,31,
,,,,,,,,,,,,,,,,,,,,,,,,,,images/exp1a_trial_85_colour2_distractors19_r.png,r,2,033,001,2021-04-26_16h03.28.769,searchDisc4,2020.2.10,Win32,60,,,space,0.07752,2,1,0.67893,,0,395,395,85,1,1a,85,2,19,
,,,,,,,,,,,,,,,,,,,,,,,,,,images/exp2c_trial_83_colour2_distractors4_r.png,r,2,033,001,2021-04-26_16h03.28.769,searchDisc4,2020.2.10,Win32,60,,,space,0.055655,2,1,0.471445,,0,396,396,539,1,2c,83,2,4,
,,,,,,,,,,,,,,,,,,,,,,,,,,images/exp2b_trial_2_colour1_distractors9_r.png,r,2,033,001,2021-04-26_16h03.28.769,searchDisc4,2020.2.10,Win32,60,,,space,0.129825,2,1,0.534615,,0,397,397,344,1,2b,2,1,9,
,,,,,,,,,,,,,,,,,,,,,,,,,,images/exp2a_trial_4_colour1_distractors31_r.png,r,2,033,001,2021-04-26_16h03.28.769,searchDisc4,2020.2.10,Win32,60,,,space,0.124985,2,1,0.5151,,0,398,398,232,1,2a,4,1,31,
,,,,,,,,,,,,,,,,,,,,,,,,,,images/exp2a_trial_44_colour2_distractors1_r.png,r,2,033,001,2021-04-26_16h03.28.769,searchDisc4,2020.2.10,Win32,60,,,space,0.125275,2,1,0.505205,,0,399,399,272,1,2a,44,2,1,
,,,,,,,,,,,,,,,,,,,,,,,,,,images/exp1a_trial_57_colour1_distractors4_l.png,l,1,033,001,2021-04-26_16h03.28.769,searchDisc4,2020.2.10,Win32,60,,,space,0.097755,1,1,0.50769,,0,400,400,57,1,1a,57,1,4,
,,,,,,,,,,,,,,,,,,,,,,,,,,images/exp2a_trial_52_colour3_distractors9_r.png,r,2,033,001,2021-04-26_16h03.28.769,searchDisc4,2020.2.10,Win32,60,,,space,0.09722,2,1,0.459365,,0,401,401,280,1,2a,52,3,9,
,,,,,,,,,,,,,,,,,,,,,,,,,,images/exp2b_trial_73_colour3_distractors43_l.png,l,1,033,001,2021-04-26_16h03.28.769,searchDisc4,2020.2.10,Win32,60,,,space,0.136565,1,1,0.56395,,0,402,402,415,1,2b,73,3,43,
,,,,,,,,,,,,,,,,,,,,,,,,,,images/exp2a_trial_17_colour3_distractors43_r.png,r,2,033,001,2021-04-26_16h03.28.769,searchDisc4,2020.2.10,Win32,60,,,space,0.072685,2,1,0.486895,,0,403,403,245,1,2a,17,3,43,
,,,,,,,,,,,,,,,,,,,,,,,,,,images/exp2b_trial_92_colour3_distractors31_r.png,r,2,033,001,2021-04-26_16h03.28.769,searchDisc4,2020.2.10,Win32,60,,,space,0.104325,2,1,0.52712,,0,404,404,434,1,2b,92,3,31,
,,,,,,,,,,,,,,,,,,,,,,,,,,images/exp2b_trial_30_colour3_distractors1_l.png,l,1,033,001,2021-04-26_16h03.28.769,searchDisc4,2020.2.10,Win32,60,,,space,0.04796,1,1,0.50076,,0,405,405,372,1,2b,30,3,1,
,,,,,,,,,,,,,,,,,,,,,,,,,,images/exp2a_trial_40_colour1_distractors9_r.png,r,2,033,001,2021-04-26_16h03.28.769,searchDisc4,2020.2.10,Win32,60,,,space,0.064045,1,0,0.514995,,0,406,406,268,1,2a,40,1,9,
,,,,,,,,,,,,,,,,,,,,,,,,,,images/exp2a_trial_41_colour1_distractors19_r.png,r,2,033,001,2021-04-26_16h03.28.769,searchDisc4,2020.2.10,Win32,60,,,space,0.024455,2,1,0.51909,,0,407,407,269,1,2a,41,1,19,
,,,,,,,,,,,,,,,,,,,,,,,,,,images/exp2c_trial_107_colour3_distractors4_l.png,l,1,033,001,2021-04-26_16h03.28.769,searchDisc4,2020.2.10,Win32,60,,,space,0.102125,2,0,0.451945,,0,408,408,563,1,2c,107,3,4,
,,,,,,,,,,,,,,,,,,,,,,,,,,images/exp1b_trial_106_colour3_distractors1_l.png,l,1,033,001,2021-04-26_16h03.28.769,searchDisc4,2020.2.10,Win32,60,,,space,0.42423,1,1,0.425835,,0,409,409,220,1,1b,106,3,1,
,,,,,,,,,,,,,,,,,,,,,,,,,,images/exp2a_trial_66_colour2_distractors31_l.png,l,1,033,001,2021-04-26_16h03.28.769,searchDisc4,2020.2.10,Win32,60,,,space,0.05567,1,1,0.6018,,0,410,410,294,1,2a,66,2,31,
,,,,,,,,,,,,,,,,,,,,,,,,,,images/exp1b_trial_60_colour1_distractors31_l.png,l,1,033,001,2021-04-26_16h03.28.769,searchDisc4,2020.2.10,Win32,60,,,space,0.02104,1,1,1.39558,,0,411,411,174,1,1b,60,1,31,
,,,,,,,,,,,,,,,,,,,,,,,,,,images/exp2b_trial_68_colour3_distractors1_l.png,l,1,033,001,2021-04-26_16h03.28.769,searchDisc4,2020.2.10,Win32,60,,,space,0.049465,1,1,0.59711,,0,412,412,410,1,2b,68,3,1,
,,,,,,,,,,,,,,,,,,,,,,,,,,images/exp1a_trial_76_colour1_distractors1_r.png,r,2,033,001,2021-04-26_16h03.28.769,searchDisc4,2020.2.10,Win32,60,,,space,0.053455,2,1,0.515085,,0,413,413,76,1,1a,76,1,1,
,,,,,,,,,,,,,,,,,,,,,,,,,,images/exp2a_trial_8_colour2_distractors9_r.png,r,2,033,001,2021-04-26_16h03.28.769,searchDisc4,2020.2.10,Win32,60,,,space,0.0649,2,1,0.47573,,0,414,414,236,1,2a,8,2,9,
,,,,,,,,,,,,,,,,,,,,,,,,,,images/exp2c_trial_59_colour1_distractors19_l.png,l,1,033,001,2021-04-26_16h03.28.769,searchDisc4,2020.2.10,Win32,60,,,space,0.11815,1,1,0.49272,,0,415,415,515,1,2c,59,1,19,
,,,,,,,,,,,,,,,,,,,,,,,,,,images/exp2b_trial_99_colour1_distractors43_l.png,l,1,033,001,2021-04-26_16h03.28.769,searchDisc4,2020.2.10,Win32,60,,,space,0.028525,1,1,0.54135,,0,416,416,441,1,2b,99,1,43,
,,,,,,,,,,,,,,,,,,,,,,,,,,images/exp2b_trial_82_colour2_distractors1_r.png,r,2,033,001,2021-04-26_16h03.28.769,searchDisc4,2020.2.10,Win32,60,,,space,0.008895,2,1,0.56512,,0,417,417,424,1,2b,82,2,1,
,,,,,,,,,,,,,,,,,,,,,,,,,,images/exp1b_trial_15_colour3_distractors19_r.png,r,2,033,001,2021-04-26_16h03.28.769,searchDisc4,2020.2.10,Win32,60,,,space,0.069545,2,1,0.52566,,0,418,418,129,1,1b,15,3,19,
,,,,,,,,,,,,,,,,,,,,,,,,,,images/exp2c_trial_112_colour0_distractors0_r.png,r,2,033,001,2021-04-26_16h03.28.769,searchDisc4,2020.2.10,Win32,60,,,space,0.014725,2,1,0.489685,space,0,419,419,568,1,2c,112,0,0,0.14238
,,,,,,,,,,,,,,,,,,,,,,,,,,images/exp1a_trial_86_colour2_distractors31_r.png,r,2,033,001,2021-04-26_16h03.28.769,searchDisc4,2020.2.10,Win32,60,,,space,0.550875,2,1,0.432125,,0,420,420,86,1,1a,86,2,31,
,,,,,,,,,,,,,,,,,,,,,,,,,,images/exp2a_trial_99_colour1_distractors43_l.png,l,1,033,001,2021-04-26_16h03.28.769,searchDisc4,2020.2.10,Win32,60,,,space,0.085035,1,1,0.4651,,0,421,421,327,1,2a,99,1,43,
,,,,,,,,,,,,,,,,,,,,,,,,,,images/exp2b_trial_90_colour3_distractors9_r.png,r,2,033,001,2021-04-26_16h03.28.769,searchDisc4,2020.2.10,Win32,60,,,space,0.055735,2,1,0.576715,,0,422,422,432,1,2b,90,3,9,
,,,,,,,,,,,,,,,,,,,,,,,,,,images/exp2c_trial_105_colour2_distractors43_l.png,l,1,033,001,2021-04-26_16h03.28.769,searchDisc4,2020.2.10,Win32,60,,,space,0.06293,1,1,0.58855,,0,423,423,561,1,2c,105,2,43,
,,,,,,,,,,,,,,,,,,,,,,,,,,images/exp2a_trial_50_colour3_distractors1_r.png,r,2,033,001,2021-04-26_16h03.28.769,searchDisc4,2020.2.10,Win32,60,,,space,0.046305,2,1,0.452265,,0,424,424,278,1,2a,50,3,1,
,,,,,,,,,,,,,,,,,,,,,,,,,,images/exp2b_trial_33_colour3_distractors19_l.png,l,1,033,001,2021-04-26_16h03.28.769,searchDisc4,2020.2.10,Win32,60,,,space,0.05262,1,1,0.555085,,0,425,425,375,1,2b,33,3,19,
,,,,,,,,,,,,,,,,,,,,,,,,,,images/exp2b_trial_94_colour1_distractors1_l.png,l,1,033,001,2021-04-26_16h03.28.769,searchDisc4,2020.2.10,Win32,60,,,space,0.014155,1,1,0.56693,,0,426,426,436,1,2b,94,1,1,
,,,,,,,,,,,,,,,,,,,,,,,,,,images/exp2a_trial_23_colour1_distractors43_l.png,l,1,033,001,2021-04-26_16h03.28.769,searchDisc4,2020.2.10,Win32,60,,,space,0.02098,1,1,0.579545,,0,427,427,251,1,2a,23,1,43,
,,,,,,,,,,,,,,,,,,,,,,,,,,images/exp1b_trial_19_colour1_distractors4_l.png,l,1,033,001,2021-04-26_16h03.28.769,searchDisc4,2020.2.10,Win32,60,,,space,0.01409,1,1,0.58282,,0,428,428,133,1,1b,19,1,4,
,,,,,,,,,,,,,,,,,,,,,,,,,,images/exp2a_trial_104_colour2_distractors31_l.png,l,1,033,001,2021-04-26_16h03.28.769,searchDisc4,2020.2.10,Win32,60,,,space,0.0536,1,1,0.587615,,0,429,429,332,1,2a,104,2,31,
,,,,,,,,,,,,,,,,,,,,,,,,,,images/exp2c_trial_2_colour1_distractors9_r.png,r,2,033,001,2021-04-26_16h03.28.769,searchDisc4,2020.2.10,Win32,60,,,space,0.029875,2,1,0.48262,,0,430,430,458,1,2c,2,1,9,
,,,,,,,,,,,,,,,,,,,,,,,,,,images/exp2a_trial_55_colour3_distractors43_r.png,r,2,033,001,2021-04-26_16h03.28.769,searchDisc4,2020.2.10,Win32,60,,,space,0.062615,2,1,0.61991,,0,431,431,283,1,2a,55,3,43,
,,,,,,,,,,,,,,,,,,,,,,,,,,images/exp2b_trial_14_colour3_distractors9_r.png,r,2,033,001,2021-04-26_16h03.28.769,searchDisc4,2020.2.10,Win32,60,,,space,0.006845,2,1,0.637435,,0,432,432,356,1,2b,14,3,9,
,,,,,,,,,,,,,,,,,,,,,,,,,,images/exp2c_trial_99_colour1_distractors43_l.png,l,1,033,001,2021-04-26_16h03.28.769,searchDisc4,2020.2.10,Win32,60,,,space,0.00056,1,1,0.530085,,0,433,433,555,1,2c,99,1,43,
,,,,,,,,,,,,,,,,,,,,,,,,,,images/exp2b_trial_91_colour3_distractors19_r.png,r,2,033,001,2021-04-26_16h03.28.769,searchDisc4,2020.2.10,Win32,60,,,space,0.52739,1,0,0.423305,,0,434,434,433,1,2b,91,3,19,
,,,,,,,,,,,,,,,,,,,,,,,,,,images/exp2b_trial_79_colour1_distractors19_r.png,r,2,033,001,2021-04-26_16h03.28.769,searchDisc4,2020.2.10,Win32,60,,,space,0.383145,2,1,0.371655,,0,435,435,421,1,2b,79,1,19,
,,,,,,,,,,,,,,,,,,,,,,,,,,images/exp2b_trial_55_colour3_distractors43_r.png,r,2,033,001,2021-04-26_16h03.28.769,searchDisc4,2020.2.10,Win32,60,,,space,0.10978,2,1,0.38945,,0,436,436,397,1,2b,55,3,43,
,,,,,,,,,,,,,,,,,,,,,,,,,,images/exp1b_trial_37_colour0_distractors0_l.png,l,1,033,001,2021-04-26_16h03.28.769,searchDisc4,2020.2.10,Win32,60,,,space,0.100785,1,1,0.42949,,0,437,437,151,1,1b,37,0,0,
,,,,,,,,,,,,,,,,,,,,,,,,,,images/exp1b_trial_3_colour1_distractors19_r.png,r,2,033,001,2021-04-26_16h03.28.769,searchDisc4,2020.2.10,Win32,60,,,space,0.070295,2,1,0.69724,,0,438,438,117,1,1b,3,1,19,
,,,,,,,,,,,,,,,,,,,,,,,,,,images/exp2b_trial_1_colour1_distractors4_r.png,r,2,033,001,2021-04-26_16h03.28.769,searchDisc4,2020.2.10,Win32,60,,,space,0.0536,2,1,0.55907,,0,439,439,343,1,2b,1,1,4,
,,,,,,,,,,,,,,,,,,,,,,,,,,images/exp1a_trial_9_colour2_distractors19_r.png,r,2,033,001,2021-04-26_16h03.28.769,searchDisc4,2020.2.10,Win32,60,,,space,0.057535,2,1,0.489765,,0,440,440,9,1,1a,9,2,19,
,,,,,,,,,,,,,,,,,,,,,,,,,,images/exp2c_trial_66_colour2_distractors31_l.png,l,1,033,001,2021-04-26_16h03.28.769,searchDisc4,2020.2.10,Win32,60,,,space,0.04878,1,1,0.58396,,0,441,441,522,1,2c,66,2,31,
,,,,,,,,,,,,,,,,,,,,,,,,,,images/exp1a_trial_31_colour3_distractors4_l.png,l,1,033,001,2021-04-26_16h03.28.769,searchDisc4,2020.2.10,Win32,60,,,space,0.027695,1,1,0.57587,,0,442,442,31,1,1a,31,3,4,
,,,,,,,,,,,,,,,,,,,,,,,,,,images/exp2c_trial_76_colour1_distractors1_r.png,r,2,033,001,2021-04-26_16h03.28.769,searchDisc4,2020.2.10,Win32,60,,,space,0.026265,2,1,0.45919,,0,443,443,532,1,2c,76,1,1,
,,,,,,,,,,,,,,,,,,,,,,,,,,images/exp1a_trial_32_colour3_distractors9_l.png,l,1,033,001,2021-04-26_16h03.28.769,searchDisc4,2020.2.10,Win32,60,,,space,0.04369,1,1,0.49545,,0,444,444,32,1,1a,32,3,9,
,,,,,,,,,,,,,,,,,,,,,,,,,,images/exp1b_trial_52_colour3_distractors9_r.png,r,2,033,001,2021-04-26_16h03.28.769,searchDisc4,2020.2.10,Win32,60,,,space,0.06027,2,1,0.63539,,0,445,445,166,1,1b,52,3,9,
,,,,,,,,,,,,,,,,,,,,,,,,,,images/exp2c_trial_54_colour3_distractors31_r.png,r,2,033,001,2021-04-26_16h03.28.769,searchDisc4,2020.2.10,Win32,60,,,space,0.031215,2,1,0.614275,,0,446,446,510,1,2c,54,3,31,
,,,,,,,,,,,,,,,,,,,,,,,,,,images/exp2b_trial_113_colour0_distractors0_l.png,l,1,033,001,2021-04-26_16h03.28.769,searchDisc4,2020.2.10,Win32,60,,,space,0.01596,1,1,0.523555,,0,447,447,455,1,2b,113,0,0,
,,,,,,,,,,,,,,,,,,,,,,,,,,images/exp2a_trial_32_colour3_distractors9_l.png,l,1,033,001,2021-04-26_16h03.28.769,searchDisc4,2020.2.10,Win32,60,,,space,0.026605,1,1,0.53876,,0,448,448,260,1,2a,32,3,9,
,,,,,,,,,,,,,,,,,,,,,,,,,,images/exp2b_trial_27_colour2_distractors19_l.png,l,1,033,001,2021-04-26_16h03.28.769,searchDisc4,2020.2.10,Win32,60,,,space,0.019885,1,1,0.53521,,0,449,449,369,1,2b,27,2,19,
,,,,,,,,,,,,,,,,,,,,,,,,,,images/exp2a_trial_100_colour2_distractors1_l.png,l,1,033,001,2021-04-26_16h03.28.769,searchDisc4,2020.2.10,Win32,60,,,space,0.055025,1,1,0.501545,,0,450,450,328,1,2a,100,2,1,
,,,,,,,,,,,,,,,,,,,,,,,,,,images/exp2a_trial_73_colour3_distractors43_l.png,l,1,033,001,2021-04-26_16h03.28.769,searchDisc4,2020.2.10,Win32,60,,,space,0.057185,1,1,0.71176,,0,451,451,301,1,2a,73,3,43,
,,,,,,,,,,,,,,,,,,,,,,,,,,images/exp1a_trial_82_colour2_distractors1_r.png,r,2,033,001,2021-04-26_16h03.28.769,searchDisc4,2020.2.10,Win32,60,,,space,0.00791,2,1,1.14913,,0,452,452,82,1,1a,82,2,1,
,,,,,,,,,,,,,,,,,,,,,,,,,,images/exp2c_trial_28_colour2_distractors31_l.png,l,1,033,001,2021-04-26_16h03.28.769,searchDisc4,2020.2.10,Win32,60,,,space,0.07144,1,1,0.940405,,0,453,453,484,1,2c,28,2,31,
,,,,,,,,,,,,,,,,,,,,,,,,,,images/exp1a_trial_91_colour3_distractors19_r.png,r,2,033,001,2021-04-26_16h03.28.769,searchDisc4,2020.2.10,Win32,60,,,space,0.025725,2,1,0.95923,,0,454,454,91,1,1a,91,3,19,
,,,,,,,,,,,,,,,,,,,,,,,,,,images/exp2c_trial_33_colour3_distractors19_l.png,l,1,033,001,2021-04-26_16h03.28.769,searchDisc4,2020.2.10,Win32,60,,,space,0.000525,1,1,0.519805,,0,455,455,489,1,2c,33,3,19,
,,,,,,,,,,,,,,,,,,,,,,,,,,images/exp2b_trial_101_colour2_distractors4_l.png,l,1,033,001,2021-04-26_16h03.28.769,searchDisc4,2020.2.10,Win32,60,,,space,0.027885,2,0,0.553825,,0,456,456,443,1,2b,101,2,4,
,,,,,,,,,,,,,,,,,,,,,,,,,,images/exp2c_trial_92_colour3_distractors31_r.png,r,2,033,001,2021-04-26_16h03.28.769,searchDisc4,2020.2.10,Win32,60,,,space,0.38704,2,1,0.50718,,0,457,457,548,1,2c,92,3,31,
,,,,,,,,,,,,,,,,,,,,,,,,,,images/exp2a_trial_46_colour2_distractors9_r.png,r,2,033,001,2021-04-26_16h03.28.769,searchDisc4,2020.2.10,Win32,60,,,space,0.039725,2,1,0.633775,,0,458,458,274,1,2a,46,2,9,
,,,,,,,,,,,,,,,,,,,,,,,,,,images/exp2c_trial_43_colour1_distractors43_r.png,r,2,033,001,2021-04-26_16h03.28.769,searchDisc4,2020.2.10,Win32,60,,,space,0.01202,2,1,0.620815,,0,459,459,499,1,2c,43,1,43,
,,,,,,,,,,,,,,,,,,,,,,,,,,images/exp1b_trial_109_colour3_distractors19_l.png,l,1,033,001,2021-04-26_16h03.28.769,searchDisc4,2020.2.10,Win32,60,,,space,0.647045,1,1,0.62539,,0,460,460,223,1,1b,109,3,19,
,,,,,,,,,,,,,,,,,,,,,,,,,,images/exp1b_trial_112_colour0_distractors0_r.png,r,2,033,001,2021-04-26_16h03.28.769,searchDisc4,2020.2.10,Win32,60,,,space,0.644925,2,1,0.400435,,0,461,461,226,1,1b,112,0,0,
,,,,,,,,,,,,,,,,,,,,,,,,,,images/exp1a_trial_98_colour1_distractors31_l.png,l,1,033,001,2021-04-26_16h03.28.769,searchDisc4,2020.2.10,Win32,60,,,space,0.12982,1,1,0.46191,,0,462,462,98,1,1a,98,1,31,
,,,,,,,,,,,,,,,,,,,,,,,,,,images/exp1a_trial_77_colour1_distractors4_r.png,r,2,033,001,2021-04-26_16h03.28.769,searchDisc4,2020.2.10,Win32,60,,,space,0.11027,2,1,0.429795,,0,463,463,77,1,1a,77,1,4,
,,,,,,,,,,,,,,,,,,,,,,,,,,images/exp2c_trial_61_colour1_distractors43_l.png,l,1,033,001,2021-04-26_16h03.28.769,searchDisc4,2020.2.10,Win32,60,,,space,0.145855,1,1,0.582825,,0,464,464,517,1,2c,61,1,43,
,,,,,,,,,,,,,,,,,,,,,,,,,,images/exp1a_trial_66_colour2_distractors31_l.png,l,1,033,001,2021-04-26_16h03.28.769,searchDisc4,2020.2.10,Win32,60,,,space,0.150465,1,1,0.576725,,0,465,465,66,1,1a,66,2,31,
,,,,,,,,,,,,,,,,,,,,,,,,,,images/exp1b_trial_23_colour1_distractors43_l.png,l,1,033,001,2021-04-26_16h03.28.769,searchDisc4,2020.2.10,Win32,60,,,space,0.074515,1,1,0.63849,,0,466,466,137,1,1b,23,1,43,
,,,,,,,,,,,,,,,,,,,,,,,,,,images/exp2c_trial_79_colour1_distractors19_r.png,r,2,033,001,2021-04-26_16h03.28.769,searchDisc4,2020.2.10,Win32,60,,,space,0.010325,2,1,0.81461,,0,467,467,535,1,2c,79,1,19,
,,,,,,,,,,,,,,,,,,,,,,,,,,images/exp1b_trial_88_colour3_distractors1_r.png,r,2,033,001,2021-04-26_16h03.28.769,searchDisc4,2020.2.10,Win32,60,,,space,0.424195,2,1,0.84495,,0,468,468,202,1,1b,88,3,1,
,,,,,,,,,,,,,,,,,,,,,,,,,,images/exp1b_trial_53_colour3_distractors19_r.png,r,2,033,001,2021-04-26_16h03.28.769,searchDisc4,2020.2.10,Win32,60,,,space,0.06736,2,1,1.09815,,0,469,469,167,1,1b,53,3,19,
,,,,,,,,,,,,,,,,,,,,,,,,,,images/exp1b_trial_29_colour2_distractors43_l.png,l,1,033,001,2021-04-26_16h03.28.769,searchDisc4,2020.2.10,Win32,60,,,space,0.00528,1,1,1.037215,,0,470,470,143,1,1b,29,2,43,
,,,,,,,,,,,,,,,,,,,,,,,,,,images/exp1b_trial_42_colour1_distractors31_r.png,r,2,033,001,2021-04-26_16h03.28.769,searchDisc4,2020.2.10,Win32,60,,,space,0.034915,2,1,0.801835,,0,471,471,156,1,1b,42,1,31,
,,,,,,,,,,,,,,,,,,,,,,,,,,images/exp1a_trial_56_colour1_distractors1_l.png,l,1,033,001,2021-04-26_16h03.28.769,searchDisc4,2020.2.10,Win32,60,,,space,0.465475,1,1,0.646735,,0,472,472,56,1,1a,56,1,1,
,,,,,,,,,,,,,,,,,,,,,,,,,,images/exp2a_trial_75_colour0_distractors0_l.png,l,1,033,001,2021-04-26_16h03.28.769,searchDisc4,2020.2.10,Win32,60,,,space,0.032435,1,1,0.545695,,0,473,473,303,1,2a,75,0,0,
,,,,,,,,,,,,,,,,,,,,,,,,,,images/exp2a_trial_29_colour2_distractors43_l.png,l,1,033,001,2021-04-26_16h03.28.769,searchDisc4,2020.2.10,Win32,60,,,space,0.00064,1,1,0.5902,,0,474,474,257,1,2a,29,2,43,
,,,,,,,,,,,,,,,,,,,,,,,,,,images/exp1b_trial_83_colour2_distractors4_r.png,r,2,033,001,2021-04-26_16h03.28.769,searchDisc4,2020.2.10,Win32,60,,,space,0.01245,2,1,0.56784,,0,475,475,197,1,1b,83,2,4,
,,,,,,,,,,,,,,,,,,,,,,,,,,images/exp2b_trial_46_colour2_distractors9_r.png,r,2,033,001,2021-04-26_16h03.28.769,searchDisc4,2020.2.10,Win32,60,,,space,0.055765,2,1,0.63466,,0,476,476,388,1,2b,46,2,9,
