X Scale,Y Scale,key_resp_10.keys,key_resp_10.rt,key_resp_11.keys,key_resp_11.rt,key_resp_12.keys,key_resp_12.rt,key_resp_13.keys,key_resp_13.rt,key_resp_5.keys,key_resp_5.rt,key_resp_8.keys,key_resp_8.rt,key_resp_6.keys,key_resp_6.rt,key_resp_7.keys,key_resp_7.rt,key_resp_4.keys,key_resp_4.corr,key_resp_4.rt,trials_2.thisRepN,trials_2.thisTrialN,trials_2.thisN,trials_2.thisIndex,trials_2.ran,ImageFile,targ_side,correctAnswer,participant,session,date,expName,psychopyVersion,OS,frameRate,key_resp_3.keys,key_resp_3.rt,key_resp_9.keys,key_resp_9.rt,key_resp_2.keys,key_resp_2.corr,key_resp_2.rt,key_resp.keys,trials.thisRepN,trials.thisTrialN,trials.thisN,trials.thisIndex,trials.ran,exp,trial,colour,distNo,key_resp.rt
19.7,19.7,space,1.273085,space,0.925535,space,0.884155,space,0.865315,space,0.835645,space,0.66116,space,0.13225,space,0.381475,1,1,0.42581,0,0,0,16,1,Practice arrays/exp1a_trial_33_colour3_distractors19_l.png,l,1,034,001,2021-04-26_16h57.32.461,searchDisc4,2020.2.10,Win32,60,,,,,,,,,,,,,,,,,,
,,,,,,,,,,,,,,,,space,0.186875,2,1,0.38052,0,1,1,1,1,Practice arrays/exp1a_trial_3_colour1_distractors19_r.png,r,2,034,001,2021-04-26_16h57.32.461,searchDisc4,2020.2.10,Win32,60,,,,,,,,,,,,,,,,,,
,,,,,,,,,,,,,,,,space,0.204405,2,1,0.3989,0,2,2,4,1,Practice arrays/exp1a_trial_8_colour2_distractors9_r.png,r,2,034,001,2021-04-26_16h57.32.461,searchDisc4,2020.2.10,Win32,60,,,,,,,,,,,,,,,,,,
,,,,,,,,,,,,,,,,space,0.18116,2,1,0.677385,0,3,3,6,1,Practice arrays/exp1a_trial_12_colour3_distractors1_r.png,r,2,034,001,2021-04-26_16h57.32.461,searchDisc4,2020.2.10,Win32,60,,,,,,,,,,,,,,,,,,
,,,,,,,,,,,,,,,,space,0.2185,1,1,0.5202,0,4,4,19,1,Practice arrays/exp1a_trial_37_colour0_distractors0_l.png,l,1,034,001,2021-04-26_16h57.32.461,searchDisc4,2020.2.10,Win32,60,,,,,,,,,,,,,,,,,,
,,,,,,,,,,,,,,,,space,0.256925,2,1,0.709865,0,5,5,2,1,Practice arrays/exp1a_trial_5_colour1_distractors43_r.png,r,2,034,001,2021-04-26_16h57.32.461,searchDisc4,2020.2.10,Win32,60,,,,,,,,,,,,,,,,,,
,,,,,,,,,,,,,,,,space,0.273475,2,1,0.54976,0,6,6,7,1,Practice arrays/exp1a_trial_13_colour3_distractors4_r.png,r,2,034,001,2021-04-26_16h57.32.461,searchDisc4,2020.2.10,Win32,60,,,,,,,,,,,,,,,,,,
,,,,,,,,,,,,,,,,space,0.195955,1,1,0.46405,0,7,7,17,1,Practice arrays/exp1a_trial_35_colour3_distractors43_l.png,l,1,034,001,2021-04-26_16h57.32.461,searchDisc4,2020.2.10,Win32,60,,,,,,,,,,,,,,,,,,
,,,,,,,,,,,,,,,,space,0.154405,1,1,0.50733,0,8,8,13,1,Practice arrays/exp1a_trial_28_colour2_distractors31_l.png,l,1,034,001,2021-04-26_16h57.32.461,searchDisc4,2020.2.10,Win32,60,,,,,,,,,,,,,,,,,,
,,,,,,,,,,,,,,,,space,0.229745,1,1,0.508365,0,9,9,11,1,Practice arrays/exp1a_trial_21_colour1_distractors19_l.png,l,1,034,001,2021-04-26_16h57.32.461,searchDisc4,2020.2.10,Win32,60,,,,,,,,,,,,,,,,,,
,,,,,,,,,,,,,,,,space,0.237315,1,1,0.48659,0,10,10,14,1,Practice arrays/exp1a_trial_29_colour2_distractors43_l.png,l,1,034,001,2021-04-26_16h57.32.461,searchDisc4,2020.2.10,Win32,60,,,,,,,,,,,,,,,,,,
,,,,,,,,,,,,,,,,space,0.25302,2,1,0.551265,0,11,11,0,1,Practice arrays/exp1a_trial_0_colour1_distractors1_r.png,r,2,034,001,2021-04-26_16h57.32.461,searchDisc4,2020.2.10,Win32,60,,,,,,,,,,,,,,,,,,
,,,,,,,,,,,,,,,,space,0.22486,2,1,0.57703,0,12,12,3,1,Practice arrays/exp1a_trial_7_colour2_distractors4_r.png,r,2,034,001,2021-04-26_16h57.32.461,searchDisc4,2020.2.10,Win32,60,,,,,,,,,,,,,,,,,,
,,,,,,,,,,,,,,,,space,0.2711,2,1,0.436055,0,13,13,18,1,Practice arrays/exp1a_trial_36_colour0_distractors0_r.png,r,2,034,001,2021-04-26_16h57.32.461,searchDisc4,2020.2.10,Win32,60,,,,,,,,,,,,,,,,,,
,,,,,,,,,,,,,,,,space,0.20494,1,1,0.48946,0,14,14,15,1,Practice arrays/exp1a_trial_32_colour3_distractors9_l.png,l,1,034,001,2021-04-26_16h57.32.461,searchDisc4,2020.2.10,Win32,60,,,,,,,,,,,,,,,,,,
,,,,,,,,,,,,,,,,space,0.22276,1,1,0.466105,0,15,15,12,1,Practice arrays/exp1a_trial_25_colour2_distractors4_l.png,l,1,034,001,2021-04-26_16h57.32.461,searchDisc4,2020.2.10,Win32,60,,,,,,,,,,,,,,,,,,
,,,,,,,,,,,,,,,,space,0.186775,2,0,0.440255,0,16,16,10,1,Practice arrays/exp1a_trial_20_colour1_distractors9_l.png,l,1,034,001,2021-04-26_16h57.32.461,searchDisc4,2020.2.10,Win32,60,,,,,,,,,,,,,,,,,,
,,,,,,,,,,,,,,,,space,0.033115,1,1,0.42606,0,17,17,9,1,Practice arrays/exp1a_trial_19_colour1_distractors4_l.png,l,1,034,001,2021-04-26_16h57.32.461,searchDisc4,2020.2.10,Win32,60,,,,,,,,,,,,,,,,,,
,,,,,,,,,,,,,,,,space,0.132965,2,1,0.636255,0,18,18,8,1,Practice arrays/exp1a_trial_16_colour3_distractors31_r.png,r,2,034,001,2021-04-26_16h57.32.461,searchDisc4,2020.2.10,Win32,60,,,,,,,,,,,,,,,,,,
,,,,,,,,,,,,,,,,space,0.048735,2,1,0.721165,0,19,19,5,1,Practice arrays/exp1a_trial_10_colour2_distractors31_r.png,r,2,034,001,2021-04-26_16h57.32.461,searchDisc4,2020.2.10,Win32,60,,,,,,,,,,,,,,,,,,
,,,,,,,,,,,,,,,,,,,,,,,,,,images/exp2b_trial_98_colour1_distractors31_l.png,l,1,034,001,2021-04-26_16h57.32.461,searchDisc4,2020.2.10,Win32,60,space,155.70532,space,0.53008,1,1,0.51059,,0,0,0,440,1,2b,98,1,31,
,,,,,,,,,,,,,,,,,,,,,,,,,,images/exp1a_trial_20_colour1_distractors9_l.png,l,1,034,001,2021-04-26_16h57.32.461,searchDisc4,2020.2.10,Win32,60,,,space,0.364415,1,1,0.61825,,0,1,1,20,1,1a,20,1,9,
,,,,,,,,,,,,,,,,,,,,,,,,,,images/exp1b_trial_38_colour1_distractors1_r.png,r,2,034,001,2021-04-26_16h57.32.461,searchDisc4,2020.2.10,Win32,60,,,space,0.252455,1,0,0.54448,,0,2,2,152,1,1b,38,1,1,
,,,,,,,,,,,,,,,,,,,,,,,,,,images/exp2a_trial_92_colour3_distractors31_r.png,r,2,034,001,2021-04-26_16h57.32.461,searchDisc4,2020.2.10,Win32,60,,,space,0.364275,2,1,0.617225,,0,3,3,320,1,2a,92,3,31,
,,,,,,,,,,,,,,,,,,,,,,,,,,images/exp1b_trial_62_colour2_distractors1_l.png,l,1,034,001,2021-04-26_16h57.32.461,searchDisc4,2020.2.10,Win32,60,,,space,0.10439,1,1,0.84364,,0,4,4,176,1,1b,62,2,1,
,,,,,,,,,,,,,,,,,,,,,,,,,,images/exp1b_trial_13_colour3_distractors4_r.png,r,2,034,001,2021-04-26_16h57.32.461,searchDisc4,2020.2.10,Win32,60,,,space,0.136905,2,1,0.698975,,0,5,5,127,1,1b,13,3,4,
,,,,,,,,,,,,,,,,,,,,,,,,,,images/exp2a_trial_15_colour3_distractors19_r.png,r,2,034,001,2021-04-26_16h57.32.461,searchDisc4,2020.2.10,Win32,60,,,space,0.145955,2,1,0.65911,,0,6,6,243,1,2a,15,3,19,
,,,,,,,,,,,,,,,,,,,,,,,,,,images/exp1a_trial_112_colour0_distractors0_r.png,r,2,034,001,2021-04-26_16h57.32.461,searchDisc4,2020.2.10,Win32,60,,,space,0.069855,2,1,0.66155,,0,7,7,112,1,1a,112,0,0,
,,,,,,,,,,,,,,,,,,,,,,,,,,images/exp1a_trial_90_colour3_distractors9_r.png,r,2,034,001,2021-04-26_16h57.32.461,searchDisc4,2020.2.10,Win32,60,,,space,0.109555,2,1,0.622305,,0,8,8,90,1,1a,90,3,9,
,,,,,,,,,,,,,,,,,,,,,,,,,,images/exp2c_trial_25_colour2_distractors4_l.png,l,1,034,001,2021-04-26_16h57.32.461,searchDisc4,2020.2.10,Win32,60,,,space,0.04862,1,1,0.68635,,0,9,9,481,1,2c,25,2,4,
,,,,,,,,,,,,,,,,,,,,,,,,,,images/exp1b_trial_17_colour3_distractors43_r.png,r,2,034,001,2021-04-26_16h57.32.461,searchDisc4,2020.2.10,Win32,60,,,space,0.07507,2,1,2.042155,,0,10,10,131,1,1b,17,3,43,
,,,,,,,,,,,,,,,,,,,,,,,,,,images/exp2a_trial_25_colour2_distractors4_l.png,l,1,034,001,2021-04-26_16h57.32.461,searchDisc4,2020.2.10,Win32,60,,,space,0.06454,1,1,0.509055,,0,11,11,253,1,2a,25,2,4,
,,,,,,,,,,,,,,,,,,,,,,,,,,images/exp1b_trial_53_colour3_distractors19_r.png,r,2,034,001,2021-04-26_16h57.32.461,searchDisc4,2020.2.10,Win32,60,,,space,0.026345,2,1,0.85728,,0,12,12,167,1,1b,53,3,19,
,,,,,,,,,,,,,,,,,,,,,,,,,,images/exp2a_trial_1_colour1_distractors4_r.png,r,2,034,001,2021-04-26_16h57.32.461,searchDisc4,2020.2.10,Win32,60,,,space,0.029955,2,1,0.6359,,0,13,13,229,1,2a,1,1,4,
,,,,,,,,,,,,,,,,,,,,,,,,,,images/exp2b_trial_18_colour1_distractors1_l.png,l,1,034,001,2021-04-26_16h57.32.461,searchDisc4,2020.2.10,Win32,60,,,space,0.027855,1,1,0.501735,,0,14,14,360,1,2b,18,1,1,
,,,,,,,,,,,,,,,,,,,,,,,,,,images/exp2b_trial_48_colour2_distractors31_r.png,r,2,034,001,2021-04-26_16h57.32.461,searchDisc4,2020.2.10,Win32,60,,,space,0.02146,2,1,0.60923,,0,15,15,390,1,2b,48,2,31,
,,,,,,,,,,,,,,,,,,,,,,,,,,images/exp2a_trial_97_colour1_distractors19_l.png,l,1,034,001,2021-04-26_16h57.32.461,searchDisc4,2020.2.10,Win32,60,,,space,0.590645,1,1,0.511775,,0,16,16,325,1,2a,97,1,19,
,,,,,,,,,,,,,,,,,,,,,,,,,,images/exp2a_trial_49_colour2_distractors43_r.png,r,2,034,001,2021-04-26_16h57.32.461,searchDisc4,2020.2.10,Win32,60,,,space,0.00042,2,1,0.569325,,0,17,17,277,1,2a,49,2,43,
,,,,,,,,,,,,,,,,,,,,,,,,,,images/exp2c_trial_10_colour2_distractors31_r.png,r,2,034,001,2021-04-26_16h57.32.461,searchDisc4,2020.2.10,Win32,60,,,space,0.41491,2,1,0.45296,,0,18,18,466,1,2c,10,2,31,
,,,,,,,,,,,,,,,,,,,,,,,,,,images/exp1b_trial_110_colour3_distractors31_l.png,l,1,034,001,2021-04-26_16h57.32.461,searchDisc4,2020.2.10,Win32,60,,,space,0.0534,,0,,,0,19,19,224,1,1b,110,3,31,
,,,,,,,,,,,,,,,,,,,,,,,,,,images/exp1b_trial_22_colour1_distractors31_l.png,l,1,034,001,2021-04-26_16h57.32.461,searchDisc4,2020.2.10,Win32,60,,,space,0.555965,1,1,1.09981,,0,20,20,136,1,1b,22,1,31,
,,,,,,,,,,,,,,,,,,,,,,,,,,images/exp1a_trial_10_colour2_distractors31_r.png,r,2,034,001,2021-04-26_16h57.32.461,searchDisc4,2020.2.10,Win32,60,,,space,0.02691,2,1,0.649765,,0,21,21,10,1,1a,10,2,31,
,,,,,,,,,,,,,,,,,,,,,,,,,,images/exp2c_trial_9_colour2_distractors19_r.png,r,2,034,001,2021-04-26_16h57.32.461,searchDisc4,2020.2.10,Win32,60,,,space,0.00935,2,1,0.651055,,0,22,22,465,1,2c,9,2,19,
,,,,,,,,,,,,,,,,,,,,,,,,,,images/exp1b_trial_11_colour2_distractors43_r.png,r,2,034,001,2021-04-26_16h57.32.461,searchDisc4,2020.2.10,Win32,60,,,space,0.014745,2,1,0.64642,,0,23,23,125,1,1b,11,2,43,
,,,,,,,,,,,,,,,,,,,,,,,,,,images/exp1b_trial_92_colour3_distractors31_r.png,r,2,034,001,2021-04-26_16h57.32.461,searchDisc4,2020.2.10,Win32,60,,,space,0.01428,2,1,0.8343,,0,24,24,206,1,1b,92,3,31,
,,,,,,,,,,,,,,,,,,,,,,,,,,images/exp2a_trial_48_colour2_distractors31_r.png,r,2,034,001,2021-04-26_16h57.32.461,searchDisc4,2020.2.10,Win32,60,,,space,0.0714,2,1,0.673705,,0,25,25,276,1,2a,48,2,31,
,,,,,,,,,,,,,,,,,,,,,,,,,,images/exp2c_trial_48_colour2_distractors31_r.png,r,2,034,001,2021-04-26_16h57.32.461,searchDisc4,2020.2.10,Win32,60,,,space,0.02025,2,1,0.543765,,0,26,26,504,1,2c,48,2,31,
,,,,,,,,,,,,,,,,,,,,,,,,,,images/exp2a_trial_100_colour2_distractors1_l.png,l,1,034,001,2021-04-26_16h57.32.461,searchDisc4,2020.2.10,Win32,60,,,space,0.46802,1,1,0.73823,,0,27,27,328,1,2a,100,2,1,
,,,,,,,,,,,,,,,,,,,,,,,,,,images/exp1b_trial_107_colour3_distractors4_l.png,l,1,034,001,2021-04-26_16h57.32.461,searchDisc4,2020.2.10,Win32,60,,,space,0.01636,2,0,0.601555,,0,28,28,221,1,1b,107,3,4,
,,,,,,,,,,,,,,,,,,,,,,,,,,images/exp1b_trial_10_colour2_distractors31_r.png,r,2,034,001,2021-04-26_16h57.32.461,searchDisc4,2020.2.10,Win32,60,,,space,0.01548,2,1,0.581095,,0,29,29,124,1,1b,10,2,31,
,,,,,,,,,,,,,,,,,,,,,,,,,,images/exp1b_trial_8_colour2_distractors9_r.png,r,2,034,001,2021-04-26_16h57.32.461,searchDisc4,2020.2.10,Win32,60,,,space,0.072525,2,1,0.55072,,0,30,30,122,1,1b,8,2,9,
,,,,,,,,,,,,,,,,,,,,,,,,,,images/exp1a_trial_107_colour3_distractors4_l.png,l,1,034,001,2021-04-26_16h57.32.461,searchDisc4,2020.2.10,Win32,60,,,space,0.00054,1,1,0.51188,,0,31,31,107,1,1a,107,3,4,
,,,,,,,,,,,,,,,,,,,,,,,,,,images/exp2c_trial_68_colour3_distractors1_l.png,l,1,034,001,2021-04-26_16h57.32.461,searchDisc4,2020.2.10,Win32,60,,,space,0.041765,1,1,0.459985,,0,32,32,524,1,2c,68,3,1,
,,,,,,,,,,,,,,,,,,,,,,,,,,images/exp1a_trial_101_colour2_distractors4_l.png,l,1,034,001,2021-04-26_16h57.32.461,searchDisc4,2020.2.10,Win32,60,,,space,0.11799,1,1,0.753415,,0,33,33,101,1,1a,101,2,4,
,,,,,,,,,,,,,,,,,,,,,,,,,,images/exp2b_trial_67_colour2_distractors43_l.png,l,1,034,001,2021-04-26_16h57.32.461,searchDisc4,2020.2.10,Win32,60,,,space,0.083925,1,1,0.53929,,0,34,34,409,1,2b,67,2,43,
,,,,,,,,,,,,,,,,,,,,,,,,,,images/exp1a_trial_91_colour3_distractors19_r.png,r,2,034,001,2021-04-26_16h57.32.461,searchDisc4,2020.2.10,Win32,60,,,space,0.015915,2,1,0.624715,,0,35,35,91,1,1a,91,3,19,
,,,,,,,,,,,,,,,,,,,,,,,,,,images/exp1a_trial_72_colour3_distractors31_l.png,l,1,034,001,2021-04-26_16h57.32.461,searchDisc4,2020.2.10,Win32,60,,,space,0.033455,1,1,0.6755,,0,36,36,72,1,1a,72,3,31,
,,,,,,,,,,,,,,,,,,,,,,,,,,images/exp1a_trial_81_colour1_distractors43_r.png,r,2,034,001,2021-04-26_16h57.32.461,searchDisc4,2020.2.10,Win32,60,,,space,0.038255,2,1,0.620835,,0,37,37,81,1,1a,81,1,43,
,,,,,,,,,,,,,,,,,,,,,,,,,,images/exp2a_trial_47_colour2_distractors19_r.png,r,2,034,001,2021-04-26_16h57.32.461,searchDisc4,2020.2.10,Win32,60,,,space,0.053385,2,1,0.545545,,0,38,38,275,1,2a,47,2,19,
,,,,,,,,,,,,,,,,,,,,,,,,,,images/exp2a_trial_17_colour3_distractors43_r.png,r,2,034,001,2021-04-26_16h57.32.461,searchDisc4,2020.2.10,Win32,60,,,space,0.002545,2,1,0.5975,,0,39,39,245,1,2a,17,3,43,
,,,,,,,,,,,,,,,,,,,,,,,,,,images/exp1a_trial_83_colour2_distractors4_r.png,r,2,034,001,2021-04-26_16h57.32.461,searchDisc4,2020.2.10,Win32,60,,,space,0.01828,2,1,0.624575,,0,40,40,83,1,1a,83,2,4,
,,,,,,,,,,,,,,,,,,,,,,,,,,images/exp1a_trial_102_colour2_distractors9_l.png,l,1,034,001,2021-04-26_16h57.32.461,searchDisc4,2020.2.10,Win32,60,,,space,0.00035,1,1,0.738545,,0,41,41,102,1,1a,102,2,9,
,,,,,,,,,,,,,,,,,,,,,,,,,,images/exp1b_trial_2_colour1_distractors9_r.png,r,2,034,001,2021-04-26_16h57.32.461,searchDisc4,2020.2.10,Win32,60,,,space,0.00596,2,1,0.682195,,0,42,42,116,1,1b,2,1,9,
,,,,,,,,,,,,,,,,,,,,,,,,,,images/exp2a_trial_93_colour3_distractors43_r.png,r,2,034,001,2021-04-26_16h57.32.461,searchDisc4,2020.2.10,Win32,60,,,space,0.57811,2,1,0.495635,,0,43,43,321,1,2a,93,3,43,
,,,,,,,,,,,,,,,,,,,,,,,,,,images/exp1a_trial_4_colour1_distractors31_r.png,r,2,034,001,2021-04-26_16h57.32.461,searchDisc4,2020.2.10,Win32,60,,,space,0.0499,2,1,0.54573,,0,44,44,4,1,1a,4,1,31,
,,,,,,,,,,,,,,,,,,,,,,,,,,images/exp2c_trial_74_colour0_distractors0_r.png,r,2,034,001,2021-04-26_16h57.32.461,searchDisc4,2020.2.10,Win32,60,,,space,0.023305,2,1,0.46954,,0,45,45,530,1,2c,74,0,0,
,,,,,,,,,,,,,,,,,,,,,,,,,,images/exp1a_trial_69_colour3_distractors4_l.png,l,1,034,001,2021-04-26_16h57.32.461,searchDisc4,2020.2.10,Win32,60,,,space,0.06508,1,1,0.488445,,0,46,46,69,1,1a,69,3,4,
,,,,,,,,,,,,,,,,,,,,,,,,,,images/exp2a_trial_6_colour2_distractors1_r.png,r,2,034,001,2021-04-26_16h57.32.461,searchDisc4,2020.2.10,Win32,60,,,space,0.0166,2,1,0.477375,,0,47,47,234,1,2a,6,2,1,
,,,,,,,,,,,,,,,,,,,,,,,,,,images/exp2c_trial_12_colour3_distractors1_r.png,r,2,034,001,2021-04-26_16h57.32.461,searchDisc4,2020.2.10,Win32,60,,,space,0.03696,2,1,0.51053,,0,48,48,468,1,2c,12,3,1,
,,,,,,,,,,,,,,,,,,,,,,,,,,images/exp2a_trial_7_colour2_distractors4_r.png,r,2,034,001,2021-04-26_16h57.32.461,searchDisc4,2020.2.10,Win32,60,,,space,0.0178,1,0,0.535685,,0,49,49,235,1,2a,7,2,4,
,,,,,,,,,,,,,,,,,,,,,,,,,,images/exp1b_trial_77_colour1_distractors4_r.png,r,2,034,001,2021-04-26_16h57.32.461,searchDisc4,2020.2.10,Win32,60,,,space,0.026815,2,1,0.622035,,0,50,50,191,1,1b,77,1,4,
,,,,,,,,,,,,,,,,,,,,,,,,,,images/exp1a_trial_2_colour1_distractors9_r.png,r,2,034,001,2021-04-26_16h57.32.461,searchDisc4,2020.2.10,Win32,60,,,space,0.000395,2,1,0.64853,,0,51,51,2,1,1a,2,1,9,
,,,,,,,,,,,,,,,,,,,,,,,,,,images/exp1b_trial_60_colour1_distractors31_l.png,l,1,034,001,2021-04-26_16h57.32.461,searchDisc4,2020.2.10,Win32,60,,,space,0.507725,1,1,1.820375,,0,52,52,174,1,1b,60,1,31,
,,,,,,,,,,,,,,,,,,,,,,,,,,images/exp2c_trial_17_colour3_distractors43_r.png,r,2,034,001,2021-04-26_16h57.32.461,searchDisc4,2020.2.10,Win32,60,,,space,0.018055,2,1,0.58295,,0,53,53,473,1,2c,17,3,43,
,,,,,,,,,,,,,,,,,,,,,,,,,,images/exp2c_trial_86_colour2_distractors31_r.png,r,2,034,001,2021-04-26_16h57.32.461,searchDisc4,2020.2.10,Win32,60,,,space,0.007165,2,1,0.7067,,0,54,54,542,1,2c,86,2,31,
,,,,,,,,,,,,,,,,,,,,,,,,,,images/exp1b_trial_65_colour2_distractors19_l.png,l,1,034,001,2021-04-26_16h57.32.461,searchDisc4,2020.2.10,Win32,60,,,space,0.02761,1,1,1.04569,,0,55,55,179,1,1b,65,2,19,
,,,,,,,,,,,,,,,,,,,,,,,,,,images/exp2c_trial_58_colour1_distractors9_l.png,l,1,034,001,2021-04-26_16h57.32.461,searchDisc4,2020.2.10,Win32,60,,,space,0.478855,1,1,0.51896,,0,56,56,514,1,2c,58,1,9,
,,,,,,,,,,,,,,,,,,,,,,,,,,images/exp2a_trial_33_colour3_distractors19_l.png,l,1,034,001,2021-04-26_16h57.32.461,searchDisc4,2020.2.10,Win32,60,,,space,0.01467,1,1,0.612035,,0,57,57,261,1,2a,33,3,19,
,,,,,,,,,,,,,,,,,,,,,,,,,,images/exp2a_trial_11_colour2_distractors43_r.png,r,2,034,001,2021-04-26_16h57.32.461,searchDisc4,2020.2.10,Win32,60,,,space,0.03259,2,1,0.565895,,0,58,58,239,1,2a,11,2,43,
,,,,,,,,,,,,,,,,,,,,,,,,,,images/exp2b_trial_39_colour1_distractors4_r.png,r,2,034,001,2021-04-26_16h57.32.461,searchDisc4,2020.2.10,Win32,60,,,space,0.053215,2,1,0.541185,space,0,59,59,381,1,2b,39,1,4,0.09429
,,,,,,,,,,,,,,,,,,,,,,,,,,images/exp2c_trial_61_colour1_distractors43_l.png,l,1,034,001,2021-04-26_16h57.32.461,searchDisc4,2020.2.10,Win32,60,,,space,35.48254,1,1,0.740275,,0,60,60,517,1,2c,61,1,43,
,,,,,,,,,,,,,,,,,,,,,,,,,,images/exp2b_trial_75_colour0_distractors0_l.png,l,1,034,001,2021-04-26_16h57.32.461,searchDisc4,2020.2.10,Win32,60,,,space,0.06239,1,1,0.53568,,0,61,61,417,1,2b,75,0,0,
,,,,,,,,,,,,,,,,,,,,,,,,,,images/exp2c_trial_60_colour1_distractors31_l.png,l,1,034,001,2021-04-26_16h57.32.461,searchDisc4,2020.2.10,Win32,60,,,space,0.06147,1,1,0.55549,,0,62,62,516,1,2c,60,1,31,
,,,,,,,,,,,,,,,,,,,,,,,,,,images/exp2b_trial_28_colour2_distractors31_l.png,l,1,034,001,2021-04-26_16h57.32.461,searchDisc4,2020.2.10,Win32,60,,,space,0.05492,1,1,0.557215,,0,63,63,370,1,2b,28,2,31,
,,,,,,,,,,,,,,,,,,,,,,,,,,images/exp2c_trial_23_colour1_distractors43_l.png,l,1,034,001,2021-04-26_16h57.32.461,searchDisc4,2020.2.10,Win32,60,,,space,0.06145,1,1,0.510415,,0,64,64,479,1,2c,23,1,43,
,,,,,,,,,,,,,,,,,,,,,,,,,,images/exp2a_trial_28_colour2_distractors31_l.png,l,1,034,001,2021-04-26_16h57.32.461,searchDisc4,2020.2.10,Win32,60,,,space,0.04085,1,1,0.520845,,0,65,65,256,1,2a,28,2,31,
,,,,,,,,,,,,,,,,,,,,,,,,,,images/exp2a_trial_36_colour0_distractors0_r.png,r,2,034,001,2021-04-26_16h57.32.461,searchDisc4,2020.2.10,Win32,60,,,space,0.112095,2,1,0.396375,,0,66,66,264,1,2a,36,0,0,
,,,,,,,,,,,,,,,,,,,,,,,,,,images/exp1b_trial_100_colour2_distractors1_l.png,l,1,034,001,2021-04-26_16h57.32.461,searchDisc4,2020.2.10,Win32,60,,,space,0.091285,1,1,0.56165,,0,67,67,214,1,1b,100,2,1,
,,,,,,,,,,,,,,,,,,,,,,,,,,images/exp2b_trial_59_colour1_distractors19_l.png,l,1,034,001,2021-04-26_16h57.32.461,searchDisc4,2020.2.10,Win32,60,,,space,0.041135,1,1,0.495555,,0,68,68,401,1,2b,59,1,19,
,,,,,,,,,,,,,,,,,,,,,,,,,,images/exp2a_trial_104_colour2_distractors31_l.png,l,1,034,001,2021-04-26_16h57.32.461,searchDisc4,2020.2.10,Win32,60,,,space,0.021405,1,1,0.679975,,0,69,69,332,1,2a,104,2,31,
,,,,,,,,,,,,,,,,,,,,,,,,,,images/exp2c_trial_54_colour3_distractors31_r.png,r,2,034,001,2021-04-26_16h57.32.461,searchDisc4,2020.2.10,Win32,60,,,space,0.06096,2,1,0.418085,,0,70,70,510,1,2c,54,3,31,
,,,,,,,,,,,,,,,,,,,,,,,,,,images/exp1b_trial_26_colour2_distractors9_l.png,l,1,034,001,2021-04-26_16h57.32.461,searchDisc4,2020.2.10,Win32,60,,,space,0.0413,1,1,0.85844,,0,71,71,140,1,1b,26,2,9,
,,,,,,,,,,,,,,,,,,,,,,,,,,images/exp2b_trial_63_colour2_distractors4_l.png,l,1,034,001,2021-04-26_16h57.32.461,searchDisc4,2020.2.10,Win32,60,,,space,0.000675,1,1,0.443015,,0,72,72,405,1,2b,63,2,4,
,,,,,,,,,,,,,,,,,,,,,,,,,,images/exp2a_trial_63_colour2_distractors4_l.png,l,1,034,001,2021-04-26_16h57.32.461,searchDisc4,2020.2.10,Win32,60,,,space,0.018835,1,1,0.55638,,0,73,73,291,1,2a,63,2,4,
,,,,,,,,,,,,,,,,,,,,,,,,,,images/exp2c_trial_42_colour1_distractors31_r.png,r,2,034,001,2021-04-26_16h57.32.461,searchDisc4,2020.2.10,Win32,60,,,space,0.01211,2,1,0.47655,,0,74,74,498,1,2c,42,1,31,
,,,,,,,,,,,,,,,,,,,,,,,,,,images/exp1a_trial_92_colour3_distractors31_r.png,r,2,034,001,2021-04-26_16h57.32.461,searchDisc4,2020.2.10,Win32,60,,,space,0.011995,2,1,0.42426,,0,75,75,92,1,1a,92,3,31,
,,,,,,,,,,,,,,,,,,,,,,,,,,images/exp2b_trial_112_colour0_distractors0_r.png,r,2,034,001,2021-04-26_16h57.32.461,searchDisc4,2020.2.10,Win32,60,,,space,0.01522,1,0,0.395875,,0,76,76,454,1,2b,112,0,0,
,,,,,,,,,,,,,,,,,,,,,,,,,,images/exp2b_trial_76_colour1_distractors1_r.png,r,2,034,001,2021-04-26_16h57.32.461,searchDisc4,2020.2.10,Win32,60,,,space,0.04201,2,1,0.642955,,0,77,77,418,1,2b,76,1,1,
,,,,,,,,,,,,,,,,,,,,,,,,,,images/exp2c_trial_3_colour1_distractors19_r.png,r,2,034,001,2021-04-26_16h57.32.461,searchDisc4,2020.2.10,Win32,60,,,space,0.0292,2,1,0.52032,,0,78,78,459,1,2c,3,1,19,
,,,,,,,,,,,,,,,,,,,,,,,,,,images/exp1b_trial_37_colour0_distractors0_l.png,l,1,034,001,2021-04-26_16h57.32.461,searchDisc4,2020.2.10,Win32,60,,,space,0.06118,1,1,0.468385,,0,79,79,151,1,1b,37,0,0,
,,,,,,,,,,,,,,,,,,,,,,,,,,images/exp1a_trial_24_colour2_distractors1_l.png,l,1,034,001,2021-04-26_16h57.32.461,searchDisc4,2020.2.10,Win32,60,,,space,0.06023,1,1,0.892325,,0,80,80,24,1,1a,24,2,1,
,,,,,,,,,,,,,,,,,,,,,,,,,,images/exp1b_trial_72_colour3_distractors31_l.png,l,1,034,001,2021-04-26_16h57.32.461,searchDisc4,2020.2.10,Win32,60,,,space,0.00674,1,1,1.153365,,0,81,81,186,1,1b,72,3,31,
,,,,,,,,,,,,,,,,,,,,,,,,,,images/exp1b_trial_34_colour3_distractors31_l.png,l,1,034,001,2021-04-26_16h57.32.461,searchDisc4,2020.2.10,Win32,60,,,space,0.041645,1,1,0.587505,,0,82,82,148,1,1b,34,3,31,
,,,,,,,,,,,,,,,,,,,,,,,,,,images/exp2c_trial_33_colour3_distractors19_l.png,l,1,034,001,2021-04-26_16h57.32.461,searchDisc4,2020.2.10,Win32,60,,,space,0.046365,1,1,0.49305,,0,83,83,489,1,2c,33,3,19,
,,,,,,,,,,,,,,,,,,,,,,,,,,images/exp1b_trial_15_colour3_distractors19_r.png,r,2,034,001,2021-04-26_16h57.32.461,searchDisc4,2020.2.10,Win32,60,,,space,0.05098,1,0,0.782085,,0,84,84,129,1,1b,15,3,19,
,,,,,,,,,,,,,,,,,,,,,,,,,,images/exp2c_trial_44_colour2_distractors1_r.png,r,2,034,001,2021-04-26_16h57.32.461,searchDisc4,2020.2.10,Win32,60,,,space,0.00064,2,1,0.5889,,0,85,85,500,1,2c,44,2,1,
,,,,,,,,,,,,,,,,,,,,,,,,,,images/exp1b_trial_36_colour0_distractors0_r.png,r,2,034,001,2021-04-26_16h57.32.461,searchDisc4,2020.2.10,Win32,60,,,space,0.052175,2,1,0.57244,,0,86,86,150,1,1b,36,0,0,
,,,,,,,,,,,,,,,,,,,,,,,,,,images/exp2b_trial_106_colour3_distractors1_l.png,l,1,034,001,2021-04-26_16h57.32.461,searchDisc4,2020.2.10,Win32,60,,,space,0.019695,1,1,0.816655,,0,87,87,448,1,2b,106,3,1,
,,,,,,,,,,,,,,,,,,,,,,,,,,images/exp1a_trial_12_colour3_distractors1_r.png,r,2,034,001,2021-04-26_16h57.32.461,searchDisc4,2020.2.10,Win32,60,,,space,0.00991,2,1,0.46345,,0,88,88,12,1,1a,12,3,1,
,,,,,,,,,,,,,,,,,,,,,,,,,,images/exp2a_trial_16_colour3_distractors31_r.png,r,2,034,001,2021-04-26_16h57.32.461,searchDisc4,2020.2.10,Win32,60,,,space,0.000605,2,1,0.76862,,0,89,89,244,1,2a,16,3,31,
,,,,,,,,,,,,,,,,,,,,,,,,,,images/exp1a_trial_96_colour1_distractors9_l.png,l,1,034,001,2021-04-26_16h57.32.461,searchDisc4,2020.2.10,Win32,60,,,space,0.54265,1,1,0.587725,,0,90,90,96,1,1a,96,1,9,
,,,,,,,,,,,,,,,,,,,,,,,,,,images/exp2b_trial_41_colour1_distractors19_r.png,r,2,034,001,2021-04-26_16h57.32.461,searchDisc4,2020.2.10,Win32,60,,,space,0.03006,2,1,0.53477,,0,91,91,383,1,2b,41,1,19,
,,,,,,,,,,,,,,,,,,,,,,,,,,images/exp1b_trial_50_colour3_distractors1_r.png,r,2,034,001,2021-04-26_16h57.32.461,searchDisc4,2020.2.10,Win32,60,,,space,0.03902,2,1,0.949895,,0,92,92,164,1,1b,50,3,1,
,,,,,,,,,,,,,,,,,,,,,,,,,,images/exp2a_trial_8_colour2_distractors9_r.png,r,2,034,001,2021-04-26_16h57.32.461,searchDisc4,2020.2.10,Win32,60,,,space,0.080615,2,1,0.46794,,0,93,93,236,1,2a,8,2,9,
,,,,,,,,,,,,,,,,,,,,,,,,,,images/exp1a_trial_104_colour2_distractors31_l.png,l,1,034,001,2021-04-26_16h57.32.461,searchDisc4,2020.2.10,Win32,60,,,space,0.020915,1,1,0.74713,,0,94,94,104,1,1a,104,2,31,
,,,,,,,,,,,,,,,,,,,,,,,,,,images/exp1a_trial_30_colour3_distractors1_l.png,l,1,034,001,2021-04-26_16h57.32.461,searchDisc4,2020.2.10,Win32,60,,,space,0.015585,1,1,0.71055,,0,95,95,30,1,1a,30,3,1,
,,,,,,,,,,,,,,,,,,,,,,,,,,images/exp1a_trial_87_colour2_distractors43_r.png,r,2,034,001,2021-04-26_16h57.32.461,searchDisc4,2020.2.10,Win32,60,,,space,0.008315,2,1,0.65877,,0,96,96,87,1,1a,87,2,43,
,,,,,,,,,,,,,,,,,,,,,,,,,,images/exp1b_trial_1_colour1_distractors4_r.png,r,2,034,001,2021-04-26_16h57.32.461,searchDisc4,2020.2.10,Win32,60,,,space,0.01384,2,1,0.619475,,0,97,97,115,1,1b,1,1,4,
,,,,,,,,,,,,,,,,,,,,,,,,,,images/exp2a_trial_14_colour3_distractors9_r.png,r,2,034,001,2021-04-26_16h57.32.461,searchDisc4,2020.2.10,Win32,60,,,space,0.02059,2,1,0.589295,,0,98,98,242,1,2a,14,3,9,
,,,,,,,,,,,,,,,,,,,,,,,,,,images/exp2a_trial_32_colour3_distractors9_l.png,l,1,034,001,2021-04-26_16h57.32.461,searchDisc4,2020.2.10,Win32,60,,,space,0.002345,1,1,0.6034,,0,99,99,260,1,2a,32,3,9,
,,,,,,,,,,,,,,,,,,,,,,,,,,images/exp2a_trial_52_colour3_distractors9_r.png,r,2,034,001,2021-04-26_16h57.32.461,searchDisc4,2020.2.10,Win32,60,,,space,0.52369,2,1,0.430665,,0,100,100,280,1,2a,52,3,9,
,,,,,,,,,,,,,,,,,,,,,,,,,,images/exp2a_trial_50_colour3_distractors1_r.png,r,2,034,001,2021-04-26_16h57.32.461,searchDisc4,2020.2.10,Win32,60,,,space,0.052215,2,1,0.448745,,0,101,101,278,1,2a,50,3,1,
,,,,,,,,,,,,,,,,,,,,,,,,,,images/exp2a_trial_34_colour3_distractors31_l.png,l,1,034,001,2021-04-26_16h57.32.461,searchDisc4,2020.2.10,Win32,60,,,space,0.080405,1,1,0.659905,,0,102,102,262,1,2a,34,3,31,
,,,,,,,,,,,,,,,,,,,,,,,,,,images/exp1b_trial_51_colour3_distractors4_r.png,r,2,034,001,2021-04-26_16h57.32.461,searchDisc4,2020.2.10,Win32,60,,,space,0.09272,2,1,0.5453,,0,103,103,165,1,1b,51,3,4,
,,,,,,,,,,,,,,,,,,,,,,,,,,images/exp2b_trial_11_colour2_distractors43_r.png,r,2,034,001,2021-04-26_16h57.32.461,searchDisc4,2020.2.10,Win32,60,,,space,0.05637,2,1,0.5697,,0,104,104,353,1,2b,11,2,43,
,,,,,,,,,,,,,,,,,,,,,,,,,,images/exp2c_trial_70_colour3_distractors9_l.png,l,1,034,001,2021-04-26_16h57.32.461,searchDisc4,2020.2.10,Win32,60,,,space,0.064085,1,1,0.47055,,0,105,105,526,1,2c,70,3,9,
,,,,,,,,,,,,,,,,,,,,,,,,,,images/exp1b_trial_102_colour2_distractors9_l.png,l,1,034,001,2021-04-26_16h57.32.461,searchDisc4,2020.2.10,Win32,60,,,space,0.07834,1,1,0.4826,,0,106,106,216,1,1b,102,2,9,
,,,,,,,,,,,,,,,,,,,,,,,,,,images/exp1a_trial_17_colour3_distractors43_r.png,r,2,034,001,2021-04-26_16h57.32.461,searchDisc4,2020.2.10,Win32,60,,,space,0.11932,2,1,0.5491,,0,107,107,17,1,1a,17,3,43,
,,,,,,,,,,,,,,,,,,,,,,,,,,images/exp1b_trial_52_colour3_distractors9_r.png,r,2,034,001,2021-04-26_16h57.32.461,searchDisc4,2020.2.10,Win32,60,,,space,0.116035,2,1,0.656175,,0,108,108,166,1,1b,52,3,9,
,,,,,,,,,,,,,,,,,,,,,,,,,,images/exp2b_trial_64_colour2_distractors9_l.png,l,1,034,001,2021-04-26_16h57.32.461,searchDisc4,2020.2.10,Win32,60,,,space,0.10433,1,1,0.53311,,0,109,109,406,1,2b,64,2,9,
,,,,,,,,,,,,,,,,,,,,,,,,,,images/exp1a_trial_93_colour3_distractors43_r.png,r,2,034,001,2021-04-26_16h57.32.461,searchDisc4,2020.2.10,Win32,60,,,space,0.084405,2,1,0.45659,,0,110,110,93,1,1a,93,3,43,
,,,,,,,,,,,,,,,,,,,,,,,,,,images/exp1a_trial_60_colour1_distractors31_l.png,l,1,034,001,2021-04-26_16h57.32.461,searchDisc4,2020.2.10,Win32,60,,,space,0.09738,1,1,0.426765,,0,111,111,60,1,1a,60,1,31,
,,,,,,,,,,,,,,,,,,,,,,,,,,images/exp2c_trial_8_colour2_distractors9_r.png,r,2,034,001,2021-04-26_16h57.32.461,searchDisc4,2020.2.10,Win32,60,,,space,0.133105,2,1,0.427875,,0,112,112,464,1,2c,8,2,9,
,,,,,,,,,,,,,,,,,,,,,,,,,,images/exp1b_trial_45_colour2_distractors4_r.png,r,2,034,001,2021-04-26_16h57.32.461,searchDisc4,2020.2.10,Win32,60,,,space,0.117685,2,1,0.518615,,0,113,113,159,1,1b,45,2,4,
,,,,,,,,,,,,,,,,,,,,,,,,,,images/exp2b_trial_45_colour2_distractors4_r.png,r,2,034,001,2021-04-26_16h57.32.461,searchDisc4,2020.2.10,Win32,60,,,space,0.09455,2,1,0.532765,,0,114,114,387,1,2b,45,2,4,
,,,,,,,,,,,,,,,,,,,,,,,,,,images/exp1b_trial_25_colour2_distractors4_l.png,l,1,034,001,2021-04-26_16h57.32.461,searchDisc4,2020.2.10,Win32,60,,,space,0.090385,1,1,0.630405,,0,115,115,139,1,1b,25,2,4,
,,,,,,,,,,,,,,,,,,,,,,,,,,images/exp2a_trial_10_colour2_distractors31_r.png,r,2,034,001,2021-04-26_16h57.32.461,searchDisc4,2020.2.10,Win32,60,,,space,0.08249,2,1,0.44506,,0,116,116,238,1,2a,10,2,31,
,,,,,,,,,,,,,,,,,,,,,,,,,,images/exp2a_trial_58_colour1_distractors9_l.png,l,1,034,001,2021-04-26_16h57.32.461,searchDisc4,2020.2.10,Win32,60,,,space,0.08852,1,1,0.50522,,0,117,117,286,1,2a,58,1,9,
,,,,,,,,,,,,,,,,,,,,,,,,,,images/exp2a_trial_94_colour1_distractors1_l.png,l,1,034,001,2021-04-26_16h57.32.461,searchDisc4,2020.2.10,Win32,60,,,space,0.0618,1,1,0.46328,,0,118,118,322,1,2a,94,1,1,
,,,,,,,,,,,,,,,,,,,,,,,,,,images/exp2b_trial_21_colour1_distractors19_l.png,l,1,034,001,2021-04-26_16h57.32.461,searchDisc4,2020.2.10,Win32,60,,,space,0.088155,1,1,0.571815,space,0,119,119,363,1,2b,21,1,19,0.160695
,,,,,,,,,,,,,,,,,,,,,,,,,,images/exp2c_trial_31_colour3_distractors4_l.png,l,1,034,001,2021-04-26_16h57.32.461,searchDisc4,2020.2.10,Win32,60,,,space,0.636615,1,1,0.464145,,0,120,120,487,1,2c,31,3,4,
,,,,,,,,,,,,,,,,,,,,,,,,,,images/exp1a_trial_71_colour3_distractors19_l.png,l,1,034,001,2021-04-26_16h57.32.461,searchDisc4,2020.2.10,Win32,60,,,space,0.04812,1,1,0.463885,,0,121,121,71,1,1a,71,3,19,
,,,,,,,,,,,,,,,,,,,,,,,,,,images/exp1a_trial_100_colour2_distractors1_l.png,l,1,034,001,2021-04-26_16h57.32.461,searchDisc4,2020.2.10,Win32,60,,,space,0.078505,1,1,0.517725,,0,122,122,100,1,1a,100,2,1,
,,,,,,,,,,,,,,,,,,,,,,,,,,images/exp2b_trial_5_colour1_distractors43_r.png,r,2,034,001,2021-04-26_16h57.32.461,searchDisc4,2020.2.10,Win32,60,,,space,0.034835,2,1,0.633,,0,123,123,347,1,2b,5,1,43,
,,,,,,,,,,,,,,,,,,,,,,,,,,images/exp2c_trial_93_colour3_distractors43_r.png,r,2,034,001,2021-04-26_16h57.32.461,searchDisc4,2020.2.10,Win32,60,,,space,0.06478,2,1,0.434095,,0,124,124,549,1,2c,93,3,43,
,,,,,,,,,,,,,,,,,,,,,,,,,,images/exp1a_trial_42_colour1_distractors31_r.png,r,2,034,001,2021-04-26_16h57.32.461,searchDisc4,2020.2.10,Win32,60,,,space,0.029155,2,1,0.608855,,0,125,125,42,1,1a,42,1,31,
,,,,,,,,,,,,,,,,,,,,,,,,,,images/exp1b_trial_63_colour2_distractors4_l.png,l,1,034,001,2021-04-26_16h57.32.461,searchDisc4,2020.2.10,Win32,60,,,space,0.021865,1,1,0.732705,,0,126,126,177,1,1b,63,2,4,
,,,,,,,,,,,,,,,,,,,,,,,,,,images/exp2b_trial_66_colour2_distractors31_l.png,l,1,034,001,2021-04-26_16h57.32.461,searchDisc4,2020.2.10,Win32,60,,,space,0.00876,1,1,0.818975,,0,127,127,408,1,2b,66,2,31,
,,,,,,,,,,,,,,,,,,,,,,,,,,images/exp1b_trial_89_colour3_distractors4_r.png,r,2,034,001,2021-04-26_16h57.32.461,searchDisc4,2020.2.10,Win32,60,,,space,0.048735,2,1,0.89197,,0,128,128,203,1,1b,89,3,4,
,,,,,,,,,,,,,,,,,,,,,,,,,,images/exp1b_trial_49_colour2_distractors43_r.png,r,2,034,001,2021-04-26_16h57.32.461,searchDisc4,2020.2.10,Win32,60,,,space,0.04912,2,1,0.583105,,0,129,129,163,1,1b,49,2,43,
,,,,,,,,,,,,,,,,,,,,,,,,,,images/exp2c_trial_24_colour2_distractors1_l.png,l,1,034,001,2021-04-26_16h57.32.461,searchDisc4,2020.2.10,Win32,60,,,space,0.00067,1,1,0.537065,,0,130,130,480,1,2c,24,2,1,
,,,,,,,,,,,,,,,,,,,,,,,,,,images/exp1b_trial_19_colour1_distractors4_l.png,l,1,034,001,2021-04-26_16h57.32.461,searchDisc4,2020.2.10,Win32,60,,,space,0.04876,2,0,0.707105,,0,131,131,133,1,1b,19,1,4,
,,,,,,,,,,,,,,,,,,,,,,,,,,images/exp1a_trial_25_colour2_distractors4_l.png,l,1,034,001,2021-04-26_16h57.32.461,searchDisc4,2020.2.10,Win32,60,,,space,0.366005,1,1,0.56933,,0,132,132,25,1,1a,25,2,4,
,,,,,,,,,,,,,,,,,,,,,,,,,,images/exp1b_trial_97_colour1_distractors19_l.png,l,1,034,001,2021-04-26_16h57.32.461,searchDisc4,2020.2.10,Win32,60,,,space,0.466675,1,1,0.56969,,0,133,133,211,1,1b,97,1,19,
,,,,,,,,,,,,,,,,,,,,,,,,,,images/exp2a_trial_101_colour2_distractors4_l.png,l,1,034,001,2021-04-26_16h57.32.461,searchDisc4,2020.2.10,Win32,60,,,space,0.421985,1,1,0.488005,,0,134,134,329,1,2a,101,2,4,
,,,,,,,,,,,,,,,,,,,,,,,,,,images/exp1b_trial_21_colour1_distractors19_l.png,l,1,034,001,2021-04-26_16h57.32.461,searchDisc4,2020.2.10,Win32,60,,,space,0.04121,1,1,0.93844,,0,135,135,135,1,1b,21,1,19,
,,,,,,,,,,,,,,,,,,,,,,,,,,images/exp2a_trial_30_colour3_distractors1_l.png,l,1,034,001,2021-04-26_16h57.32.461,searchDisc4,2020.2.10,Win32,60,,,space,0.004765,1,1,0.55333,,0,136,136,258,1,2a,30,3,1,
,,,,,,,,,,,,,,,,,,,,,,,,,,images/exp2b_trial_96_colour1_distractors9_l.png,l,1,034,001,2021-04-26_16h57.32.461,searchDisc4,2020.2.10,Win32,60,,,space,0.072345,1,1,0.548525,,0,137,137,438,1,2b,96,1,9,
,,,,,,,,,,,,,,,,,,,,,,,,,,images/exp2b_trial_74_colour0_distractors0_r.png,r,2,034,001,2021-04-26_16h57.32.461,searchDisc4,2020.2.10,Win32,60,,,space,0.03482,2,1,0.510155,,0,138,138,416,1,2b,74,0,0,
,,,,,,,,,,,,,,,,,,,,,,,,,,images/exp2a_trial_4_colour1_distractors31_r.png,r,2,034,001,2021-04-26_16h57.32.461,searchDisc4,2020.2.10,Win32,60,,,space,0.08776,2,1,0.537685,,0,139,139,232,1,2a,4,1,31,
,,,,,,,,,,,,,,,,,,,,,,,,,,images/exp1a_trial_19_colour1_distractors4_l.png,l,1,034,001,2021-04-26_16h57.32.461,searchDisc4,2020.2.10,Win32,60,,,space,0.03596,2,0,0.52617,,0,140,140,19,1,1a,19,1,4,
,,,,,,,,,,,,,,,,,,,,,,,,,,images/exp1a_trial_43_colour1_distractors43_r.png,r,2,034,001,2021-04-26_16h57.32.461,searchDisc4,2020.2.10,Win32,60,,,space,0.03852,2,1,0.63566,,0,141,141,43,1,1a,43,1,43,
,,,,,,,,,,,,,,,,,,,,,,,,,,images/exp2b_trial_9_colour2_distractors19_r.png,r,2,034,001,2021-04-26_16h57.32.461,searchDisc4,2020.2.10,Win32,60,,,space,0.01813,2,1,0.493025,,0,142,142,351,1,2b,9,2,19,
,,,,,,,,,,,,,,,,,,,,,,,,,,images/exp2b_trial_71_colour3_distractors19_l.png,l,1,034,001,2021-04-26_16h57.32.461,searchDisc4,2020.2.10,Win32,60,,,space,0.031165,1,1,0.670205,,0,143,143,413,1,2b,71,3,19,
,,,,,,,,,,,,,,,,,,,,,,,,,,images/exp2c_trial_105_colour2_distractors43_l.png,l,1,034,001,2021-04-26_16h57.32.461,searchDisc4,2020.2.10,Win32,60,,,space,0.018515,1,1,0.57643,,0,144,144,561,1,2c,105,2,43,
,,,,,,,,,,,,,,,,,,,,,,,,,,images/exp2b_trial_100_colour2_distractors1_l.png,l,1,034,001,2021-04-26_16h57.32.461,searchDisc4,2020.2.10,Win32,60,,,space,0.009355,1,1,0.674155,,0,145,145,442,1,2b,100,2,1,
,,,,,,,,,,,,,,,,,,,,,,,,,,images/exp2b_trial_108_colour3_distractors9_l.png,l,1,034,001,2021-04-26_16h57.32.461,searchDisc4,2020.2.10,Win32,60,,,space,0.081485,1,1,0.577425,,0,146,146,450,1,2b,108,3,9,
,,,,,,,,,,,,,,,,,,,,,,,,,,images/exp2c_trial_41_colour1_distractors19_r.png,r,2,034,001,2021-04-26_16h57.32.461,searchDisc4,2020.2.10,Win32,60,,,space,0.041745,2,1,0.56921,,0,147,147,497,1,2c,41,1,19,
,,,,,,,,,,,,,,,,,,,,,,,,,,images/exp1a_trial_37_colour0_distractors0_l.png,l,1,034,001,2021-04-26_16h57.32.461,searchDisc4,2020.2.10,Win32,60,,,space,0.054555,1,1,0.76005,,0,148,148,37,1,1a,37,0,0,
,,,,,,,,,,,,,,,,,,,,,,,,,,images/exp2c_trial_1_colour1_distractors4_r.png,r,2,034,001,2021-04-26_16h57.32.461,searchDisc4,2020.2.10,Win32,60,,,space,0.029225,1,0,0.562785,,0,149,149,457,1,2c,1,1,4,
,,,,,,,,,,,,,,,,,,,,,,,,,,images/exp2a_trial_27_colour2_distractors19_l.png,l,1,034,001,2021-04-26_16h57.32.461,searchDisc4,2020.2.10,Win32,60,,,space,0.006055,1,1,0.560065,,0,150,150,255,1,2a,27,2,19,
,,,,,,,,,,,,,,,,,,,,,,,,,,images/exp2b_trial_90_colour3_distractors9_r.png,r,2,034,001,2021-04-26_16h57.32.461,searchDisc4,2020.2.10,Win32,60,,,space,0.035155,2,1,0.546175,,0,151,151,432,1,2b,90,3,9,
,,,,,,,,,,,,,,,,,,,,,,,,,,images/exp1b_trial_40_colour1_distractors9_r.png,r,2,034,001,2021-04-26_16h57.32.461,searchDisc4,2020.2.10,Win32,60,,,space,0.027505,2,1,0.56583,,0,152,152,154,1,1b,40,1,9,
,,,,,,,,,,,,,,,,,,,,,,,,,,images/exp2b_trial_60_colour1_distractors31_l.png,l,1,034,001,2021-04-26_16h57.32.461,searchDisc4,2020.2.10,Win32,60,,,space,0.034825,1,1,0.545405,,0,153,153,402,1,2b,60,1,31,
,,,,,,,,,,,,,,,,,,,,,,,,,,images/exp2b_trial_103_colour2_distractors19_l.png,l,1,034,001,2021-04-26_16h57.32.461,searchDisc4,2020.2.10,Win32,60,,,space,0.034765,1,1,0.580225,,0,154,154,445,1,2b,103,2,19,
,,,,,,,,,,,,,,,,,,,,,,,,,,images/exp2c_trial_110_colour3_distractors31_l.png,l,1,034,001,2021-04-26_16h57.32.461,searchDisc4,2020.2.10,Win32,60,,,space,0.015915,1,1,0.87754,,0,155,155,566,1,2c,110,3,31,
,,,,,,,,,,,,,,,,,,,,,,,,,,images/exp2a_trial_20_colour1_distractors9_l.png,l,1,034,001,2021-04-26_16h57.32.461,searchDisc4,2020.2.10,Win32,60,,,space,0.048965,1,1,0.56218,,0,156,156,248,1,2a,20,1,9,
,,,,,,,,,,,,,,,,,,,,,,,,,,images/exp1b_trial_88_colour3_distractors1_r.png,r,2,034,001,2021-04-26_16h57.32.461,searchDisc4,2020.2.10,Win32,60,,,space,0.007095,2,1,0.58138,,0,157,157,202,1,1b,88,3,1,
,,,,,,,,,,,,,,,,,,,,,,,,,,images/exp2b_trial_24_colour2_distractors1_l.png,l,1,034,001,2021-04-26_16h57.32.461,searchDisc4,2020.2.10,Win32,60,,,space,0.03417,1,1,0.46185,,0,158,158,366,1,2b,24,2,1,
,,,,,,,,,,,,,,,,,,,,,,,,,,images/exp2a_trial_111_colour3_distractors43_l.png,l,1,034,001,2021-04-26_16h57.32.461,searchDisc4,2020.2.10,Win32,60,,,space,0.026205,1,1,0.511845,,0,159,159,339,1,2a,111,3,43,
,,,,,,,,,,,,,,,,,,,,,,,,,,images/exp2c_trial_56_colour1_distractors1_l.png,l,1,034,001,2021-04-26_16h57.32.461,searchDisc4,2020.2.10,Win32,60,,,space,0.000385,1,1,0.52812,,0,160,160,512,1,2c,56,1,1,
,,,,,,,,,,,,,,,,,,,,,,,,,,images/exp1a_trial_55_colour3_distractors43_r.png,r,2,034,001,2021-04-26_16h57.32.461,searchDisc4,2020.2.10,Win32,60,,,space,0.026275,2,1,0.522625,,0,161,161,55,1,1a,55,3,43,
,,,,,,,,,,,,,,,,,,,,,,,,,,images/exp2b_trial_111_colour3_distractors43_l.png,l,1,034,001,2021-04-26_16h57.32.461,searchDisc4,2020.2.10,Win32,60,,,space,0.054785,1,1,0.475055,,0,162,162,453,1,2b,111,3,43,
,,,,,,,,,,,,,,,,,,,,,,,,,,images/exp2c_trial_57_colour1_distractors4_l.png,l,1,034,001,2021-04-26_16h57.32.461,searchDisc4,2020.2.10,Win32,60,,,space,0.054075,1,1,0.50161,,0,163,163,513,1,2c,57,1,4,
,,,,,,,,,,,,,,,,,,,,,,,,,,images/exp1b_trial_103_colour2_distractors19_l.png,l,1,034,001,2021-04-26_16h57.32.461,searchDisc4,2020.2.10,Win32,60,,,space,0.13934,1,1,0.78867,,0,164,164,217,1,1b,103,2,19,
,,,,,,,,,,,,,,,,,,,,,,,,,,images/exp2b_trial_23_colour1_distractors43_l.png,l,1,034,001,2021-04-26_16h57.32.461,searchDisc4,2020.2.10,Win32,60,,,space,0.03959,1,1,0.632395,,0,165,165,365,1,2b,23,1,43,
,,,,,,,,,,,,,,,,,,,,,,,,,,images/exp2a_trial_9_colour2_distractors19_r.png,r,2,034,001,2021-04-26_16h57.32.461,searchDisc4,2020.2.10,Win32,60,,,space,0.08968,2,1,0.48276,,0,166,166,237,1,2a,9,2,19,
,,,,,,,,,,,,,,,,,,,,,,,,,,images/exp1b_trial_90_colour3_distractors9_r.png,r,2,034,001,2021-04-26_16h57.32.461,searchDisc4,2020.2.10,Win32,60,,,space,0.02857,2,1,0.780035,,0,167,167,204,1,1b,90,3,9,
,,,,,,,,,,,,,,,,,,,,,,,,,,images/exp1b_trial_58_colour1_distractors9_l.png,l,1,034,001,2021-04-26_16h57.32.461,searchDisc4,2020.2.10,Win32,60,,,space,0.01833,1,1,0.47283,,0,168,168,172,1,1b,58,1,9,
,,,,,,,,,,,,,,,,,,,,,,,,,,images/exp2b_trial_0_colour1_distractors1_r.png,r,2,034,001,2021-04-26_16h57.32.461,searchDisc4,2020.2.10,Win32,60,,,space,0.0272,2,1,0.57906,,0,169,169,342,1,2b,0,1,1,
,,,,,,,,,,,,,,,,,,,,,,,,,,images/exp2c_trial_43_colour1_distractors43_r.png,r,2,034,001,2021-04-26_16h57.32.461,searchDisc4,2020.2.10,Win32,60,,,space,0.02667,2,1,0.55205,,0,170,170,499,1,2c,43,1,43,
,,,,,,,,,,,,,,,,,,,,,,,,,,images/exp1a_trial_44_colour2_distractors1_r.png,r,2,034,001,2021-04-26_16h57.32.461,searchDisc4,2020.2.10,Win32,60,,,space,0.017115,2,1,0.73695,,0,171,171,44,1,1a,44,2,1,
,,,,,,,,,,,,,,,,,,,,,,,,,,images/exp2c_trial_14_colour3_distractors9_r.png,r,2,034,001,2021-04-26_16h57.32.461,searchDisc4,2020.2.10,Win32,60,,,space,0.01397,2,1,0.675885,,0,172,172,470,1,2c,14,3,9,
,,,,,,,,,,,,,,,,,,,,,,,,,,images/exp2b_trial_101_colour2_distractors4_l.png,l,1,034,001,2021-04-26_16h57.32.461,searchDisc4,2020.2.10,Win32,60,,,space,0.02947,1,1,0.532545,,0,173,173,443,1,2b,101,2,4,
,,,,,,,,,,,,,,,,,,,,,,,,,,images/exp1a_trial_0_colour1_distractors1_r.png,r,2,034,001,2021-04-26_16h57.32.461,searchDisc4,2020.2.10,Win32,60,,,space,0.023025,2,1,0.68074,,0,174,174,0,1,1a,0,1,1,
,,,,,,,,,,,,,,,,,,,,,,,,,,images/exp2b_trial_79_colour1_distractors19_r.png,r,2,034,001,2021-04-26_16h57.32.461,searchDisc4,2020.2.10,Win32,60,,,space,0.01394,2,1,0.542295,,0,175,175,421,1,2b,79,1,19,
,,,,,,,,,,,,,,,,,,,,,,,,,,images/exp2c_trial_89_colour3_distractors4_r.png,r,2,034,001,2021-04-26_16h57.32.461,searchDisc4,2020.2.10,Win32,60,,,space,0.696425,1,0,0.436005,,0,176,176,545,1,2c,89,3,4,
,,,,,,,,,,,,,,,,,,,,,,,,,,images/exp2c_trial_101_colour2_distractors4_l.png,l,1,034,001,2021-04-26_16h57.32.461,searchDisc4,2020.2.10,Win32,60,,,space,0.03632,1,1,0.55709,,0,177,177,557,1,2c,101,2,4,
,,,,,,,,,,,,,,,,,,,,,,,,,,images/exp1b_trial_54_colour3_distractors31_r.png,r,2,034,001,2021-04-26_16h57.32.461,searchDisc4,2020.2.10,Win32,60,,,space,0.04839,2,1,1.37675,,0,178,178,168,1,1b,54,3,31,
,,,,,,,,,,,,,,,,,,,,,,,,,,images/exp2a_trial_85_colour2_distractors19_r.png,r,2,034,001,2021-04-26_16h57.32.461,searchDisc4,2020.2.10,Win32,60,,,space,0.020365,2,1,0.48605,space,0,179,179,313,1,2a,85,2,19,0.01669
,,,,,,,,,,,,,,,,,,,,,,,,,,images/exp1b_trial_81_colour1_distractors43_r.png,r,2,034,001,2021-04-26_16h57.32.461,searchDisc4,2020.2.10,Win32,60,,,space,0.545595,2,1,1.161175,,0,180,180,195,1,1b,81,1,43,
,,,,,,,,,,,,,,,,,,,,,,,,,,images/exp2a_trial_56_colour1_distractors1_l.png,l,1,034,001,2021-04-26_16h57.32.461,searchDisc4,2020.2.10,Win32,60,,,space,0.095705,1,1,0.63096,,0,181,181,284,1,2a,56,1,1,
,,,,,,,,,,,,,,,,,,,,,,,,,,images/exp2a_trial_99_colour1_distractors43_l.png,l,1,034,001,2021-04-26_16h57.32.461,searchDisc4,2020.2.10,Win32,60,,,space,0.020925,1,1,0.46822,,0,182,182,327,1,2a,99,1,43,
,,,,,,,,,,,,,,,,,,,,,,,,,,images/exp2c_trial_96_colour1_distractors9_l.png,l,1,034,001,2021-04-26_16h57.32.461,searchDisc4,2020.2.10,Win32,60,,,space,0.02097,1,1,0.48414,,0,183,183,552,1,2c,96,1,9,
,,,,,,,,,,,,,,,,,,,,,,,,,,images/exp1a_trial_58_colour1_distractors9_l.png,l,1,034,001,2021-04-26_16h57.32.461,searchDisc4,2020.2.10,Win32,60,,,space,0.02875,1,1,0.480945,,0,184,184,58,1,1a,58,1,9,
,,,,,,,,,,,,,,,,,,,,,,,,,,images/exp2c_trial_90_colour3_distractors9_r.png,r,2,034,001,2021-04-26_16h57.32.461,searchDisc4,2020.2.10,Win32,60,,,space,0.01282,2,1,0.560095,,0,185,185,546,1,2c,90,3,9,
,,,,,,,,,,,,,,,,,,,,,,,,,,images/exp1b_trial_59_colour1_distractors19_l.png,l,1,034,001,2021-04-26_16h57.32.461,searchDisc4,2020.2.10,Win32,60,,,space,0.00084,1,1,0.68139,,0,186,186,173,1,1b,59,1,19,
,,,,,,,,,,,,,,,,,,,,,,,,,,images/exp1b_trial_71_colour3_distractors19_l.png,l,1,034,001,2021-04-26_16h57.32.461,searchDisc4,2020.2.10,Win32,60,,,space,0.01783,1,1,0.88908,,0,187,187,185,1,1b,71,3,19,
,,,,,,,,,,,,,,,,,,,,,,,,,,images/exp1a_trial_27_colour2_distractors19_l.png,l,1,034,001,2021-04-26_16h57.32.461,searchDisc4,2020.2.10,Win32,60,,,space,0.02114,1,1,0.67391,,0,188,188,27,1,1a,27,2,19,
,,,,,,,,,,,,,,,,,,,,,,,,,,images/exp2a_trial_66_colour2_distractors31_l.png,l,1,034,001,2021-04-26_16h57.32.461,searchDisc4,2020.2.10,Win32,60,,,space,0.0211,1,1,0.54429,,0,189,189,294,1,2a,66,2,31,
,,,,,,,,,,,,,,,,,,,,,,,,,,images/exp1b_trial_78_colour1_distractors9_r.png,r,2,034,001,2021-04-26_16h57.32.461,searchDisc4,2020.2.10,Win32,60,,,space,0.00051,2,1,0.631615,,0,190,190,192,1,1b,78,1,9,
,,,,,,,,,,,,,,,,,,,,,,,,,,images/exp2b_trial_35_colour3_distractors43_l.png,l,1,034,001,2021-04-26_16h57.32.461,searchDisc4,2020.2.10,Win32,60,,,space,0.059465,1,1,0.639645,,0,191,191,377,1,2b,35,3,43,
,,,,,,,,,,,,,,,,,,,,,,,,,,images/exp1b_trial_33_colour3_distractors19_l.png,l,1,034,001,2021-04-26_16h57.32.461,searchDisc4,2020.2.10,Win32,60,,,space,0.022825,1,1,1.77641,,0,192,192,147,1,1b,33,3,19,
,,,,,,,,,,,,,,,,,,,,,,,,,,images/exp2c_trial_67_colour2_distractors43_l.png,l,1,034,001,2021-04-26_16h57.32.461,searchDisc4,2020.2.10,Win32,60,,,space,0.046015,1,1,0.659585,,0,193,193,523,1,2c,67,2,43,
,,,,,,,,,,,,,,,,,,,,,,,,,,images/exp2c_trial_73_colour3_distractors43_l.png,l,1,034,001,2021-04-26_16h57.32.461,searchDisc4,2020.2.10,Win32,60,,,space,0.009245,1,1,0.58617,,0,194,194,529,1,2c,73,3,43,
,,,,,,,,,,,,,,,,,,,,,,,,,,images/exp1b_trial_20_colour1_distractors9_l.png,l,1,034,001,2021-04-26_16h57.32.461,searchDisc4,2020.2.10,Win32,60,,,space,0.44107,1,1,0.534155,,0,195,195,134,1,1b,20,1,9,
,,,,,,,,,,,,,,,,,,,,,,,,,,images/exp2a_trial_73_colour3_distractors43_l.png,l,1,034,001,2021-04-26_16h57.32.461,searchDisc4,2020.2.10,Win32,60,,,space,0.01175,1,1,0.546155,,0,196,196,301,1,2a,73,3,43,
,,,,,,,,,,,,,,,,,,,,,,,,,,images/exp2c_trial_108_colour3_distractors9_l.png,l,1,034,001,2021-04-26_16h57.32.461,searchDisc4,2020.2.10,Win32,60,,,space,0.01414,1,1,0.57985,,0,197,197,564,1,2c,108,3,9,
,,,,,,,,,,,,,,,,,,,,,,,,,,images/exp1a_trial_39_colour1_distractors4_r.png,r,2,034,001,2021-04-26_16h57.32.461,searchDisc4,2020.2.10,Win32,60,,,space,0.020075,2,1,0.67915,,0,198,198,39,1,1a,39,1,4,
,,,,,,,,,,,,,,,,,,,,,,,,,,images/exp2b_trial_61_colour1_distractors43_l.png,l,1,034,001,2021-04-26_16h57.32.461,searchDisc4,2020.2.10,Win32,60,,,space,0.097335,1,1,0.56257,,0,199,199,403,1,2b,61,1,43,
,,,,,,,,,,,,,,,,,,,,,,,,,,images/exp2c_trial_78_colour1_distractors9_r.png,r,2,034,001,2021-04-26_16h57.32.461,searchDisc4,2020.2.10,Win32,60,,,space,0.02402,2,1,0.50716,,0,200,200,534,1,2c,78,1,9,
,,,,,,,,,,,,,,,,,,,,,,,,,,images/exp1a_trial_52_colour3_distractors9_r.png,r,2,034,001,2021-04-26_16h57.32.461,searchDisc4,2020.2.10,Win32,60,,,space,0.02114,1,0,0.504695,,0,201,201,52,1,1a,52,3,9,
,,,,,,,,,,,,,,,,,,,,,,,,,,images/exp2c_trial_32_colour3_distractors9_l.png,l,1,034,001,2021-04-26_16h57.32.461,searchDisc4,2020.2.10,Win32,60,,,space,0.04961,1,1,0.514905,,0,202,202,488,1,2c,32,3,9,
,,,,,,,,,,,,,,,,,,,,,,,,,,images/exp1a_trial_38_colour1_distractors1_r.png,r,2,034,001,2021-04-26_16h57.32.461,searchDisc4,2020.2.10,Win32,60,,,space,0.022025,2,1,0.63285,,0,203,203,38,1,1a,38,1,1,
,,,,,,,,,,,,,,,,,,,,,,,,,,images/exp2a_trial_71_colour3_distractors19_l.png,l,1,034,001,2021-04-26_16h57.32.461,searchDisc4,2020.2.10,Win32,60,,,space,0.042935,1,1,0.527385,,0,204,204,299,1,2a,71,3,19,
,,,,,,,,,,,,,,,,,,,,,,,,,,images/exp2c_trial_103_colour2_distractors19_l.png,l,1,034,001,2021-04-26_16h57.32.461,searchDisc4,2020.2.10,Win32,60,,,space,0.019545,1,1,0.48412,,0,205,205,559,1,2c,103,2,19,
,,,,,,,,,,,,,,,,,,,,,,,,,,images/exp2a_trial_110_colour3_distractors31_l.png,l,1,034,001,2021-04-26_16h57.32.461,searchDisc4,2020.2.10,Win32,60,,,space,0.06268,1,1,0.499,,0,206,206,338,1,2a,110,3,31,
,,,,,,,,,,,,,,,,,,,,,,,,,,images/exp2b_trial_34_colour3_distractors31_l.png,l,1,034,001,2021-04-26_16h57.32.461,searchDisc4,2020.2.10,Win32,60,,,space,0.083415,1,1,0.53822,,0,207,207,376,1,2b,34,3,31,
,,,,,,,,,,,,,,,,,,,,,,,,,,images/exp2c_trial_92_colour3_distractors31_r.png,r,2,034,001,2021-04-26_16h57.32.461,searchDisc4,2020.2.10,Win32,60,,,space,0.01754,1,0,0.5321,,0,208,208,548,1,2c,92,3,31,
,,,,,,,,,,,,,,,,,,,,,,,,,,images/exp1a_trial_80_colour1_distractors31_r.png,r,2,034,001,2021-04-26_16h57.32.461,searchDisc4,2020.2.10,Win32,60,,,space,0.110175,2,1,0.56086,,0,209,209,80,1,1a,80,1,31,
,,,,,,,,,,,,,,,,,,,,,,,,,,images/exp2a_trial_59_colour1_distractors19_l.png,l,1,034,001,2021-04-26_16h57.32.461,searchDisc4,2020.2.10,Win32,60,,,space,0.072865,1,1,0.46057,,0,210,210,287,1,2a,59,1,19,
,,,,,,,,,,,,,,,,,,,,,,,,,,images/exp2a_trial_91_colour3_distractors19_r.png,r,2,034,001,2021-04-26_16h57.32.461,searchDisc4,2020.2.10,Win32,60,,,space,0.022425,2,1,0.476285,,0,211,211,319,1,2a,91,3,19,
,,,,,,,,,,,,,,,,,,,,,,,,,,images/exp1b_trial_109_colour3_distractors19_l.png,l,1,034,001,2021-04-26_16h57.32.461,searchDisc4,2020.2.10,Win32,60,,,space,0.08366,1,1,3.63919,,0,212,212,223,1,1b,109,3,19,
,,,,,,,,,,,,,,,,,,,,,,,,,,images/exp2a_trial_78_colour1_distractors9_r.png,r,2,034,001,2021-04-26_16h57.32.461,searchDisc4,2020.2.10,Win32,60,,,space,0.02876,2,1,0.53669,,0,213,213,306,1,2a,78,1,9,
,,,,,,,,,,,,,,,,,,,,,,,,,,images/exp1b_trial_44_colour2_distractors1_r.png,r,2,034,001,2021-04-26_16h57.32.461,searchDisc4,2020.2.10,Win32,60,,,space,0.01936,2,1,0.503575,,0,214,214,158,1,1b,44,2,1,
,,,,,,,,,,,,,,,,,,,,,,,,,,images/exp1b_trial_96_colour1_distractors9_l.png,l,1,034,001,2021-04-26_16h57.32.461,searchDisc4,2020.2.10,Win32,60,,,space,0.008245,1,1,0.63598,,0,215,215,210,1,1b,96,1,9,
,,,,,,,,,,,,,,,,,,,,,,,,,,images/exp1a_trial_49_colour2_distractors43_r.png,r,2,034,001,2021-04-26_16h57.32.461,searchDisc4,2020.2.10,Win32,60,,,space,0.517955,2,1,0.5321,,0,216,216,49,1,1a,49,2,43,
,,,,,,,,,,,,,,,,,,,,,,,,,,images/exp1a_trial_26_colour2_distractors9_l.png,l,1,034,001,2021-04-26_16h57.32.461,searchDisc4,2020.2.10,Win32,60,,,space,0.528365,1,1,0.61303,,0,217,217,26,1,1a,26,2,9,
,,,,,,,,,,,,,,,,,,,,,,,,,,images/exp2c_trial_102_colour2_distractors9_l.png,l,1,034,001,2021-04-26_16h57.32.461,searchDisc4,2020.2.10,Win32,60,,,space,0.062035,1,1,0.66965,,0,218,218,558,1,2c,102,2,9,
,,,,,,,,,,,,,,,,,,,,,,,,,,images/exp2b_trial_58_colour1_distractors9_l.png,l,1,034,001,2021-04-26_16h57.32.461,searchDisc4,2020.2.10,Win32,60,,,space,0.0468,1,1,0.727415,,0,219,219,400,1,2b,58,1,9,
,,,,,,,,,,,,,,,,,,,,,,,,,,images/exp2a_trial_2_colour1_distractors9_r.png,r,2,034,001,2021-04-26_16h57.32.461,searchDisc4,2020.2.10,Win32,60,,,space,0.029115,1,0,0.59168,,0,220,220,230,1,2a,2,1,9,
,,,,,,,,,,,,,,,,,,,,,,,,,,images/exp2a_trial_44_colour2_distractors1_r.png,r,2,034,001,2021-04-26_16h57.32.461,searchDisc4,2020.2.10,Win32,60,,,space,0.016575,2,1,0.543875,,0,221,221,272,1,2a,44,2,1,
,,,,,,,,,,,,,,,,,,,,,,,,,,images/exp2c_trial_34_colour3_distractors31_l.png,l,1,034,001,2021-04-26_16h57.32.461,searchDisc4,2020.2.10,Win32,60,,,space,0.054265,1,1,0.462855,,0,222,222,490,1,2c,34,3,31,
,,,,,,,,,,,,,,,,,,,,,,,,,,images/exp2c_trial_37_colour0_distractors0_l.png,l,1,034,001,2021-04-26_16h57.32.461,searchDisc4,2020.2.10,Win32,60,,,space,0.028865,1,1,0.469655,,0,223,223,493,1,2c,37,0,0,
,,,,,,,,,,,,,,,,,,,,,,,,,,images/exp2b_trial_86_colour2_distractors31_r.png,r,2,034,001,2021-04-26_16h57.32.461,searchDisc4,2020.2.10,Win32,60,,,space,0.014025,2,1,0.548595,,0,224,224,428,1,2b,86,2,31,
,,,,,,,,,,,,,,,,,,,,,,,,,,images/exp2c_trial_52_colour3_distractors9_r.png,r,2,034,001,2021-04-26_16h57.32.461,searchDisc4,2020.2.10,Win32,60,,,space,0.03701,2,1,0.570615,,0,225,225,508,1,2c,52,3,9,
,,,,,,,,,,,,,,,,,,,,,,,,,,images/exp2c_trial_100_colour2_distractors1_l.png,l,1,034,001,2021-04-26_16h57.32.461,searchDisc4,2020.2.10,Win32,60,,,space,0.05087,1,1,0.455985,,0,226,226,556,1,2c,100,2,1,
,,,,,,,,,,,,,,,,,,,,,,,,,,images/exp2b_trial_26_colour2_distractors9_l.png,l,1,034,001,2021-04-26_16h57.32.461,searchDisc4,2020.2.10,Win32,60,,,space,0.005715,1,1,0.54353,,0,227,227,368,1,2b,26,2,9,
,,,,,,,,,,,,,,,,,,,,,,,,,,images/exp2b_trial_36_colour0_distractors0_r.png,r,2,034,001,2021-04-26_16h57.32.461,searchDisc4,2020.2.10,Win32,60,,,space,0.030635,2,1,0.401,,0,228,228,378,1,2b,36,0,0,
,,,,,,,,,,,,,,,,,,,,,,,,,,images/exp2a_trial_103_colour2_distractors19_l.png,l,1,034,001,2021-04-26_16h57.32.461,searchDisc4,2020.2.10,Win32,60,,,space,0.035355,1,1,0.498615,,0,229,229,331,1,2a,103,2,19,
,,,,,,,,,,,,,,,,,,,,,,,,,,images/exp2c_trial_106_colour3_distractors1_l.png,l,1,034,001,2021-04-26_16h57.32.461,searchDisc4,2020.2.10,Win32,60,,,space,0.02828,1,1,0.49142,,0,230,230,562,1,2c,106,3,1,
,,,,,,,,,,,,,,,,,,,,,,,,,,images/exp2b_trial_72_colour3_distractors31_l.png,l,1,034,001,2021-04-26_16h57.32.461,searchDisc4,2020.2.10,Win32,60,,,space,0.03572,1,1,0.61154,,0,231,231,414,1,2b,72,3,31,
,,,,,,,,,,,,,,,,,,,,,,,,,,images/exp2c_trial_111_colour3_distractors43_l.png,l,1,034,001,2021-04-26_16h57.32.461,searchDisc4,2020.2.10,Win32,60,,,space,0.032585,2,0,0.46318,,0,232,232,567,1,2c,111,3,43,
,,,,,,,,,,,,,,,,,,,,,,,,,,images/exp2c_trial_49_colour2_distractors43_r.png,r,2,034,001,2021-04-26_16h57.32.461,searchDisc4,2020.2.10,Win32,60,,,space,0.379115,2,1,0.458895,,0,233,233,505,1,2c,49,2,43,
,,,,,,,,,,,,,,,,,,,,,,,,,,images/exp2a_trial_19_colour1_distractors4_l.png,l,1,034,001,2021-04-26_16h57.32.461,searchDisc4,2020.2.10,Win32,60,,,space,0.074115,1,1,0.449835,,0,234,234,247,1,2a,19,1,4,
,,,,,,,,,,,,,,,,,,,,,,,,,,images/exp1a_trial_9_colour2_distractors19_r.png,r,2,034,001,2021-04-26_16h57.32.461,searchDisc4,2020.2.10,Win32,60,,,space,0.000585,2,1,0.57896,,0,235,235,9,1,1a,9,2,19,
,,,,,,,,,,,,,,,,,,,,,,,,,,images/exp2a_trial_13_colour3_distractors4_r.png,r,2,034,001,2021-04-26_16h57.32.461,searchDisc4,2020.2.10,Win32,60,,,space,0.007655,2,1,0.635525,,0,236,236,241,1,2a,13,3,4,
,,,,,,,,,,,,,,,,,,,,,,,,,,images/exp2b_trial_94_colour1_distractors1_l.png,l,1,034,001,2021-04-26_16h57.32.461,searchDisc4,2020.2.10,Win32,60,,,space,0.02097,1,1,0.648315,,0,237,237,436,1,2b,94,1,1,
,,,,,,,,,,,,,,,,,,,,,,,,,,images/exp2b_trial_87_colour2_distractors43_r.png,r,2,034,001,2021-04-26_16h57.32.461,searchDisc4,2020.2.10,Win32,60,,,space,0.039525,2,1,0.58443,,0,238,238,429,1,2b,87,2,43,
,,,,,,,,,,,,,,,,,,,,,,,,,,images/exp1a_trial_61_colour1_distractors43_l.png,l,1,034,001,2021-04-26_16h57.32.461,searchDisc4,2020.2.10,Win32,60,,,space,0.01189,1,1,0.49257,space,0,239,239,61,1,1a,61,1,43,0.02584
,,,,,,,,,,,,,,,,,,,,,,,,,,images/exp1a_trial_14_colour3_distractors9_r.png,r,2,034,001,2021-04-26_16h57.32.461,searchDisc4,2020.2.10,Win32,60,,,space,0.660085,2,1,0.429215,,0,240,240,14,1,1a,14,3,9,
,,,,,,,,,,,,,,,,,,,,,,,,,,images/exp2b_trial_3_colour1_distractors19_r.png,r,2,034,001,2021-04-26_16h57.32.461,searchDisc4,2020.2.10,Win32,60,,,space,0.007145,2,1,0.535975,,0,241,241,345,1,2b,3,1,19,
,,,,,,,,,,,,,,,,,,,,,,,,,,images/exp2a_trial_18_colour1_distractors1_l.png,l,1,034,001,2021-04-26_16h57.32.461,searchDisc4,2020.2.10,Win32,60,,,space,0.03195,1,1,0.474405,,0,242,242,246,1,2a,18,1,1,
,,,,,,,,,,,,,,,,,,,,,,,,,,images/exp2c_trial_109_colour3_distractors19_l.png,l,1,034,001,2021-04-26_16h57.32.461,searchDisc4,2020.2.10,Win32,60,,,space,0.03262,2,0,0.44256,,0,243,243,565,1,2c,109,3,19,
,,,,,,,,,,,,,,,,,,,,,,,,,,images/exp1a_trial_31_colour3_distractors4_l.png,l,1,034,001,2021-04-26_16h57.32.461,searchDisc4,2020.2.10,Win32,60,,,space,0.384765,1,1,0.516435,,0,244,244,31,1,1a,31,3,4,
,,,,,,,,,,,,,,,,,,,,,,,,,,images/exp2a_trial_62_colour2_distractors1_l.png,l,1,034,001,2021-04-26_16h57.32.461,searchDisc4,2020.2.10,Win32,60,,,space,0.014945,1,1,0.50796,,0,245,245,290,1,2a,62,2,1,
,,,,,,,,,,,,,,,,,,,,,,,,,,images/exp2a_trial_39_colour1_distractors4_r.png,r,2,034,001,2021-04-26_16h57.32.461,searchDisc4,2020.2.10,Win32,60,,,space,0.04174,2,1,0.531755,,0,246,246,267,1,2a,39,1,4,
,,,,,,,,,,,,,,,,,,,,,,,,,,images/exp1b_trial_39_colour1_distractors4_r.png,r,2,034,001,2021-04-26_16h57.32.461,searchDisc4,2020.2.10,Win32,60,,,space,0.041745,2,1,0.56442,,0,247,247,153,1,1b,39,1,4,
,,,,,,,,,,,,,,,,,,,,,,,,,,images/exp2b_trial_33_colour3_distractors19_l.png,l,1,034,001,2021-04-26_16h57.32.461,searchDisc4,2020.2.10,Win32,60,,,space,0.019935,1,1,0.51957,,0,248,248,375,1,2b,33,3,19,
,,,,,,,,,,,,,,,,,,,,,,,,,,images/exp2b_trial_29_colour2_distractors43_l.png,l,1,034,001,2021-04-26_16h57.32.461,searchDisc4,2020.2.10,Win32,60,,,space,0.018285,1,1,0.50758,,0,249,249,371,1,2b,29,2,43,
,,,,,,,,,,,,,,,,,,,,,,,,,,images/exp2a_trial_109_colour3_distractors19_l.png,l,1,034,001,2021-04-26_16h57.32.461,searchDisc4,2020.2.10,Win32,60,,,space,0.029385,2,0,0.485335,,0,250,250,337,1,2a,109,3,19,
,,,,,,,,,,,,,,,,,,,,,,,,,,images/exp2c_trial_83_colour2_distractors4_r.png,r,2,034,001,2021-04-26_16h57.32.461,searchDisc4,2020.2.10,Win32,60,,,space,0.022035,2,1,0.52862,,0,251,251,539,1,2c,83,2,4,
,,,,,,,,,,,,,,,,,,,,,,,,,,images/exp1b_trial_73_colour3_distractors43_l.png,l,1,034,001,2021-04-26_16h57.32.461,searchDisc4,2020.2.10,Win32,60,,,space,0.0637,1,1,0.582825,,0,252,252,187,1,1b,73,3,43,
,,,,,,,,,,,,,,,,,,,,,,,,,,images/exp1a_trial_73_colour3_distractors43_l.png,l,1,034,001,2021-04-26_16h57.32.461,searchDisc4,2020.2.10,Win32,60,,,space,0.000325,1,1,0.54663,,0,253,253,73,1,1a,73,3,43,
,,,,,,,,,,,,,,,,,,,,,,,,,,images/exp1a_trial_3_colour1_distractors19_r.png,r,2,034,001,2021-04-26_16h57.32.461,searchDisc4,2020.2.10,Win32,60,,,space,0.000425,2,1,0.70234,,0,254,254,3,1,1a,3,1,19,
,,,,,,,,,,,,,,,,,,,,,,,,,,images/exp2b_trial_109_colour3_distractors19_l.png,l,1,034,001,2021-04-26_16h57.32.461,searchDisc4,2020.2.10,Win32,60,,,space,0.486375,1,1,0.50593,,0,255,255,451,1,2b,109,3,19,
,,,,,,,,,,,,,,,,,,,,,,,,,,images/exp2c_trial_66_colour2_distractors31_l.png,l,1,034,001,2021-04-26_16h57.32.461,searchDisc4,2020.2.10,Win32,60,,,space,0.002305,1,1,0.48898,,0,256,256,522,1,2c,66,2,31,
,,,,,,,,,,,,,,,,,,,,,,,,,,images/exp2b_trial_84_colour2_distractors9_r.png,r,2,034,001,2021-04-26_16h57.32.461,searchDisc4,2020.2.10,Win32,60,,,space,0.0071,2,1,0.52598,,0,257,257,426,1,2b,84,2,9,
,,,,,,,,,,,,,,,,,,,,,,,,,,images/exp1b_trial_79_colour1_distractors19_r.png,r,2,034,001,2021-04-26_16h57.32.461,searchDisc4,2020.2.10,Win32,60,,,space,0.077075,2,1,0.62586,,0,258,258,193,1,1b,79,1,19,
,,,,,,,,,,,,,,,,,,,,,,,,,,images/exp2a_trial_96_colour1_distractors9_l.png,l,1,034,001,2021-04-26_16h57.32.461,searchDisc4,2020.2.10,Win32,60,,,space,0.05518,1,1,0.442615,,0,259,259,324,1,2a,96,1,9,
,,,,,,,,,,,,,,,,,,,,,,,,,,images/exp1b_trial_0_colour1_distractors1_r.png,r,2,034,001,2021-04-26_16h57.32.461,searchDisc4,2020.2.10,Win32,60,,,space,0.073975,2,1,0.47305,,0,260,260,114,1,1b,0,1,1,
,,,,,,,,,,,,,,,,,,,,,,,,,,images/exp2b_trial_97_colour1_distractors19_l.png,l,1,034,001,2021-04-26_16h57.32.461,searchDisc4,2020.2.10,Win32,60,,,space,0.11827,1,1,0.45974,,0,261,261,439,1,2b,97,1,19,
,,,,,,,,,,,,,,,,,,,,,,,,,,images/exp2a_trial_106_colour3_distractors1_l.png,l,1,034,001,2021-04-26_16h57.32.461,searchDisc4,2020.2.10,Win32,60,,,space,0.06693,1,1,0.468485,,0,262,262,334,1,2a,106,3,1,
,,,,,,,,,,,,,,,,,,,,,,,,,,images/exp2b_trial_22_colour1_distractors31_l.png,l,1,034,001,2021-04-26_16h57.32.461,searchDisc4,2020.2.10,Win32,60,,,space,0.069355,1,1,0.455735,,0,263,263,364,1,2b,22,1,31,
,,,,,,,,,,,,,,,,,,,,,,,,,,images/exp2c_trial_55_colour3_distractors43_r.png,r,2,034,001,2021-04-26_16h57.32.461,searchDisc4,2020.2.10,Win32,60,,,space,0.152925,2,1,0.436915,,0,264,264,511,1,2c,55,3,43,
,,,,,,,,,,,,,,,,,,,,,,,,,,images/exp2c_trial_6_colour2_distractors1_r.png,r,2,034,001,2021-04-26_16h57.32.461,searchDisc4,2020.2.10,Win32,60,,,space,0.069525,2,1,0.473725,,0,265,265,462,1,2c,6,2,1,
,,,,,,,,,,,,,,,,,,,,,,,,,,images/exp2b_trial_40_colour1_distractors9_r.png,r,2,034,001,2021-04-26_16h57.32.461,searchDisc4,2020.2.10,Win32,60,,,space,0.080785,2,1,0.56388,,0,266,266,382,1,2b,40,1,9,
,,,,,,,,,,,,,,,,,,,,,,,,,,images/exp1b_trial_87_colour2_distractors43_r.png,r,2,034,001,2021-04-26_16h57.32.461,searchDisc4,2020.2.10,Win32,60,,,space,0.044505,2,1,0.73286,,0,267,267,201,1,1b,87,2,43,
,,,,,,,,,,,,,,,,,,,,,,,,,,images/exp1b_trial_31_colour3_distractors4_l.png,l,1,034,001,2021-04-26_16h57.32.461,searchDisc4,2020.2.10,Win32,60,,,space,0.00047,1,1,0.827755,,0,268,268,145,1,1b,31,3,4,
,,,,,,,,,,,,,,,,,,,,,,,,,,images/exp1a_trial_56_colour1_distractors1_l.png,l,1,034,001,2021-04-26_16h57.32.461,searchDisc4,2020.2.10,Win32,60,,,space,0.005325,1,1,0.55942,,0,269,269,56,1,1a,56,1,1,
,,,,,,,,,,,,,,,,,,,,,,,,,,images/exp2b_trial_32_colour3_distractors9_l.png,l,1,034,001,2021-04-26_16h57.32.461,searchDisc4,2020.2.10,Win32,60,,,space,0.54917,1,1,0.70267,,0,270,270,374,1,2b,32,3,9,
,,,,,,,,,,,,,,,,,,,,,,,,,,images/exp2a_trial_55_colour3_distractors43_r.png,r,2,034,001,2021-04-26_16h57.32.461,searchDisc4,2020.2.10,Win32,60,,,space,0.000515,2,1,0.575715,,0,271,271,283,1,2a,55,3,43,
,,,,,,,,,,,,,,,,,,,,,,,,,,images/exp1b_trial_46_colour2_distractors9_r.png,r,2,034,001,2021-04-26_16h57.32.461,searchDisc4,2020.2.10,Win32,60,,,space,0.068915,2,1,0.75461,,0,272,272,160,1,1b,46,2,9,
,,,,,,,,,,,,,,,,,,,,,,,,,,images/exp2a_trial_76_colour1_distractors1_r.png,r,2,034,001,2021-04-26_16h57.32.461,searchDisc4,2020.2.10,Win32,60,,,space,0.042415,1,0,0.506815,,0,273,273,304,1,2a,76,1,1,
,,,,,,,,,,,,,,,,,,,,,,,,,,images/exp1a_trial_64_colour2_distractors9_l.png,l,1,034,001,2021-04-26_16h57.32.461,searchDisc4,2020.2.10,Win32,60,,,space,0.042485,1,1,0.541265,,0,274,274,64,1,1a,64,2,9,
,,,,,,,,,,,,,,,,,,,,,,,,,,images/exp2a_trial_60_colour1_distractors31_l.png,l,1,034,001,2021-04-26_16h57.32.461,searchDisc4,2020.2.10,Win32,60,,,space,0.035055,1,1,0.725615,,0,275,275,288,1,2a,60,1,31,
,,,,,,,,,,,,,,,,,,,,,,,,,,images/exp2c_trial_47_colour2_distractors19_r.png,r,2,034,001,2021-04-26_16h57.32.461,searchDisc4,2020.2.10,Win32,60,,,space,0.021415,2,1,0.528225,,0,276,276,503,1,2c,47,2,19,
,,,,,,,,,,,,,,,,,,,,,,,,,,images/exp2b_trial_105_colour2_distractors43_l.png,l,1,034,001,2021-04-26_16h57.32.461,searchDisc4,2020.2.10,Win32,60,,,space,0.016295,2,0,0.577245,,0,277,277,447,1,2b,105,2,43,
,,,,,,,,,,,,,,,,,,,,,,,,,,images/exp2a_trial_70_colour3_distractors9_l.png,l,1,034,001,2021-04-26_16h57.32.461,searchDisc4,2020.2.10,Win32,60,,,space,0.442785,1,1,0.432955,,0,278,278,298,1,2a,70,3,9,
,,,,,,,,,,,,,,,,,,,,,,,,,,images/exp2a_trial_12_colour3_distractors1_r.png,r,2,034,001,2021-04-26_16h57.32.461,searchDisc4,2020.2.10,Win32,60,,,space,0.000505,2,1,0.543845,,0,279,279,240,1,2a,12,3,1,
,,,,,,,,,,,,,,,,,,,,,,,,,,images/exp1a_trial_67_colour2_distractors43_l.png,l,1,034,001,2021-04-26_16h57.32.461,searchDisc4,2020.2.10,Win32,60,,,space,0.057575,1,1,0.6368,,0,280,280,67,1,1a,67,2,43,
,,,,,,,,,,,,,,,,,,,,,,,,,,images/exp2a_trial_82_colour2_distractors1_r.png,r,2,034,001,2021-04-26_16h57.32.461,searchDisc4,2020.2.10,Win32,60,,,space,0.028105,2,1,0.604015,,0,281,281,310,1,2a,82,2,1,
,,,,,,,,,,,,,,,,,,,,,,,,,,images/exp2a_trial_98_colour1_distractors31_l.png,l,1,034,001,2021-04-26_16h57.32.461,searchDisc4,2020.2.10,Win32,60,,,space,0.00738,1,1,0.50823,,0,282,282,326,1,2a,98,1,31,
,,,,,,,,,,,,,,,,,,,,,,,,,,images/exp1b_trial_57_colour1_distractors4_l.png,l,1,034,001,2021-04-26_16h57.32.461,searchDisc4,2020.2.10,Win32,60,,,space,0.02548,1,1,2.799885,,0,283,283,171,1,1b,57,1,4,
,,,,,,,,,,,,,,,,,,,,,,,,,,images/exp2b_trial_80_colour1_distractors31_r.png,r,2,034,001,2021-04-26_16h57.32.461,searchDisc4,2020.2.10,Win32,60,,,space,0.014145,2,1,0.552065,,0,284,284,422,1,2b,80,1,31,
,,,,,,,,,,,,,,,,,,,,,,,,,,images/exp1b_trial_35_colour3_distractors43_l.png,l,1,034,001,2021-04-26_16h57.32.461,searchDisc4,2020.2.10,Win32,60,,,space,0.056875,1,1,2.572,,0,285,285,149,1,1b,35,3,43,
,,,,,,,,,,,,,,,,,,,,,,,,,,images/exp2b_trial_68_colour3_distractors1_l.png,l,1,034,001,2021-04-26_16h57.32.461,searchDisc4,2020.2.10,Win32,60,,,space,0.06682,1,1,0.63044,,0,286,286,410,1,2b,68,3,1,
,,,,,,,,,,,,,,,,,,,,,,,,,,images/exp2c_trial_20_colour1_distractors9_l.png,l,1,034,001,2021-04-26_16h57.32.461,searchDisc4,2020.2.10,Win32,60,,,space,0.01374,1,1,0.50343,,0,287,287,476,1,2c,20,1,9,
,,,,,,,,,,,,,,,,,,,,,,,,,,images/exp1a_trial_50_colour3_distractors1_r.png,r,2,034,001,2021-04-26_16h57.32.461,searchDisc4,2020.2.10,Win32,60,,,space,0.0285,2,1,0.538275,,0,288,288,50,1,1a,50,3,1,
,,,,,,,,,,,,,,,,,,,,,,,,,,images/exp1a_trial_21_colour1_distractors19_l.png,l,1,034,001,2021-04-26_16h57.32.461,searchDisc4,2020.2.10,Win32,60,,,space,0.007085,1,1,0.517675,,0,289,289,21,1,1a,21,1,19,
,,,,,,,,,,,,,,,,,,,,,,,,,,images/exp2c_trial_82_colour2_distractors1_r.png,r,2,034,001,2021-04-26_16h57.32.461,searchDisc4,2020.2.10,Win32,60,,,space,0.028495,2,1,0.577015,,0,290,290,538,1,2c,82,2,1,
,,,,,,,,,,,,,,,,,,,,,,,,,,images/exp2c_trial_69_colour3_distractors4_l.png,l,1,034,001,2021-04-26_16h57.32.461,searchDisc4,2020.2.10,Win32,60,,,space,0.076755,1,1,0.597495,,0,291,291,525,1,2c,69,3,4,
,,,,,,,,,,,,,,,,,,,,,,,,,,images/exp2a_trial_40_colour1_distractors9_r.png,r,2,034,001,2021-04-26_16h57.32.461,searchDisc4,2020.2.10,Win32,60,,,space,0.0366,2,1,0.632085,,0,292,292,268,1,2a,40,1,9,
,,,,,,,,,,,,,,,,,,,,,,,,,,images/exp2c_trial_112_colour0_distractors0_r.png,r,2,034,001,2021-04-26_16h57.32.461,searchDisc4,2020.2.10,Win32,60,,,space,0.02817,2,1,0.59245,,0,293,293,568,1,2c,112,0,0,
,,,,,,,,,,,,,,,,,,,,,,,,,,images/exp2b_trial_55_colour3_distractors43_r.png,r,2,034,001,2021-04-26_16h57.32.461,searchDisc4,2020.2.10,Win32,60,,,space,0.032955,2,1,0.6558,,0,294,294,397,1,2b,55,3,43,
,,,,,,,,,,,,,,,,,,,,,,,,,,images/exp1a_trial_11_colour2_distractors43_r.png,r,2,034,001,2021-04-26_16h57.32.461,searchDisc4,2020.2.10,Win32,60,,,space,0.05266,2,1,0.47929,,0,295,295,11,1,1a,11,2,43,
,,,,,,,,,,,,,,,,,,,,,,,,,,images/exp1a_trial_51_colour3_distractors4_r.png,r,2,034,001,2021-04-26_16h57.32.461,searchDisc4,2020.2.10,Win32,60,,,space,0.07563,2,1,0.4518,,0,296,296,51,1,1a,51,3,4,
,,,,,,,,,,,,,,,,,,,,,,,,,,images/exp1b_trial_9_colour2_distractors19_r.png,r,2,034,001,2021-04-26_16h57.32.461,searchDisc4,2020.2.10,Win32,60,,,space,0.1279,2,1,0.85437,,0,297,297,123,1,1b,9,2,19,
,,,,,,,,,,,,,,,,,,,,,,,,,,images/exp2b_trial_54_colour3_distractors31_r.png,r,2,034,001,2021-04-26_16h57.32.461,searchDisc4,2020.2.10,Win32,60,,,space,0.491885,2,1,0.590095,,0,298,298,396,1,2b,54,3,31,
,,,,,,,,,,,,,,,,,,,,,,,,,,images/exp2c_trial_113_colour0_distractors0_l.png,l,1,034,001,2021-04-26_16h57.32.461,searchDisc4,2020.2.10,Win32,60,,,space,0.015045,1,1,0.513025,space,0,299,299,569,1,2c,113,0,0,0.05902
,,,,,,,,,,,,,,,,,,,,,,,,,,images/exp1b_trial_18_colour1_distractors1_l.png,l,1,034,001,2021-04-26_16h57.32.461,searchDisc4,2020.2.10,Win32,60,,,space,0.48335,1,1,0.613055,,0,300,300,132,1,1b,18,1,1,
,,,,,,,,,,,,,,,,,,,,,,,,,,images/exp1b_trial_12_colour3_distractors1_r.png,r,2,034,001,2021-04-26_16h57.32.461,searchDisc4,2020.2.10,Win32,60,,,space,0.0417,2,1,0.826005,,0,301,301,126,1,1b,12,3,1,
,,,,,,,,,,,,,,,,,,,,,,,,,,images/exp2b_trial_52_colour3_distractors9_r.png,r,2,034,001,2021-04-26_16h57.32.461,searchDisc4,2020.2.10,Win32,60,,,space,0.03073,2,1,0.757675,,0,302,302,394,1,2b,52,3,9,
,,,,,,,,,,,,,,,,,,,,,,,,,,images/exp2c_trial_27_colour2_distractors19_l.png,l,1,034,001,2021-04-26_16h57.32.461,searchDisc4,2020.2.10,Win32,60,,,space,0.028565,1,1,0.4731,,0,303,303,483,1,2c,27,2,19,
,,,,,,,,,,,,,,,,,,,,,,,,,,images/exp1a_trial_68_colour3_distractors1_l.png,l,1,034,001,2021-04-26_16h57.32.461,searchDisc4,2020.2.10,Win32,60,,,space,0.05458,1,1,0.56166,,0,304,304,68,1,1a,68,3,1,
,,,,,,,,,,,,,,,,,,,,,,,,,,images/exp2c_trial_88_colour3_distractors1_r.png,r,2,034,001,2021-04-26_16h57.32.461,searchDisc4,2020.2.10,Win32,60,,,space,0.03136,2,1,0.566575,,0,305,305,544,1,2c,88,3,1,
,,,,,,,,,,,,,,,,,,,,,,,,,,images/exp2c_trial_79_colour1_distractors19_r.png,r,2,034,001,2021-04-26_16h57.32.461,searchDisc4,2020.2.10,Win32,60,,,space,0.03908,2,1,0.54501,,0,306,306,535,1,2c,79,1,19,
,,,,,,,,,,,,,,,,,,,,,,,,,,images/exp2a_trial_29_colour2_distractors43_l.png,l,1,034,001,2021-04-26_16h57.32.461,searchDisc4,2020.2.10,Win32,60,,,space,0.01854,1,1,0.48499,,0,307,307,257,1,2a,29,2,43,
,,,,,,,,,,,,,,,,,,,,,,,,,,images/exp2a_trial_79_colour1_distractors19_r.png,r,2,034,001,2021-04-26_16h57.32.461,searchDisc4,2020.2.10,Win32,60,,,space,0.06951,2,1,0.46026,,0,308,308,307,1,2a,79,1,19,
,,,,,,,,,,,,,,,,,,,,,,,,,,images/exp2a_trial_65_colour2_distractors19_l.png,l,1,034,001,2021-04-26_16h57.32.461,searchDisc4,2020.2.10,Win32,60,,,space,0.10425,1,1,0.440375,,0,309,309,293,1,2a,65,2,19,
,,,,,,,,,,,,,,,,,,,,,,,,,,images/exp1a_trial_53_colour3_distractors19_r.png,r,2,034,001,2021-04-26_16h57.32.461,searchDisc4,2020.2.10,Win32,60,,,space,0.072015,2,1,0.40342,,0,310,310,53,1,1a,53,3,19,
,,,,,,,,,,,,,,,,,,,,,,,,,,images/exp1a_trial_66_colour2_distractors31_l.png,l,1,034,001,2021-04-26_16h57.32.461,searchDisc4,2020.2.10,Win32,60,,,space,0.137235,1,1,0.622625,,0,311,311,66,1,1a,66,2,31,
,,,,,,,,,,,,,,,,,,,,,,,,,,images/exp2c_trial_13_colour3_distractors4_r.png,r,2,034,001,2021-04-26_16h57.32.461,searchDisc4,2020.2.10,Win32,60,,,space,0.09786,2,1,0.583835,,0,312,312,469,1,2c,13,3,4,
,,,,,,,,,,,,,,,,,,,,,,,,,,images/exp2c_trial_71_colour3_distractors19_l.png,l,1,034,001,2021-04-26_16h57.32.461,searchDisc4,2020.2.10,Win32,60,,,space,0.038725,1,1,0.41229,,0,313,313,527,1,2c,71,3,19,
,,,,,,,,,,,,,,,,,,,,,,,,,,images/exp2b_trial_51_colour3_distractors4_r.png,r,2,034,001,2021-04-26_16h57.32.461,searchDisc4,2020.2.10,Win32,60,,,space,0.086735,2,1,0.39243,,0,314,314,393,1,2b,51,3,4,
,,,,,,,,,,,,,,,,,,,,,,,,,,images/exp2a_trial_69_colour3_distractors4_l.png,l,1,034,001,2021-04-26_16h57.32.461,searchDisc4,2020.2.10,Win32,60,,,space,0.083645,1,1,0.39583,,0,315,315,297,1,2a,69,3,4,
,,,,,,,,,,,,,,,,,,,,,,,,,,images/exp2b_trial_85_colour2_distractors19_r.png,r,2,034,001,2021-04-26_16h57.32.461,searchDisc4,2020.2.10,Win32,60,,,space,0.083545,2,1,0.387155,,0,316,316,427,1,2b,85,2,19,
,,,,,,,,,,,,,,,,,,,,,,,,,,images/exp1b_trial_16_colour3_distractors31_r.png,r,2,034,001,2021-04-26_16h57.32.461,searchDisc4,2020.2.10,Win32,60,,,space,0.109155,1,0,0.77412,,0,317,317,130,1,1b,16,3,31,
,,,,,,,,,,,,,,,,,,,,,,,,,,images/exp2a_trial_95_colour1_distractors4_l.png,l,1,034,001,2021-04-26_16h57.32.461,searchDisc4,2020.2.10,Win32,60,,,space,0.15457,1,1,0.62567,,0,318,318,323,1,2a,95,1,4,
,,,,,,,,,,,,,,,,,,,,,,,,,,images/exp1b_trial_98_colour1_distractors31_l.png,l,1,034,001,2021-04-26_16h57.32.461,searchDisc4,2020.2.10,Win32,60,,,space,0.040695,1,1,0.99852,,0,319,319,212,1,1b,98,1,31,
,,,,,,,,,,,,,,,,,,,,,,,,,,images/exp2b_trial_65_colour2_distractors19_l.png,l,1,034,001,2021-04-26_16h57.32.461,searchDisc4,2020.2.10,Win32,60,,,space,0.05789,1,1,0.62582,,0,320,320,407,1,2b,65,2,19,
,,,,,,,,,,,,,,,,,,,,,,,,,,images/exp2a_trial_108_colour3_distractors9_l.png,l,1,034,001,2021-04-26_16h57.32.461,searchDisc4,2020.2.10,Win32,60,,,space,0.035485,1,1,0.44935,,0,321,321,336,1,2a,108,3,9,
,,,,,,,,,,,,,,,,,,,,,,,,,,images/exp2a_trial_54_colour3_distractors31_r.png,r,2,034,001,2021-04-26_16h57.32.461,searchDisc4,2020.2.10,Win32,60,,,space,0.100315,1,0,0.46604,,0,322,322,282,1,2a,54,3,31,
,,,,,,,,,,,,,,,,,,,,,,,,,,images/exp2b_trial_14_colour3_distractors9_r.png,r,2,034,001,2021-04-26_16h57.32.461,searchDisc4,2020.2.10,Win32,60,,,space,0.03386,2,1,0.032835,,0,323,323,356,1,2b,14,3,9,
,,,,,,,,,,,,,,,,,,,,,,,,,,images/exp1b_trial_24_colour2_distractors1_l.png,l,1,034,001,2021-04-26_16h57.32.461,searchDisc4,2020.2.10,Win32,60,,,space,0.822525,1,1,0.634045,,0,324,324,138,1,1b,24,2,1,
,,,,,,,,,,,,,,,,,,,,,,,,,,images/exp2a_trial_84_colour2_distractors9_r.png,r,2,034,001,2021-04-26_16h57.32.461,searchDisc4,2020.2.10,Win32,60,,,space,0.47914,2,1,0.42292,,0,325,325,312,1,2a,84,2,9,
,,,,,,,,,,,,,,,,,,,,,,,,,,images/exp1a_trial_106_colour3_distractors1_l.png,l,1,034,001,2021-04-26_16h57.32.461,searchDisc4,2020.2.10,Win32,60,,,space,0.01384,1,1,0.52484,,0,326,326,106,1,1a,106,3,1,
,,,,,,,,,,,,,,,,,,,,,,,,,,images/exp1b_trial_95_colour1_distractors4_l.png,l,1,034,001,2021-04-26_16h57.32.461,searchDisc4,2020.2.10,Win32,60,,,space,0.05562,1,1,0.682195,,0,327,327,209,1,1b,95,1,4,
,,,,,,,,,,,,,,,,,,,,,,,,,,images/exp1b_trial_64_colour2_distractors9_l.png,l,1,034,001,2021-04-26_16h57.32.461,searchDisc4,2020.2.10,Win32,60,,,space,0.03769,1,1,0.697315,,0,328,328,178,1,1b,64,2,9,
,,,,,,,,,,,,,,,,,,,,,,,,,,images/exp2b_trial_89_colour3_distractors4_r.png,r,2,034,001,2021-04-26_16h57.32.461,searchDisc4,2020.2.10,Win32,60,,,space,0.021765,2,1,0.674395,,0,329,329,431,1,2b,89,3,4,
,,,,,,,,,,,,,,,,,,,,,,,,,,images/exp2c_trial_5_colour1_distractors43_r.png,r,2,034,001,2021-04-26_16h57.32.461,searchDisc4,2020.2.10,Win32,60,,,space,0.012375,2,1,0.65055,,0,330,330,461,1,2c,5,1,43,
,,,,,,,,,,,,,,,,,,,,,,,,,,images/exp1a_trial_34_colour3_distractors31_l.png,l,1,034,001,2021-04-26_16h57.32.461,searchDisc4,2020.2.10,Win32,60,,,space,0.499135,1,1,0.6177,,0,331,331,34,1,1a,34,3,31,
,,,,,,,,,,,,,,,,,,,,,,,,,,images/exp2a_trial_113_colour0_distractors0_l.png,l,1,034,001,2021-04-26_16h57.32.461,searchDisc4,2020.2.10,Win32,60,,,space,0.048115,1,1,0.44029,,0,332,332,341,1,2a,113,0,0,
,,,,,,,,,,,,,,,,,,,,,,,,,,images/exp2a_trial_22_colour1_distractors31_l.png,l,1,034,001,2021-04-26_16h57.32.461,searchDisc4,2020.2.10,Win32,60,,,space,0.0331,1,1,0.529475,,0,333,333,250,1,2a,22,1,31,
,,,,,,,,,,,,,,,,,,,,,,,,,,images/exp1b_trial_3_colour1_distractors19_r.png,r,2,034,001,2021-04-26_16h57.32.461,searchDisc4,2020.2.10,Win32,60,,,space,0.060215,2,1,0.66824,,0,334,334,117,1,1b,3,1,19,
,,,,,,,,,,,,,,,,,,,,,,,,,,images/exp1a_trial_94_colour1_distractors1_l.png,l,1,034,001,2021-04-26_16h57.32.461,searchDisc4,2020.2.10,Win32,60,,,space,0.02798,1,1,0.540855,,0,335,335,94,1,1a,94,1,1,
,,,,,,,,,,,,,,,,,,,,,,,,,,images/exp1b_trial_106_colour3_distractors1_l.png,l,1,034,001,2021-04-26_16h57.32.461,searchDisc4,2020.2.10,Win32,60,,,space,0.046245,1,1,0.885225,,0,336,336,220,1,1b,106,3,1,
,,,,,,,,,,,,,,,,,,,,,,,,,,images/exp2b_trial_27_colour2_distractors19_l.png,l,1,034,001,2021-04-26_16h57.32.461,searchDisc4,2020.2.10,Win32,60,,,space,0.028995,1,1,0.822245,,0,337,337,369,1,2b,27,2,19,
,,,,,,,,,,,,,,,,,,,,,,,,,,images/exp2b_trial_7_colour2_distractors4_r.png,r,2,034,001,2021-04-26_16h57.32.461,searchDisc4,2020.2.10,Win32,60,,,space,0.037035,2,1,0.597505,,0,338,338,349,1,2b,7,2,4,
,,,,,,,,,,,,,,,,,,,,,,,,,,images/exp2b_trial_16_colour3_distractors31_r.png,r,2,034,001,2021-04-26_16h57.32.461,searchDisc4,2020.2.10,Win32,60,,,space,0.411195,1,0,0.51914,,0,339,339,358,1,2b,16,3,31,
,,,,,,,,,,,,,,,,,,,,,,,,,,images/exp1a_trial_5_colour1_distractors43_r.png,r,2,034,001,2021-04-26_16h57.32.461,searchDisc4,2020.2.10,Win32,60,,,space,0.016035,2,1,0.65304,,0,340,340,5,1,1a,5,1,43,
,,,,,,,,,,,,,,,,,,,,,,,,,,images/exp1a_trial_89_colour3_distractors4_r.png,r,2,034,001,2021-04-26_16h57.32.461,searchDisc4,2020.2.10,Win32,60,,,space,0.09024,2,1,0.611775,,0,341,341,89,1,1a,89,3,4,
,,,,,,,,,,,,,,,,,,,,,,,,,,images/exp2b_trial_57_colour1_distractors4_l.png,l,1,034,001,2021-04-26_16h57.32.461,searchDisc4,2020.2.10,Win32,60,,,space,0.007065,1,1,0.528635,,0,342,342,399,1,2b,57,1,4,
,,,,,,,,,,,,,,,,,,,,,,,,,,images/exp2b_trial_73_colour3_distractors43_l.png,l,1,034,001,2021-04-26_16h57.32.461,searchDisc4,2020.2.10,Win32,60,,,space,0.0253,1,1,0.558245,,0,343,343,415,1,2b,73,3,43,
,,,,,,,,,,,,,,,,,,,,,,,,,,images/exp2b_trial_50_colour3_distractors1_r.png,r,2,034,001,2021-04-26_16h57.32.461,searchDisc4,2020.2.10,Win32,60,,,space,0.03486,2,1,0.558465,,0,344,344,392,1,2b,50,3,1,
,,,,,,,,,,,,,,,,,,,,,,,,,,images/exp2c_trial_21_colour1_distractors19_l.png,l,1,034,001,2021-04-26_16h57.32.461,searchDisc4,2020.2.10,Win32,60,,,space,0.0422,1,1,0.536795,,0,345,345,477,1,2c,21,1,19,
,,,,,,,,,,,,,,,,,,,,,,,,,,images/exp1b_trial_6_colour2_distractors1_r.png,r,2,034,001,2021-04-26_16h57.32.461,searchDisc4,2020.2.10,Win32,60,,,space,0.047885,2,1,0.581915,,0,346,346,120,1,1b,6,2,1,
,,,,,,,,,,,,,,,,,,,,,,,,,,images/exp1b_trial_99_colour1_distractors43_l.png,l,1,034,001,2021-04-26_16h57.32.461,searchDisc4,2020.2.10,Win32,60,,,space,0.02788,1,1,0.57345,,0,347,347,213,1,1b,99,1,43,
,,,,,,,,,,,,,,,,,,,,,,,,,,images/exp1b_trial_74_colour0_distractors0_r.png,r,2,034,001,2021-04-26_16h57.32.461,searchDisc4,2020.2.10,Win32,60,,,space,0.03982,2,1,0.57238,,0,348,348,188,1,1b,74,0,0,
,,,,,,,,,,,,,,,,,,,,,,,,,,images/exp2a_trial_46_colour2_distractors9_r.png,r,2,034,001,2021-04-26_16h57.32.461,searchDisc4,2020.2.10,Win32,60,,,space,0.02657,2,1,0.633675,,0,349,349,274,1,2a,46,2,9,
,,,,,,,,,,,,,,,,,,,,,,,,,,images/exp2a_trial_37_colour0_distractors0_l.png,l,1,034,001,2021-04-26_16h57.32.461,searchDisc4,2020.2.10,Win32,60,,,space,0.039835,1,1,0.50438,,0,350,350,265,1,2a,37,0,0,
,,,,,,,,,,,,,,,,,,,,,,,,,,images/exp1a_trial_16_colour3_distractors31_r.png,r,2,034,001,2021-04-26_16h57.32.461,searchDisc4,2020.2.10,Win32,60,,,space,0.06468,2,1,0.54767,,0,351,351,16,1,1a,16,3,31,
,,,,,,,,,,,,,,,,,,,,,,,,,,images/exp1b_trial_80_colour1_distractors31_r.png,r,2,034,001,2021-04-26_16h57.32.461,searchDisc4,2020.2.10,Win32,60,,,space,0.0228,2,1,0.791015,,0,352,352,194,1,1b,80,1,31,
,,,,,,,,,,,,,,,,,,,,,,,,,,images/exp1b_trial_112_colour0_distractors0_r.png,r,2,034,001,2021-04-26_16h57.32.461,searchDisc4,2020.2.10,Win32,60,,,space,0.06116,2,1,0.46212,,0,353,353,226,1,1b,112,0,0,
,,,,,,,,,,,,,,,,,,,,,,,,,,images/exp2b_trial_17_colour3_distractors43_r.png,r,2,034,001,2021-04-26_16h57.32.461,searchDisc4,2020.2.10,Win32,60,,,space,0.099555,2,1,0.554165,,0,354,354,359,1,2b,17,3,43,
,,,,,,,,,,,,,,,,,,,,,,,,,,images/exp1b_trial_30_colour3_distractors1_l.png,l,1,034,001,2021-04-26_16h57.32.461,searchDisc4,2020.2.10,Win32,60,,,space,0.012025,1,1,0.757315,,0,355,355,144,1,1b,30,3,1,
,,,,,,,,,,,,,,,,,,,,,,,,,,images/exp1a_trial_105_colour2_distractors43_l.png,l,1,034,001,2021-04-26_16h57.32.461,searchDisc4,2020.2.10,Win32,60,,,space,0.48473,1,1,0.4658,,0,356,356,105,1,1a,105,2,43,
,,,,,,,,,,,,,,,,,,,,,,,,,,images/exp1b_trial_101_colour2_distractors4_l.png,l,1,034,001,2021-04-26_16h57.32.461,searchDisc4,2020.2.10,Win32,60,,,space,0.07299,1,1,0.71967,,0,357,357,215,1,1b,101,2,4,
,,,,,,,,,,,,,,,,,,,,,,,,,,images/exp2c_trial_104_colour2_distractors31_l.png,l,1,034,001,2021-04-26_16h57.32.461,searchDisc4,2020.2.10,Win32,60,,,space,0.140515,1,1,0.490075,,0,358,358,560,1,2c,104,2,31,
,,,,,,,,,,,,,,,,,,,,,,,,,,images/exp2a_trial_105_colour2_distractors43_l.png,l,1,034,001,2021-04-26_16h57.32.461,searchDisc4,2020.2.10,Win32,60,,,space,0.054495,1,1,0.55468,space,0,359,359,333,1,2a,105,2,43,0.078865
,,,,,,,,,,,,,,,,,,,,,,,,,,images/exp1a_trial_1_colour1_distractors4_r.png,r,2,034,001,2021-04-26_16h57.32.461,searchDisc4,2020.2.10,Win32,60,,,space,0.813175,2,1,0.49537,,0,360,360,1,1,1a,1,1,4,
,,,,,,,,,,,,,,,,,,,,,,,,,,images/exp1b_trial_94_colour1_distractors1_l.png,l,1,034,001,2021-04-26_16h57.32.461,searchDisc4,2020.2.10,Win32,60,,,space,0.05691,1,1,0.47082,,0,361,361,208,1,1b,94,1,1,
,,,,,,,,,,,,,,,,,,,,,,,,,,images/exp1b_trial_32_colour3_distractors9_l.png,l,1,034,001,2021-04-26_16h57.32.461,searchDisc4,2020.2.10,Win32,60,,,space,0.04238,1,1,1.17652,,0,362,362,146,1,1b,32,3,9,
,,,,,,,,,,,,,,,,,,,,,,,,,,images/exp1b_trial_4_colour1_distractors31_r.png,r,2,034,001,2021-04-26_16h57.32.461,searchDisc4,2020.2.10,Win32,60,,,space,0.029215,2,1,0.59001,,0,363,363,118,1,1b,4,1,31,
,,,,,,,,,,,,,,,,,,,,,,,,,,images/exp2a_trial_81_colour1_distractors43_r.png,r,2,034,001,2021-04-26_16h57.32.461,searchDisc4,2020.2.10,Win32,60,,,space,0.46553,2,1,0.50779,,0,364,364,309,1,2a,81,1,43,
,,,,,,,,,,,,,,,,,,,,,,,,,,images/exp2b_trial_99_colour1_distractors43_l.png,l,1,034,001,2021-04-26_16h57.32.461,searchDisc4,2020.2.10,Win32,60,,,space,0.02361,1,1,0.488495,,0,365,365,441,1,2b,99,1,43,
,,,,,,,,,,,,,,,,,,,,,,,,,,images/exp2c_trial_64_colour2_distractors9_l.png,l,1,034,001,2021-04-26_16h57.32.461,searchDisc4,2020.2.10,Win32,60,,,space,0.07503,1,1,0.65757,,0,366,366,520,1,2c,64,2,9,
,,,,,,,,,,,,,,,,,,,,,,,,,,images/exp2a_trial_61_colour1_distractors43_l.png,l,1,034,001,2021-04-26_16h57.32.461,searchDisc4,2020.2.10,Win32,60,,,space,0.047235,1,1,0.497935,,0,367,367,289,1,2a,61,1,43,
,,,,,,,,,,,,,,,,,,,,,,,,,,images/exp1b_trial_42_colour1_distractors31_r.png,r,2,034,001,2021-04-26_16h57.32.461,searchDisc4,2020.2.10,Win32,60,,,space,0.05028,2,1,0.857675,,0,368,368,156,1,1b,42,1,31,
,,,,,,,,,,,,,,,,,,,,,,,,,,images/exp2b_trial_107_colour3_distractors4_l.png,l,1,034,001,2021-04-26_16h57.32.461,searchDisc4,2020.2.10,Win32,60,,,space,0.02816,1,1,0.48541,,0,369,369,449,1,2b,107,3,4,
,,,,,,,,,,,,,,,,,,,,,,,,,,images/exp2b_trial_104_colour2_distractors31_l.png,l,1,034,001,2021-04-26_16h57.32.461,searchDisc4,2020.2.10,Win32,60,,,space,0.09752,2,0,0.581405,,0,370,370,446,1,2b,104,2,31,
,,,,,,,,,,,,,,,,,,,,,,,,,,images/exp2a_trial_53_colour3_distractors19_r.png,r,2,034,001,2021-04-26_16h57.32.461,searchDisc4,2020.2.10,Win32,60,,,space,0.450215,2,1,0.524605,,0,371,371,281,1,2a,53,3,19,
,,,,,,,,,,,,,,,,,,,,,,,,,,images/exp2b_trial_42_colour1_distractors31_r.png,r,2,034,001,2021-04-26_16h57.32.461,searchDisc4,2020.2.10,Win32,60,,,space,0.013975,2,1,0.555045,,0,372,372,384,1,2b,42,1,31,
,,,,,,,,,,,,,,,,,,,,,,,,,,images/exp2a_trial_26_colour2_distractors9_l.png,l,1,034,001,2021-04-26_16h57.32.461,searchDisc4,2020.2.10,Win32,60,,,space,0.00049,1,1,0.572965,,0,373,373,254,1,2a,26,2,9,
,,,,,,,,,,,,,,,,,,,,,,,,,,images/exp2b_trial_56_colour1_distractors1_l.png,l,1,034,001,2021-04-26_16h57.32.461,searchDisc4,2020.2.10,Win32,60,,,space,0.0214,1,1,0.465015,,0,374,374,398,1,2b,56,1,1,
,,,,,,,,,,,,,,,,,,,,,,,,,,images/exp1a_trial_95_colour1_distractors4_l.png,l,1,034,001,2021-04-26_16h57.32.461,searchDisc4,2020.2.10,Win32,60,,,space,0.01884,1,1,0.549745,,0,375,375,95,1,1a,95,1,4,
,,,,,,,,,,,,,,,,,,,,,,,,,,images/exp1a_trial_97_colour1_distractors19_l.png,l,1,034,001,2021-04-26_16h57.32.461,searchDisc4,2020.2.10,Win32,60,,,space,0.05373,1,1,0.56698,,0,376,376,97,1,1a,97,1,19,
,,,,,,,,,,,,,,,,,,,,,,,,,,images/exp1a_trial_76_colour1_distractors1_r.png,r,2,034,001,2021-04-26_16h57.32.461,searchDisc4,2020.2.10,Win32,60,,,space,0.048815,2,1,0.508065,,0,377,377,76,1,1a,76,1,1,
,,,,,,,,,,,,,,,,,,,,,,,,,,images/exp1b_trial_86_colour2_distractors31_r.png,r,2,034,001,2021-04-26_16h57.32.461,searchDisc4,2020.2.10,Win32,60,,,space,0.02785,2,1,0.98181,,0,378,378,200,1,1b,86,2,31,
,,,,,,,,,,,,,,,,,,,,,,,,,,images/exp1a_trial_82_colour2_distractors1_r.png,r,2,034,001,2021-04-26_16h57.32.461,searchDisc4,2020.2.10,Win32,60,,,space,0.03018,2,1,0.502395,,0,379,379,82,1,1a,82,2,1,
,,,,,,,,,,,,,,,,,,,,,,,,,,images/exp1a_trial_13_colour3_distractors4_r.png,r,2,034,001,2021-04-26_16h57.32.461,searchDisc4,2020.2.10,Win32,60,,,space,0.079225,2,1,0.43924,,0,380,380,13,1,1a,13,3,4,
,,,,,,,,,,,,,,,,,,,,,,,,,,images/exp1a_trial_57_colour1_distractors4_l.png,l,1,034,001,2021-04-26_16h57.32.461,searchDisc4,2020.2.10,Win32,60,,,space,0.04859,1,1,0.680945,,0,381,381,57,1,1a,57,1,4,
,,,,,,,,,,,,,,,,,,,,,,,,,,images/exp2b_trial_78_colour1_distractors9_r.png,r,2,034,001,2021-04-26_16h57.32.461,searchDisc4,2020.2.10,Win32,60,,,space,0.4694,2,1,0.744425,,0,382,382,420,1,2b,78,1,9,
,,,,,,,,,,,,,,,,,,,,,,,,,,images/exp2a_trial_75_colour0_distractors0_l.png,l,1,034,001,2021-04-26_16h57.32.461,searchDisc4,2020.2.10,Win32,60,,,space,0.060965,1,1,0.43688,,0,383,383,303,1,2a,75,0,0,
,,,,,,,,,,,,,,,,,,,,,,,,,,images/exp2c_trial_75_colour0_distractors0_l.png,l,1,034,001,2021-04-26_16h57.32.461,searchDisc4,2020.2.10,Win32,60,,,space,0.047445,1,1,0.45528,,0,384,384,531,1,2c,75,0,0,
,,,,,,,,,,,,,,,,,,,,,,,,,,images/exp1a_trial_33_colour3_distractors19_l.png,l,1,034,001,2021-04-26_16h57.32.461,searchDisc4,2020.2.10,Win32,60,,,space,0.033655,1,1,0.59363,,0,385,385,33,1,1a,33,3,19,
,,,,,,,,,,,,,,,,,,,,,,,,,,images/exp2a_trial_67_colour2_distractors43_l.png,l,1,034,001,2021-04-26_16h57.32.461,searchDisc4,2020.2.10,Win32,60,,,space,0.062615,1,1,0.55224,,0,386,386,295,1,2a,67,2,43,
,,,,,,,,,,,,,,,,,,,,,,,,,,images/exp2b_trial_91_colour3_distractors19_r.png,r,2,034,001,2021-04-26_16h57.32.461,searchDisc4,2020.2.10,Win32,60,,,space,0.014085,2,1,0.628105,,0,387,387,433,1,2b,91,3,19,
,,,,,,,,,,,,,,,,,,,,,,,,,,images/exp1a_trial_108_colour3_distractors9_l.png,l,1,034,001,2021-04-26_16h57.32.461,searchDisc4,2020.2.10,Win32,60,,,space,0.050845,1,1,0.485925,,0,388,388,108,1,1a,108,3,9,
,,,,,,,,,,,,,,,,,,,,,,,,,,images/exp1b_trial_48_colour2_distractors31_r.png,r,2,034,001,2021-04-26_16h57.32.461,searchDisc4,2020.2.10,Win32,60,,,space,0.046905,2,1,0.49396,,0,389,389,162,1,1b,48,2,31,
,,,,,,,,,,,,,,,,,,,,,,,,,,images/exp2b_trial_93_colour3_distractors43_r.png,r,2,034,001,2021-04-26_16h57.32.461,searchDisc4,2020.2.10,Win32,60,,,space,0.086555,1,0,0.495455,,0,390,390,435,1,2b,93,3,43,
,,,,,,,,,,,,,,,,,,,,,,,,,,images/exp2c_trial_35_colour3_distractors43_l.png,l,1,034,001,2021-04-26_16h57.32.461,searchDisc4,2020.2.10,Win32,60,,,space,0.022375,1,1,0.800595,,0,391,391,491,1,2c,35,3,43,
,,,,,,,,,,,,,,,,,,,,,,,,,,images/exp2a_trial_77_colour1_distractors4_r.png,r,2,034,001,2021-04-26_16h57.32.461,searchDisc4,2020.2.10,Win32,60,,,space,0.07277,2,1,0.59888,,0,392,392,305,1,2a,77,1,4,
,,,,,,,,,,,,,,,,,,,,,,,,,,images/exp2c_trial_50_colour3_distractors1_r.png,r,2,034,001,2021-04-26_16h57.32.461,searchDisc4,2020.2.10,Win32,60,,,space,0.04131,2,1,0.491325,,0,393,393,506,1,2c,50,3,1,
,,,,,,,,,,,,,,,,,,,,,,,,,,images/exp1b_trial_104_colour2_distractors31_l.png,l,1,034,001,2021-04-26_16h57.32.461,searchDisc4,2020.2.10,Win32,60,,,space,0.061685,1,1,1.650195,,0,394,394,218,1,1b,104,2,31,
,,,,,,,,,,,,,,,,,,,,,,,,,,images/exp2c_trial_87_colour2_distractors43_r.png,r,2,034,001,2021-04-26_16h57.32.461,searchDisc4,2020.2.10,Win32,60,,,space,0.04925,2,1,0.436585,,0,395,395,543,1,2c,87,2,43,
,,,,,,,,,,,,,,,,,,,,,,,,,,images/exp1a_trial_113_colour0_distractors0_l.png,l,1,034,001,2021-04-26_16h57.32.461,searchDisc4,2020.2.10,Win32,60,,,space,0.02797,1,1,0.430275,,0,396,396,113,1,1a,113,0,0,
,,,,,,,,,,,,,,,,,,,,,,,,,,images/exp2b_trial_113_colour0_distractors0_l.png,l,1,034,001,2021-04-26_16h57.32.461,searchDisc4,2020.2.10,Win32,60,,,space,0.04348,1,1,0.45483,,0,397,397,455,1,2b,113,0,0,
,,,,,,,,,,,,,,,,,,,,,,,,,,images/exp2c_trial_53_colour3_distractors19_r.png,r,2,034,001,2021-04-26_16h57.32.461,searchDisc4,2020.2.10,Win32,60,,,space,0.00943,2,1,0.487525,,0,398,398,509,1,2c,53,3,19,
,,,,,,,,,,,,,,,,,,,,,,,,,,images/exp2a_trial_88_colour3_distractors1_r.png,r,2,034,001,2021-04-26_16h57.32.461,searchDisc4,2020.2.10,Win32,60,,,space,0.08837,2,1,0.616715,,0,399,399,316,1,2a,88,3,1,
,,,,,,,,,,,,,,,,,,,,,,,,,,images/exp1b_trial_47_colour2_distractors19_r.png,r,2,034,001,2021-04-26_16h57.32.461,searchDisc4,2020.2.10,Win32,60,,,space,0.069025,2,1,0.71703,,0,400,400,161,1,1b,47,2,19,
,,,,,,,,,,,,,,,,,,,,,,,,,,images/exp2b_trial_81_colour1_distractors43_r.png,r,2,034,001,2021-04-26_16h57.32.461,searchDisc4,2020.2.10,Win32,60,,,space,0.06457,2,1,0.45885,,0,401,401,423,1,2b,81,1,43,
,,,,,,,,,,,,,,,,,,,,,,,,,,images/exp1b_trial_84_colour2_distractors9_r.png,r,2,034,001,2021-04-26_16h57.32.461,searchDisc4,2020.2.10,Win32,60,,,space,0.05614,2,1,0.63479,,0,402,402,198,1,1b,84,2,9,
,,,,,,,,,,,,,,,,,,,,,,,,,,images/exp1b_trial_29_colour2_distractors43_l.png,l,1,034,001,2021-04-26_16h57.32.461,searchDisc4,2020.2.10,Win32,60,,,space,0.030645,1,1,2.06929,,0,403,403,143,1,1b,29,2,43,
,,,,,,,,,,,,,,,,,,,,,,,,,,images/exp1a_trial_86_colour2_distractors31_r.png,r,2,034,001,2021-04-26_16h57.32.461,searchDisc4,2020.2.10,Win32,60,,,space,0.025925,2,1,0.583175,,0,404,404,86,1,1a,86,2,31,
,,,,,,,,,,,,,,,,,,,,,,,,,,images/exp2a_trial_90_colour3_distractors9_r.png,r,2,034,001,2021-04-26_16h57.32.461,searchDisc4,2020.2.10,Win32,60,,,space,0.020835,2,1,0.536425,,0,405,405,318,1,2a,90,3,9,
,,,,,,,,,,,,,,,,,,,,,,,,,,images/exp2c_trial_76_colour1_distractors1_r.png,r,2,034,001,2021-04-26_16h57.32.461,searchDisc4,2020.2.10,Win32,60,,,space,0.04042,2,1,0.47339,,0,406,406,532,1,2c,76,1,1,
,,,,,,,,,,,,,,,,,,,,,,,,,,images/exp2c_trial_16_colour3_distractors31_r.png,r,2,034,001,2021-04-26_16h57.32.461,searchDisc4,2020.2.10,Win32,60,,,space,0.040305,2,1,0.452085,,0,407,407,472,1,2c,16,3,31,
,,,,,,,,,,,,,,,,,,,,,,,,,,images/exp2b_trial_110_colour3_distractors31_l.png,l,1,034,001,2021-04-26_16h57.32.461,searchDisc4,2020.2.10,Win32,60,,,space,0.053235,2,0,0.45043,,0,408,408,452,1,2b,110,3,31,
,,,,,,,,,,,,,,,,,,,,,,,,,,images/exp1a_trial_109_colour3_distractors19_l.png,l,1,034,001,2021-04-26_16h57.32.461,searchDisc4,2020.2.10,Win32,60,,,space,0.084325,1,1,0.69539,,0,409,409,109,1,1a,109,3,19,
,,,,,,,,,,,,,,,,,,,,,,,,,,images/exp1b_trial_7_colour2_distractors4_r.png,r,2,034,001,2021-04-26_16h57.32.461,searchDisc4,2020.2.10,Win32,60,,,space,0.02629,2,1,0.584635,,0,410,410,121,1,1b,7,2,4,
,,,,,,,,,,,,,,,,,,,,,,,,,,images/exp1b_trial_67_colour2_distractors43_l.png,l,1,034,001,2021-04-26_16h57.32.461,searchDisc4,2020.2.10,Win32,60,,,space,0.06157,1,1,0.86367,,0,411,411,181,1,1b,67,2,43,
,,,,,,,,,,,,,,,,,,,,,,,,,,images/exp2a_trial_23_colour1_distractors43_l.png,l,1,034,001,2021-04-26_16h57.32.461,searchDisc4,2020.2.10,Win32,60,,,space,0.01401,1,1,0.644125,,0,412,412,251,1,2a,23,1,43,
,,,,,,,,,,,,,,,,,,,,,,,,,,images/exp2a_trial_68_colour3_distractors1_l.png,l,1,034,001,2021-04-26_16h57.32.461,searchDisc4,2020.2.10,Win32,60,,,space,0.03902,1,1,0.61346,,0,413,413,296,1,2a,68,3,1,
,,,,,,,,,,,,,,,,,,,,,,,,,,images/exp2c_trial_11_colour2_distractors43_r.png,r,2,034,001,2021-04-26_16h57.32.461,searchDisc4,2020.2.10,Win32,60,,,space,0.04677,2,1,0.493615,,0,414,414,467,1,2c,11,2,43,
,,,,,,,,,,,,,,,,,,,,,,,,,,images/exp2a_trial_83_colour2_distractors4_r.png,r,2,034,001,2021-04-26_16h57.32.461,searchDisc4,2020.2.10,Win32,60,,,space,0.067145,2,1,0.46431,,0,415,415,311,1,2a,83,2,4,
,,,,,,,,,,,,,,,,,,,,,,,,,,images/exp2a_trial_64_colour2_distractors9_l.png,l,1,034,001,2021-04-26_16h57.32.461,searchDisc4,2020.2.10,Win32,60,,,space,0.037015,1,1,0.49306,,0,416,416,292,1,2a,64,2,9,
,,,,,,,,,,,,,,,,,,,,,,,,,,images/exp1b_trial_113_colour0_distractors0_l.png,l,1,034,001,2021-04-26_16h57.32.461,searchDisc4,2020.2.10,Win32,60,,,space,0.026195,1,1,0.516095,,0,417,417,227,1,1b,113,0,0,
,,,,,,,,,,,,,,,,,,,,,,,,,,images/exp2c_trial_59_colour1_distractors19_l.png,l,1,034,001,2021-04-26_16h57.32.461,searchDisc4,2020.2.10,Win32,60,,,space,0.040255,1,1,0.562735,,0,418,418,515,1,2c,59,1,19,
,,,,,,,,,,,,,,,,,,,,,,,,,,images/exp1a_trial_74_colour0_distractors0_r.png,r,2,034,001,2021-04-26_16h57.32.461,searchDisc4,2020.2.10,Win32,60,,,space,0.079345,2,1,0.44601,space,0,419,419,74,1,1a,74,0,0,0.051405
,,,,,,,,,,,,,,,,,,,,,,,,,,images/exp1a_trial_75_colour0_distractors0_l.png,l,1,034,001,2021-04-26_16h57.32.461,searchDisc4,2020.2.10,Win32,60,,,space,0.618845,1,1,0.429005,,0,420,420,75,1,1a,75,0,0,
,,,,,,,,,,,,,,,,,,,,,,,,,,images/exp2b_trial_83_colour2_distractors4_r.png,r,2,034,001,2021-04-26_16h57.32.461,searchDisc4,2020.2.10,Win32,60,,,space,0.07045,2,1,0.68978,,0,421,421,425,1,2b,83,2,4,
,,,,,,,,,,,,,,,,,,,,,,,,,,images/exp2c_trial_97_colour1_distractors19_l.png,l,1,034,001,2021-04-26_16h57.32.461,searchDisc4,2020.2.10,Win32,60,,,space,0.035015,1,1,0.622815,,0,422,422,553,1,2c,97,1,19,
,,,,,,,,,,,,,,,,,,,,,,,,,,images/exp2a_trial_80_colour1_distractors31_r.png,r,2,034,001,2021-04-26_16h57.32.461,searchDisc4,2020.2.10,Win32,60,,,space,0.02097,2,1,0.49563,,0,423,423,308,1,2a,80,1,31,
,,,,,,,,,,,,,,,,,,,,,,,,,,images/exp2c_trial_80_colour1_distractors31_r.png,r,2,034,001,2021-04-26_16h57.32.461,searchDisc4,2020.2.10,Win32,60,,,space,0.06876,2,1,0.60469,,0,424,424,536,1,2c,80,1,31,
,,,,,,,,,,,,,,,,,,,,,,,,,,images/exp1a_trial_45_colour2_distractors4_r.png,r,2,034,001,2021-04-26_16h57.32.461,searchDisc4,2020.2.10,Win32,60,,,space,0.04173,2,1,0.52866,,0,425,425,45,1,1a,45,2,4,
,,,,,,,,,,,,,,,,,,,,,,,,,,images/exp1b_trial_56_colour1_distractors1_l.png,l,1,034,001,2021-04-26_16h57.32.461,searchDisc4,2020.2.10,Win32,60,,,space,0.054945,1,1,0.63262,,0,426,426,170,1,1b,56,1,1,
,,,,,,,,,,,,,,,,,,,,,,,,,,images/exp1a_trial_15_colour3_distractors19_r.png,r,2,034,001,2021-04-26_16h57.32.461,searchDisc4,2020.2.10,Win32,60,,,space,0.02116,2,1,0.47868,,0,427,427,15,1,1a,15,3,19,
,,,,,,,,,,,,,,,,,,,,,,,,,,images/exp1a_trial_36_colour0_distractors0_r.png,r,2,034,001,2021-04-26_16h57.32.461,searchDisc4,2020.2.10,Win32,60,,,space,0.0575,2,1,0.55615,,0,428,428,36,1,1a,36,0,0,
,,,,,,,,,,,,,,,,,,,,,,,,,,images/exp2a_trial_35_colour3_distractors43_l.png,l,1,034,001,2021-04-26_16h57.32.461,searchDisc4,2020.2.10,Win32,60,,,space,0.022125,1,1,0.654995,,0,429,429,263,1,2a,35,3,43,
,,,,,,,,,,,,,,,,,,,,,,,,,,images/exp2b_trial_2_colour1_distractors9_r.png,r,2,034,001,2021-04-26_16h57.32.461,searchDisc4,2020.2.10,Win32,60,,,space,0.05687,2,1,0.549715,,0,430,430,344,1,2b,2,1,9,
,,,,,,,,,,,,,,,,,,,,,,,,,,images/exp2c_trial_38_colour1_distractors1_r.png,r,2,034,001,2021-04-26_16h57.32.461,searchDisc4,2020.2.10,Win32,60,,,space,0.033045,2,1,0.606955,,0,431,431,494,1,2c,38,1,1,
,,,,,,,,,,,,,,,,,,,,,,,,,,images/exp1a_trial_40_colour1_distractors9_r.png,r,2,034,001,2021-04-26_16h57.32.461,searchDisc4,2020.2.10,Win32,60,,,space,0.094325,2,1,0.519885,,0,432,432,40,1,1a,40,1,9,
,,,,,,,,,,,,,,,,,,,,,,,,,,images/exp2b_trial_53_colour3_distractors19_r.png,r,2,034,001,2021-04-26_16h57.32.461,searchDisc4,2020.2.10,Win32,60,,,space,0.0424,2,1,0.545625,,0,433,433,395,1,2b,53,3,19,
,,,,,,,,,,,,,,,,,,,,,,,,,,images/exp2b_trial_102_colour2_distractors9_l.png,l,1,034,001,2021-04-26_16h57.32.461,searchDisc4,2020.2.10,Win32,60,,,space,0.075795,1,1,0.527,,0,434,434,444,1,2b,102,2,9,
,,,,,,,,,,,,,,,,,,,,,,,,,,images/exp2b_trial_47_colour2_distractors19_r.png,r,2,034,001,2021-04-26_16h57.32.461,searchDisc4,2020.2.10,Win32,60,,,space,0.02959,2,1,0.649855,,0,435,435,389,1,2b,47,2,19,
,,,,,,,,,,,,,,,,,,,,,,,,,,images/exp1b_trial_41_colour1_distractors19_r.png,r,2,034,001,2021-04-26_16h57.32.461,searchDisc4,2020.2.10,Win32,60,,,space,0.06065,2,1,0.61708,,0,436,436,155,1,1b,41,1,19,
,,,,,,,,,,,,,,,,,,,,,,,,,,images/exp2a_trial_38_colour1_distractors1_r.png,r,2,034,001,2021-04-26_16h57.32.461,searchDisc4,2020.2.10,Win32,60,,,space,0.081985,2,1,0.48015,,0,437,437,266,1,2a,38,1,1,
,,,,,,,,,,,,,,,,,,,,,,,,,,images/exp2c_trial_81_colour1_distractors43_r.png,r,2,034,001,2021-04-26_16h57.32.461,searchDisc4,2020.2.10,Win32,60,,,space,0.06036,2,1,0.46912,,0,438,438,537,1,2c,81,1,43,
,,,,,,,,,,,,,,,,,,,,,,,,,,images/exp2b_trial_77_colour1_distractors4_r.png,r,2,034,001,2021-04-26_16h57.32.461,searchDisc4,2020.2.10,Win32,60,,,space,0.096485,2,1,0.55239,,0,439,439,419,1,2b,77,1,4,
,,,,,,,,,,,,,,,,,,,,,,,,,,images/exp2a_trial_87_colour2_distractors43_r.png,r,2,034,001,2021-04-26_16h57.32.461,searchDisc4,2020.2.10,Win32,60,,,space,0.035825,2,1,0.513375,,0,440,440,315,1,2a,87,2,43,
,,,,,,,,,,,,,,,,,,,,,,,,,,images/exp1a_trial_6_colour2_distractors1_r.png,r,2,034,001,2021-04-26_16h57.32.461,searchDisc4,2020.2.10,Win32,60,,,space,0.01678,2,1,0.680895,,0,441,441,6,1,1a,6,2,1,
,,,,,,,,,,,,,,,,,,,,,,,,,,images/exp1b_trial_27_colour2_distractors19_l.png,l,1,034,001,2021-04-26_16h57.32.461,searchDisc4,2020.2.10,Win32,60,,,space,0.05568,1,1,0.60953,,0,442,442,141,1,1b,27,2,19,
,,,,,,,,,,,,,,,,,,,,,,,,,,images/exp1a_trial_65_colour2_distractors19_l.png,l,1,034,001,2021-04-26_16h57.32.461,searchDisc4,2020.2.10,Win32,60,,,space,0.005205,1,1,0.658695,,0,443,443,65,1,1a,65,2,19,
,,,,,,,,,,,,,,,,,,,,,,,,,,images/exp2c_trial_26_colour2_distractors9_l.png,l,1,034,001,2021-04-26_16h57.32.461,searchDisc4,2020.2.10,Win32,60,,,space,0.085815,1,1,0.70805,,0,444,444,482,1,2c,26,2,9,
,,,,,,,,,,,,,,,,,,,,,,,,,,images/exp1a_trial_84_colour2_distractors9_r.png,r,2,034,001,2021-04-26_16h57.32.461,searchDisc4,2020.2.10,Win32,60,,,space,0.05163,2,1,0.583565,,0,445,445,84,1,1a,84,2,9,
,,,,,,,,,,,,,,,,,,,,,,,,,,images/exp1b_trial_82_colour2_distractors1_r.png,r,2,034,001,2021-04-26_16h57.32.461,searchDisc4,2020.2.10,Win32,60,,,space,0.08153,2,1,0.57341,,0,446,446,196,1,1b,82,2,1,
,,,,,,,,,,,,,,,,,,,,,,,,,,images/exp1a_trial_111_colour3_distractors43_l.png,l,1,034,001,2021-04-26_16h57.32.461,searchDisc4,2020.2.10,Win32,60,,,space,0.08348,2,0,0.49714,,0,447,447,111,1,1a,111,3,43,
,,,,,,,,,,,,,,,,,,,,,,,,,,images/exp2b_trial_37_colour0_distractors0_l.png,l,1,034,001,2021-04-26_16h57.32.461,searchDisc4,2020.2.10,Win32,60,,,space,0.368755,1,1,0.429925,,0,448,448,379,1,2b,37,0,0,
,,,,,,,,,,,,,,,,,,,,,,,,,,images/exp2b_trial_88_colour3_distractors1_r.png,r,2,034,001,2021-04-26_16h57.32.461,searchDisc4,2020.2.10,Win32,60,,,space,0.027045,2,1,0.66984,,0,449,449,430,1,2b,88,3,1,
,,,,,,,,,,,,,,,,,,,,,,,,,,images/exp2c_trial_94_colour1_distractors1_l.png,l,1,034,001,2021-04-26_16h57.32.461,searchDisc4,2020.2.10,Win32,60,,,space,0.06264,1,1,0.690875,,0,450,450,550,1,2c,94,1,1,
,,,,,,,,,,,,,,,,,,,,,,,,,,images/exp2c_trial_72_colour3_distractors31_l.png,l,1,034,001,2021-04-26_16h57.32.461,searchDisc4,2020.2.10,Win32,60,,,space,0.053735,1,1,0.76456,,0,451,451,528,1,2c,72,3,31,
,,,,,,,,,,,,,,,,,,,,,,,,,,images/exp2a_trial_57_colour1_distractors4_l.png,l,1,034,001,2021-04-26_16h57.32.461,searchDisc4,2020.2.10,Win32,60,,,space,0.034105,1,1,0.699435,,0,452,452,285,1,2a,57,1,4,
,,,,,,,,,,,,,,,,,,,,,,,,,,images/exp1a_trial_70_colour3_distractors9_l.png,l,1,034,001,2021-04-26_16h57.32.461,searchDisc4,2020.2.10,Win32,60,,,space,0.00036,1,1,0.623475,,0,453,453,70,1,1a,70,3,9,
,,,,,,,,,,,,,,,,,,,,,,,,,,images/exp1a_trial_78_colour1_distractors9_r.png,r,2,034,001,2021-04-26_16h57.32.461,searchDisc4,2020.2.10,Win32,60,,,space,0.00876,2,1,0.5571,,0,454,454,78,1,1a,78,1,9,
,,,,,,,,,,,,,,,,,,,,,,,,,,images/exp2a_trial_112_colour0_distractors0_r.png,r,2,034,001,2021-04-26_16h57.32.461,searchDisc4,2020.2.10,Win32,60,,,space,0.02254,2,1,0.527625,,0,455,455,340,1,2a,112,0,0,
,,,,,,,,,,,,,,,,,,,,,,,,,,images/exp2c_trial_40_colour1_distractors9_r.png,r,2,034,001,2021-04-26_16h57.32.461,searchDisc4,2020.2.10,Win32,60,,,space,0.477,2,1,0.64317,,0,456,456,496,1,2c,40,1,9,
,,,,,,,,,,,,,,,,,,,,,,,,,,images/exp1a_trial_47_colour2_distractors19_r.png,r,2,034,001,2021-04-26_16h57.32.461,searchDisc4,2020.2.10,Win32,60,,,space,0.06318,2,1,0.591435,,0,457,457,47,1,1a,47,2,19,
,,,,,,,,,,,,,,,,,,,,,,,,,,images/exp2a_trial_51_colour3_distractors4_r.png,r,2,034,001,2021-04-26_16h57.32.461,searchDisc4,2020.2.10,Win32,60,,,space,0.02381,2,1,0.563875,,0,458,458,279,1,2a,51,3,4,
,,,,,,,,,,,,,,,,,,,,,,,,,,images/exp2a_trial_74_colour0_distractors0_r.png,r,2,034,001,2021-04-26_16h57.32.461,searchDisc4,2020.2.10,Win32,60,,,space,0.055635,2,1,0.48082,,0,459,459,302,1,2a,74,0,0,
,,,,,,,,,,,,,,,,,,,,,,,,,,images/exp2c_trial_63_colour2_distractors4_l.png,l,1,034,001,2021-04-26_16h57.32.461,searchDisc4,2020.2.10,Win32,60,,,space,0.026045,1,1,0.519515,,0,460,460,519,1,2c,63,2,4,
,,,,,,,,,,,,,,,,,,,,,,,,,,images/exp2b_trial_15_colour3_distractors19_r.png,r,2,034,001,2021-04-26_16h57.32.461,searchDisc4,2020.2.10,Win32,60,,,space,0.062565,2,1,0.549475,,0,461,461,357,1,2b,15,3,19,
,,,,,,,,,,,,,,,,,,,,,,,,,,images/exp2c_trial_98_colour1_distractors31_l.png,l,1,034,001,2021-04-26_16h57.32.461,searchDisc4,2020.2.10,Win32,60,,,space,0.0348,1,1,0.509625,,0,462,462,554,1,2c,98,1,31,
,,,,,,,,,,,,,,,,,,,,,,,,,,images/exp2b_trial_6_colour2_distractors1_r.png,r,2,034,001,2021-04-26_16h57.32.461,searchDisc4,2020.2.10,Win32,60,,,space,0.033295,2,1,0.523665,,0,463,463,348,1,2b,6,2,1,
,,,,,,,,,,,,,,,,,,,,,,,,,,images/exp2b_trial_12_colour3_distractors1_r.png,r,2,034,001,2021-04-26_16h57.32.461,searchDisc4,2020.2.10,Win32,60,,,space,0.0279,2,1,0.49851,,0,464,464,354,1,2b,12,3,1,
,,,,,,,,,,,,,,,,,,,,,,,,,,images/exp2c_trial_39_colour1_distractors4_r.png,r,2,034,001,2021-04-26_16h57.32.461,searchDisc4,2020.2.10,Win32,60,,,space,0.031235,2,1,0.56663,,0,465,465,495,1,2c,39,1,4,
,,,,,,,,,,,,,,,,,,,,,,,,,,images/exp2c_trial_4_colour1_distractors31_r.png,r,2,034,001,2021-04-26_16h57.32.461,searchDisc4,2020.2.10,Win32,60,,,space,0.018525,2,1,0.49205,,0,466,466,460,1,2c,4,1,31,
,,,,,,,,,,,,,,,,,,,,,,,,,,images/exp1b_trial_14_colour3_distractors9_r.png,r,2,034,001,2021-04-26_16h57.32.461,searchDisc4,2020.2.10,Win32,60,,,space,0.02293,2,1,0.550895,,0,467,467,128,1,1b,14,3,9,
,,,,,,,,,,,,,,,,,,,,,,,,,,images/exp1a_trial_29_colour2_distractors43_l.png,l,1,034,001,2021-04-26_16h57.32.461,searchDisc4,2020.2.10,Win32,60,,,space,0.06975,1,1,0.764945,,0,468,468,29,1,1a,29,2,43,
,,,,,,,,,,,,,,,,,,,,,,,,,,images/exp1a_trial_8_colour2_distractors9_r.png,r,2,034,001,2021-04-26_16h57.32.461,searchDisc4,2020.2.10,Win32,60,,,space,0.019495,2,1,0.462315,,0,469,469,8,1,1a,8,2,9,
,,,,,,,,,,,,,,,,,,,,,,,,,,images/exp1a_trial_54_colour3_distractors31_r.png,r,2,034,001,2021-04-26_16h57.32.461,searchDisc4,2020.2.10,Win32,60,,,space,0.03287,2,1,0.51034,,0,470,470,54,1,1a,54,3,31,
,,,,,,,,,,,,,,,,,,,,,,,,,,images/exp1a_trial_85_colour2_distractors19_r.png,r,2,034,001,2021-04-26_16h57.32.461,searchDisc4,2020.2.10,Win32,60,,,space,0.041785,1,0,0.61627,,0,471,471,85,1,1a,85,2,19,
,,,,,,,,,,,,,,,,,,,,,,,,,,images/exp2b_trial_10_colour2_distractors31_r.png,r,2,034,001,2021-04-26_16h57.32.461,searchDisc4,2020.2.10,Win32,60,,,space,0.15685,1,0,0.50968,,0,472,472,352,1,2b,10,2,31,
,,,,,,,,,,,,,,,,,,,,,,,,,,images/exp1a_trial_23_colour1_distractors43_l.png,l,1,034,001,2021-04-26_16h57.32.461,searchDisc4,2020.2.10,Win32,60,,,space,0.158255,1,1,0.74393,,0,473,473,23,1,1a,23,1,43,
,,,,,,,,,,,,,,,,,,,,,,,,,,images/exp1b_trial_75_colour0_distractors0_l.png,l,1,034,001,2021-04-26_16h57.32.461,searchDisc4,2020.2.10,Win32,60,,,space,0.026455,1,1,0.541745,,0,474,474,189,1,1b,75,0,0,
,,,,,,,,,,,,,,,,,,,,,,,,,,images/exp1b_trial_5_colour1_distractors43_r.png,r,2,034,001,2021-04-26_16h57.32.461,searchDisc4,2020.2.10,Win32,60,,,space,0.007705,2,1,0.52041,,0,475,475,119,1,1b,5,1,43,
,,,,,,,,,,,,,,,,,,,,,,,,,,images/exp2a_trial_31_colour3_distractors4_l.png,l,1,034,001,2021-04-26_16h57.32.461,searchDisc4,2020.2.10,Win32,60,,,space,0.06263,1,1,0.48272,,0,476,476,259,1,2a,31,3,4,
