X Scale,Y Scale,key_resp_10.keys,key_resp_10.rt,key_resp_11.keys,key_resp_11.rt,key_resp_12.keys,key_resp_12.rt,key_resp_13.keys,key_resp_13.rt,key_resp_5.keys,key_resp_5.rt,key_resp_8.keys,key_resp_8.rt,key_resp_6.keys,key_resp_6.rt,key_resp_7.keys,key_resp_7.rt,key_resp_4.keys,key_resp_4.corr,key_resp_4.rt,trials_2.thisRepN,trials_2.thisTrialN,trials_2.thisN,trials_2.thisIndex,trials_2.ran,ImageFile,targ_side,correctAnswer,participant,session,date,expName,psychopyVersion,OS,frameRate,key_resp_3.keys,key_resp_3.rt,key_resp_9.keys,key_resp_9.rt,key_resp_2.keys,key_resp_2.corr,key_resp_2.rt,key_resp.keys,trials.thisRepN,trials.thisTrialN,trials.thisN,trials.thisIndex,trials.ran,exp,trial,colour,distNo,key_resp.rt
15,15.2,space,7.64079,space,20.29986,space,8.07208,space,5.97013,space,11.24897,space,19.300265,space,1.69678,space,24.764085,1,1,1.20102,0,0,0,16,1,Practice arrays/exp1a_trial_33_colour3_distractors19_l.png,l,1,034,001,2021-04-26_17h15.05.218,searchDisc4,2020.2.10,Win32,60,,,,,,,,,,,,,,,,,,
,,,,,,,,,,,,,,,,space,0.62125,2,1,0.53416,0,1,1,18,1,Practice arrays/exp1a_trial_36_colour0_distractors0_r.png,r,2,034,001,2021-04-26_17h15.05.218,searchDisc4,2020.2.10,Win32,60,,,,,,,,,,,,,,,,,,
,,,,,,,,,,,,,,,,space,0.68448,1,1,0.722845,0,2,2,10,1,Practice arrays/exp1a_trial_20_colour1_distractors9_l.png,l,1,034,001,2021-04-26_17h15.05.218,searchDisc4,2020.2.10,Win32,60,,,,,,,,,,,,,,,,,,
,,,,,,,,,,,,,,,,space,0.683665,2,1,0.57954,0,3,3,0,1,Practice arrays/exp1a_trial_0_colour1_distractors1_r.png,r,2,034,001,2021-04-26_17h15.05.218,searchDisc4,2020.2.10,Win32,60,,,,,,,,,,,,,,,,,,
,,,,,,,,,,,,,,,,space,0.62711,2,0,0.628915,0,4,4,15,1,Practice arrays/exp1a_trial_32_colour3_distractors9_l.png,l,1,034,001,2021-04-26_17h15.05.218,searchDisc4,2020.2.10,Win32,60,,,,,,,,,,,,,,,,,,
,,,,,,,,,,,,,,,,space,0.75054,2,1,0.91538,0,5,5,4,1,Practice arrays/exp1a_trial_8_colour2_distractors9_r.png,r,2,034,001,2021-04-26_17h15.05.218,searchDisc4,2020.2.10,Win32,60,,,,,,,,,,,,,,,,,,
,,,,,,,,,,,,,,,,space,0.61636,1,1,0.61208,0,6,6,14,1,Practice arrays/exp1a_trial_29_colour2_distractors43_l.png,l,1,034,001,2021-04-26_17h15.05.218,searchDisc4,2020.2.10,Win32,60,,,,,,,,,,,,,,,,,,
,,,,,,,,,,,,,,,,space,0.47631,2,1,0.96772,0,7,7,8,1,Practice arrays/exp1a_trial_16_colour3_distractors31_r.png,r,2,034,001,2021-04-26_17h15.05.218,searchDisc4,2020.2.10,Win32,60,,,,,,,,,,,,,,,,,,
,,,,,,,,,,,,,,,,space,0.51961,2,1,0.769135,0,8,8,6,1,Practice arrays/exp1a_trial_12_colour3_distractors1_r.png,r,2,034,001,2021-04-26_17h15.05.218,searchDisc4,2020.2.10,Win32,60,,,,,,,,,,,,,,,,,,
,,,,,,,,,,,,,,,,space,1.21744,2,1,0.675295,0,9,9,2,1,Practice arrays/exp1a_trial_5_colour1_distractors43_r.png,r,2,034,001,2021-04-26_17h15.05.218,searchDisc4,2020.2.10,Win32,60,,,,,,,,,,,,,,,,,,
,,,,,,,,,,,,,,,,space,0.498955,2,1,0.559205,0,10,10,1,1,Practice arrays/exp1a_trial_3_colour1_distractors19_r.png,r,2,034,001,2021-04-26_17h15.05.218,searchDisc4,2020.2.10,Win32,60,,,,,,,,,,,,,,,,,,
,,,,,,,,,,,,,,,,space,0.5093,1,1,0.590265,0,11,11,19,1,Practice arrays/exp1a_trial_37_colour0_distractors0_l.png,l,1,034,001,2021-04-26_17h15.05.218,searchDisc4,2020.2.10,Win32,60,,,,,,,,,,,,,,,,,,
,,,,,,,,,,,,,,,,space,0.59902,1,1,0.903135,0,12,12,11,1,Practice arrays/exp1a_trial_21_colour1_distractors19_l.png,l,1,034,001,2021-04-26_17h15.05.218,searchDisc4,2020.2.10,Win32,60,,,,,,,,,,,,,,,,,,
,,,,,,,,,,,,,,,,space,0.567195,1,1,0.815105,0,13,13,12,1,Practice arrays/exp1a_trial_25_colour2_distractors4_l.png,l,1,034,001,2021-04-26_17h15.05.218,searchDisc4,2020.2.10,Win32,60,,,,,,,,,,,,,,,,,,
,,,,,,,,,,,,,,,,space,0.588,1,1,0.68445,0,14,14,17,1,Practice arrays/exp1a_trial_35_colour3_distractors43_l.png,l,1,034,001,2021-04-26_17h15.05.218,searchDisc4,2020.2.10,Win32,60,,,,,,,,,,,,,,,,,,
,,,,,,,,,,,,,,,,space,0.638585,1,1,0.897695,0,15,15,9,1,Practice arrays/exp1a_trial_19_colour1_distractors4_l.png,l,1,034,001,2021-04-26_17h15.05.218,searchDisc4,2020.2.10,Win32,60,,,,,,,,,,,,,,,,,,
,,,,,,,,,,,,,,,,space,0.54255,2,1,0.499455,0,16,16,7,1,Practice arrays/exp1a_trial_13_colour3_distractors4_r.png,r,2,034,001,2021-04-26_17h15.05.218,searchDisc4,2020.2.10,Win32,60,,,,,,,,,,,,,,,,,,
,,,,,,,,,,,,,,,,space,0.500365,2,1,0.805765,0,17,17,5,1,Practice arrays/exp1a_trial_10_colour2_distractors31_r.png,r,2,034,001,2021-04-26_17h15.05.218,searchDisc4,2020.2.10,Win32,60,,,,,,,,,,,,,,,,,,
,,,,,,,,,,,,,,,,space,0.458425,2,1,0.738935,0,18,18,3,1,Practice arrays/exp1a_trial_7_colour2_distractors4_r.png,r,2,034,001,2021-04-26_17h15.05.218,searchDisc4,2020.2.10,Win32,60,,,,,,,,,,,,,,,,,,
,,,,,,,,,,,,,,,,space,0.233735,1,1,0.578115,0,19,19,13,1,Practice arrays/exp1a_trial_28_colour2_distractors31_l.png,l,1,034,001,2021-04-26_17h15.05.218,searchDisc4,2020.2.10,Win32,60,,,,,,,,,,,,,,,,,,
,,,,,,,,,,,,,,,,,,,,,,,,,,images/exp2b_trial_33_colour3_distractors19_l.png,l,1,034,001,2021-04-26_17h15.05.218,searchDisc4,2020.2.10,Win32,60,space,4.548245,space,0.72323,1,1,0.659845,,0,0,0,375,1,2b,33,3,19,
,,,,,,,,,,,,,,,,,,,,,,,,,,images/exp1a_trial_78_colour1_distractors9_r.png,r,2,034,001,2021-04-26_17h15.05.218,searchDisc4,2020.2.10,Win32,60,,,space,0.782585,2,1,0.70165,,0,1,1,78,1,1a,78,1,9,
,,,,,,,,,,,,,,,,,,,,,,,,,,images/exp2c_trial_62_colour2_distractors1_l.png,l,1,034,001,2021-04-26_17h15.05.218,searchDisc4,2020.2.10,Win32,60,,,space,0.551885,1,1,0.758595,,0,2,2,518,1,2c,62,2,1,
,,,,,,,,,,,,,,,,,,,,,,,,,,images/exp1b_trial_2_colour1_distractors9_r.png,r,2,034,001,2021-04-26_17h15.05.218,searchDisc4,2020.2.10,Win32,60,,,space,0.533425,2,1,0.97552,,0,3,3,116,1,1b,2,1,9,
,,,,,,,,,,,,,,,,,,,,,,,,,,images/exp1a_trial_85_colour2_distractors19_r.png,r,2,034,001,2021-04-26_17h15.05.218,searchDisc4,2020.2.10,Win32,60,,,space,0.516795,2,1,0.78549,,0,4,4,85,1,1a,85,2,19,
,,,,,,,,,,,,,,,,,,,,,,,,,,images/exp1b_trial_9_colour2_distractors19_r.png,r,2,034,001,2021-04-26_17h15.05.218,searchDisc4,2020.2.10,Win32,60,,,space,0.55013,2,1,1.122245,,0,5,5,123,1,1b,9,2,19,
,,,,,,,,,,,,,,,,,,,,,,,,,,images/exp2c_trial_107_colour3_distractors4_l.png,l,1,034,001,2021-04-26_17h15.05.218,searchDisc4,2020.2.10,Win32,60,,,space,0.38349,1,1,0.580915,,0,6,6,563,1,2c,107,3,4,
,,,,,,,,,,,,,,,,,,,,,,,,,,images/exp1b_trial_111_colour3_distractors43_l.png,l,1,034,001,2021-04-26_17h15.05.218,searchDisc4,2020.2.10,Win32,60,,,space,0.38552,,0,,,0,7,7,225,1,1b,111,3,43,
,,,,,,,,,,,,,,,,,,,,,,,,,,images/exp2b_trial_34_colour3_distractors31_l.png,l,1,034,001,2021-04-26_17h15.05.218,searchDisc4,2020.2.10,Win32,60,,,space,1.131055,1,1,0.78082,,0,8,8,376,1,2b,34,3,31,
,,,,,,,,,,,,,,,,,,,,,,,,,,images/exp2b_trial_28_colour2_distractors31_l.png,l,1,034,001,2021-04-26_17h15.05.218,searchDisc4,2020.2.10,Win32,60,,,space,0.338205,1,1,0.68204,,0,9,9,370,1,2b,28,2,31,
,,,,,,,,,,,,,,,,,,,,,,,,,,images/exp2a_trial_98_colour1_distractors31_l.png,l,1,034,001,2021-04-26_17h15.05.218,searchDisc4,2020.2.10,Win32,60,,,space,0.321435,1,1,0.76808,,0,10,10,326,1,2a,98,1,31,
,,,,,,,,,,,,,,,,,,,,,,,,,,images/exp2b_trial_58_colour1_distractors9_l.png,l,1,034,001,2021-04-26_17h15.05.218,searchDisc4,2020.2.10,Win32,60,,,space,0.329965,1,1,0.67479,,0,11,11,400,1,2b,58,1,9,
,,,,,,,,,,,,,,,,,,,,,,,,,,images/exp1b_trial_51_colour3_distractors4_r.png,r,2,034,001,2021-04-26_17h15.05.218,searchDisc4,2020.2.10,Win32,60,,,space,0.324745,2,1,0.97832,,0,12,12,165,1,1b,51,3,4,
,,,,,,,,,,,,,,,,,,,,,,,,,,images/exp2a_trial_56_colour1_distractors1_l.png,l,1,034,001,2021-04-26_17h15.05.218,searchDisc4,2020.2.10,Win32,60,,,space,0.303125,1,1,0.652745,,0,13,13,284,1,2a,56,1,1,
,,,,,,,,,,,,,,,,,,,,,,,,,,images/exp2a_trial_60_colour1_distractors31_l.png,l,1,034,001,2021-04-26_17h15.05.218,searchDisc4,2020.2.10,Win32,60,,,space,0.30969,1,1,0.897325,,0,14,14,288,1,2a,60,1,31,
,,,,,,,,,,,,,,,,,,,,,,,,,,images/exp2a_trial_19_colour1_distractors4_l.png,l,1,034,001,2021-04-26_17h15.05.218,searchDisc4,2020.2.10,Win32,60,,,space,0.243295,1,1,0.712355,,0,15,15,247,1,2a,19,1,4,
,,,,,,,,,,,,,,,,,,,,,,,,,,images/exp1a_trial_10_colour2_distractors31_r.png,r,2,034,001,2021-04-26_17h15.05.218,searchDisc4,2020.2.10,Win32,60,,,space,0.281635,2,1,0.61862,,0,16,16,10,1,1a,10,2,31,
,,,,,,,,,,,,,,,,,,,,,,,,,,images/exp1a_trial_72_colour3_distractors31_l.png,l,1,034,001,2021-04-26_17h15.05.218,searchDisc4,2020.2.10,Win32,60,,,space,0.276485,1,1,0.671995,,0,17,17,72,1,1a,72,3,31,
,,,,,,,,,,,,,,,,,,,,,,,,,,images/exp2c_trial_49_colour2_distractors43_r.png,r,2,034,001,2021-04-26_17h15.05.218,searchDisc4,2020.2.10,Win32,60,,,space,0.284565,2,1,0.62241,,0,18,18,505,1,2c,49,2,43,
,,,,,,,,,,,,,,,,,,,,,,,,,,images/exp2b_trial_14_colour3_distractors9_r.png,r,2,034,001,2021-04-26_17h15.05.218,searchDisc4,2020.2.10,Win32,60,,,space,0.30137,2,1,0.664835,,0,19,19,356,1,2b,14,3,9,
,,,,,,,,,,,,,,,,,,,,,,,,,,images/exp1b_trial_71_colour3_distractors19_l.png,l,1,034,001,2021-04-26_17h15.05.218,searchDisc4,2020.2.10,Win32,60,,,space,0.29849,1,1,1.059585,,0,20,20,185,1,1b,71,3,19,
,,,,,,,,,,,,,,,,,,,,,,,,,,images/exp2c_trial_88_colour3_distractors1_r.png,r,2,034,001,2021-04-26_17h15.05.218,searchDisc4,2020.2.10,Win32,60,,,space,0.2228,2,1,0.74174,,0,21,21,544,1,2c,88,3,1,
,,,,,,,,,,,,,,,,,,,,,,,,,,images/exp2b_trial_41_colour1_distractors19_r.png,r,2,034,001,2021-04-26_17h15.05.218,searchDisc4,2020.2.10,Win32,60,,,space,0.286515,2,1,0.660245,,0,22,22,383,1,2b,41,1,19,
,,,,,,,,,,,,,,,,,,,,,,,,,,images/exp1b_trial_113_colour0_distractors0_l.png,l,1,034,001,2021-04-26_17h15.05.218,searchDisc4,2020.2.10,Win32,60,,,space,0.279195,1,1,0.609455,,0,23,23,227,1,1b,113,0,0,
,,,,,,,,,,,,,,,,,,,,,,,,,,images/exp2a_trial_1_colour1_distractors4_r.png,r,2,034,001,2021-04-26_17h15.05.218,searchDisc4,2020.2.10,Win32,60,,,space,0.303655,2,1,0.56543,,0,24,24,229,1,2a,1,1,4,
,,,,,,,,,,,,,,,,,,,,,,,,,,images/exp2c_trial_13_colour3_distractors4_r.png,r,2,034,001,2021-04-26_17h15.05.218,searchDisc4,2020.2.10,Win32,60,,,space,0.314445,2,1,0.673075,,0,25,25,469,1,2c,13,3,4,
,,,,,,,,,,,,,,,,,,,,,,,,,,images/exp1a_trial_24_colour2_distractors1_l.png,l,1,034,001,2021-04-26_17h15.05.218,searchDisc4,2020.2.10,Win32,60,,,space,0.25537,1,1,0.568785,,0,26,26,24,1,1a,24,2,1,
,,,,,,,,,,,,,,,,,,,,,,,,,,images/exp2a_trial_48_colour2_distractors31_r.png,r,2,034,001,2021-04-26_17h15.05.218,searchDisc4,2020.2.10,Win32,60,,,space,0.307705,2,1,0.611195,,0,27,27,276,1,2a,48,2,31,
,,,,,,,,,,,,,,,,,,,,,,,,,,images/exp2a_trial_74_colour0_distractors0_r.png,r,2,034,001,2021-04-26_17h15.05.218,searchDisc4,2020.2.10,Win32,60,,,space,0.310975,2,1,0.688675,,0,28,28,302,1,2a,74,0,0,
,,,,,,,,,,,,,,,,,,,,,,,,,,images/exp1a_trial_95_colour1_distractors4_l.png,l,1,034,001,2021-04-26_17h15.05.218,searchDisc4,2020.2.10,Win32,60,,,space,0.235005,1,1,0.544415,,0,29,29,95,1,1a,95,1,4,
,,,,,,,,,,,,,,,,,,,,,,,,,,images/exp2a_trial_92_colour3_distractors31_r.png,r,2,034,001,2021-04-26_17h15.05.218,searchDisc4,2020.2.10,Win32,60,,,space,0.36013,2,1,0.55755,,0,30,30,320,1,2a,92,3,31,
,,,,,,,,,,,,,,,,,,,,,,,,,,images/exp2a_trial_50_colour3_distractors1_r.png,r,2,034,001,2021-04-26_17h15.05.218,searchDisc4,2020.2.10,Win32,60,,,space,0.267455,1,0,0.51416,,0,31,31,278,1,2a,50,3,1,
,,,,,,,,,,,,,,,,,,,,,,,,,,images/exp2c_trial_25_colour2_distractors4_l.png,l,1,034,001,2021-04-26_17h15.05.218,searchDisc4,2020.2.10,Win32,60,,,space,0.758185,1,1,0.613125,,0,32,32,481,1,2c,25,2,4,
,,,,,,,,,,,,,,,,,,,,,,,,,,images/exp2c_trial_11_colour2_distractors43_r.png,r,2,034,001,2021-04-26_17h15.05.218,searchDisc4,2020.2.10,Win32,60,,,space,0.27096,2,1,0.58726,,0,33,33,467,1,2c,11,2,43,
,,,,,,,,,,,,,,,,,,,,,,,,,,images/exp2c_trial_48_colour2_distractors31_r.png,r,2,034,001,2021-04-26_17h15.05.218,searchDisc4,2020.2.10,Win32,60,,,space,0.23943,2,1,0.74557,,0,34,34,504,1,2c,48,2,31,
,,,,,,,,,,,,,,,,,,,,,,,,,,images/exp2a_trial_20_colour1_distractors9_l.png,l,1,034,001,2021-04-26_17h15.05.218,searchDisc4,2020.2.10,Win32,60,,,space,0.203675,1,1,0.716435,,0,35,35,248,1,2a,20,1,9,
,,,,,,,,,,,,,,,,,,,,,,,,,,images/exp2a_trial_37_colour0_distractors0_l.png,l,1,034,001,2021-04-26_17h15.05.218,searchDisc4,2020.2.10,Win32,60,,,space,0.262145,1,1,0.635725,,0,36,36,265,1,2a,37,0,0,
,,,,,,,,,,,,,,,,,,,,,,,,,,images/exp2b_trial_7_colour2_distractors4_r.png,r,2,034,001,2021-04-26_17h15.05.218,searchDisc4,2020.2.10,Win32,60,,,space,0.351415,2,1,0.722035,,0,37,37,349,1,2b,7,2,4,
,,,,,,,,,,,,,,,,,,,,,,,,,,images/exp2c_trial_2_colour1_distractors9_r.png,r,2,034,001,2021-04-26_17h15.05.218,searchDisc4,2020.2.10,Win32,60,,,space,0.276045,2,1,0.67198,,0,38,38,458,1,2c,2,1,9,
,,,,,,,,,,,,,,,,,,,,,,,,,,images/exp2a_trial_65_colour2_distractors19_l.png,l,1,034,001,2021-04-26_17h15.05.218,searchDisc4,2020.2.10,Win32,60,,,space,0.2509,1,1,0.604205,,0,39,39,293,1,2a,65,2,19,
,,,,,,,,,,,,,,,,,,,,,,,,,,images/exp2a_trial_79_colour1_distractors19_r.png,r,2,034,001,2021-04-26_17h15.05.218,searchDisc4,2020.2.10,Win32,60,,,space,0.21412,2,1,0.69021,,0,40,40,307,1,2a,79,1,19,
,,,,,,,,,,,,,,,,,,,,,,,,,,images/exp1a_trial_73_colour3_distractors43_l.png,l,1,034,001,2021-04-26_17h15.05.218,searchDisc4,2020.2.10,Win32,60,,,space,0.252965,1,1,0.62222,,0,41,41,73,1,1a,73,3,43,
,,,,,,,,,,,,,,,,,,,,,,,,,,images/exp1b_trial_11_colour2_distractors43_r.png,r,2,034,001,2021-04-26_17h15.05.218,searchDisc4,2020.2.10,Win32,60,,,space,0.26695,2,1,0.74011,,0,42,42,125,1,1b,11,2,43,
,,,,,,,,,,,,,,,,,,,,,,,,,,images/exp2a_trial_39_colour1_distractors4_r.png,r,2,034,001,2021-04-26_17h15.05.218,searchDisc4,2020.2.10,Win32,60,,,space,0.20282,2,1,0.83047,,0,43,43,267,1,2a,39,1,4,
,,,,,,,,,,,,,,,,,,,,,,,,,,images/exp2c_trial_74_colour0_distractors0_r.png,r,2,034,001,2021-04-26_17h15.05.218,searchDisc4,2020.2.10,Win32,60,,,space,0.14258,2,1,0.973355,,0,44,44,530,1,2c,74,0,0,
,,,,,,,,,,,,,,,,,,,,,,,,,,images/exp1b_trial_49_colour2_distractors43_r.png,r,2,034,001,2021-04-26_17h15.05.218,searchDisc4,2020.2.10,Win32,60,,,space,0.145225,2,1,0.961975,,0,45,45,163,1,1b,49,2,43,
,,,,,,,,,,,,,,,,,,,,,,,,,,images/exp1a_trial_92_colour3_distractors31_r.png,r,2,034,001,2021-04-26_17h15.05.218,searchDisc4,2020.2.10,Win32,60,,,space,0.175195,2,1,0.727995,,0,46,46,92,1,1a,92,3,31,
,,,,,,,,,,,,,,,,,,,,,,,,,,images/exp1b_trial_64_colour2_distractors9_l.png,l,1,034,001,2021-04-26_17h15.05.218,searchDisc4,2020.2.10,Win32,60,,,space,0.248515,1,1,0.79194,,0,47,47,178,1,1b,64,2,9,
,,,,,,,,,,,,,,,,,,,,,,,,,,images/exp2b_trial_50_colour3_distractors1_r.png,r,2,034,001,2021-04-26_17h15.05.218,searchDisc4,2020.2.10,Win32,60,,,space,0.16307,2,1,0.58156,,0,48,48,392,1,2b,50,3,1,
,,,,,,,,,,,,,,,,,,,,,,,,,,images/exp2c_trial_100_colour2_distractors1_l.png,l,1,034,001,2021-04-26_17h15.05.218,searchDisc4,2020.2.10,Win32,60,,,space,0.268645,1,1,0.572525,,0,49,49,556,1,2c,100,2,1,
,,,,,,,,,,,,,,,,,,,,,,,,,,images/exp1b_trial_53_colour3_distractors19_r.png,r,2,034,001,2021-04-26_17h15.05.218,searchDisc4,2020.2.10,Win32,60,,,space,0.271155,2,1,1.38446,,0,50,50,167,1,1b,53,3,19,
,,,,,,,,,,,,,,,,,,,,,,,,,,images/exp2a_trial_90_colour3_distractors9_r.png,r,2,034,001,2021-04-26_17h15.05.218,searchDisc4,2020.2.10,Win32,60,,,space,0.25042,2,1,0.83149,,0,51,51,318,1,2a,90,3,9,
,,,,,,,,,,,,,,,,,,,,,,,,,,images/exp1a_trial_58_colour1_distractors9_l.png,l,1,034,001,2021-04-26_17h15.05.218,searchDisc4,2020.2.10,Win32,60,,,space,0.229195,1,1,0.573235,,0,52,52,58,1,1a,58,1,9,
,,,,,,,,,,,,,,,,,,,,,,,,,,images/exp2c_trial_10_colour2_distractors31_r.png,r,2,034,001,2021-04-26_17h15.05.218,searchDisc4,2020.2.10,Win32,60,,,space,0.27467,2,1,0.74639,,0,53,53,466,1,2c,10,2,31,
,,,,,,,,,,,,,,,,,,,,,,,,,,images/exp2c_trial_21_colour1_distractors19_l.png,l,1,034,001,2021-04-26_17h15.05.218,searchDisc4,2020.2.10,Win32,60,,,space,0.143585,1,1,0.650095,,0,54,54,477,1,2c,21,1,19,
,,,,,,,,,,,,,,,,,,,,,,,,,,images/exp2a_trial_83_colour2_distractors4_r.png,r,2,034,001,2021-04-26_17h15.05.218,searchDisc4,2020.2.10,Win32,60,,,space,0.213655,2,1,0.67163,,0,55,55,311,1,2a,83,2,4,
,,,,,,,,,,,,,,,,,,,,,,,,,,images/exp2c_trial_35_colour3_distractors43_l.png,l,1,034,001,2021-04-26_17h15.05.218,searchDisc4,2020.2.10,Win32,60,,,space,0.13564,1,1,0.85432,,0,56,56,491,1,2c,35,3,43,
,,,,,,,,,,,,,,,,,,,,,,,,,,images/exp2b_trial_87_colour2_distractors43_r.png,r,2,034,001,2021-04-26_17h15.05.218,searchDisc4,2020.2.10,Win32,60,,,space,0.1547,2,1,0.63107,,0,57,57,429,1,2b,87,2,43,
,,,,,,,,,,,,,,,,,,,,,,,,,,images/exp2c_trial_64_colour2_distractors9_l.png,l,1,034,001,2021-04-26_17h15.05.218,searchDisc4,2020.2.10,Win32,60,,,space,0.209935,1,1,0.688295,,0,58,58,520,1,2c,64,2,9,
,,,,,,,,,,,,,,,,,,,,,,,,,,images/exp2c_trial_73_colour3_distractors43_l.png,l,1,034,001,2021-04-26_17h15.05.218,searchDisc4,2020.2.10,Win32,60,,,space,0.172225,1,1,0.757785,space,0,59,59,529,1,2c,73,3,43,0.120625
,,,,,,,,,,,,,,,,,,,,,,,,,,images/exp1a_trial_6_colour2_distractors1_r.png,r,2,034,001,2021-04-26_17h15.05.218,searchDisc4,2020.2.10,Win32,60,,,space,1.808705,2,1,0.60355,,0,60,60,6,1,1a,6,2,1,
,,,,,,,,,,,,,,,,,,,,,,,,,,images/exp2b_trial_45_colour2_distractors4_r.png,r,2,034,001,2021-04-26_17h15.05.218,searchDisc4,2020.2.10,Win32,60,,,space,0.30109,2,1,0.622485,,0,61,61,387,1,2b,45,2,4,
,,,,,,,,,,,,,,,,,,,,,,,,,,images/exp2b_trial_27_colour2_distractors19_l.png,l,1,034,001,2021-04-26_17h15.05.218,searchDisc4,2020.2.10,Win32,60,,,space,0.218795,1,1,0.721485,,0,62,62,369,1,2b,27,2,19,
,,,,,,,,,,,,,,,,,,,,,,,,,,images/exp1a_trial_45_colour2_distractors4_r.png,r,2,034,001,2021-04-26_17h15.05.218,searchDisc4,2020.2.10,Win32,60,,,space,0.234925,2,1,0.706385,,0,63,63,45,1,1a,45,2,4,
,,,,,,,,,,,,,,,,,,,,,,,,,,images/exp1a_trial_33_colour3_distractors19_l.png,l,1,034,001,2021-04-26_17h15.05.218,searchDisc4,2020.2.10,Win32,60,,,space,0.219465,1,1,0.57341,,0,64,64,33,1,1a,33,3,19,
,,,,,,,,,,,,,,,,,,,,,,,,,,images/exp2c_trial_50_colour3_distractors1_r.png,r,2,034,001,2021-04-26_17h15.05.218,searchDisc4,2020.2.10,Win32,60,,,space,0.22488,2,1,0.601615,,0,65,65,506,1,2c,50,3,1,
,,,,,,,,,,,,,,,,,,,,,,,,,,images/exp2a_trial_8_colour2_distractors9_r.png,r,2,034,001,2021-04-26_17h15.05.218,searchDisc4,2020.2.10,Win32,60,,,space,0.227245,2,1,0.664195,,0,66,66,236,1,2a,8,2,9,
,,,,,,,,,,,,,,,,,,,,,,,,,,images/exp2b_trial_11_colour2_distractors43_r.png,r,2,034,001,2021-04-26_17h15.05.218,searchDisc4,2020.2.10,Win32,60,,,space,0.200235,2,1,0.84095,,0,67,67,353,1,2b,11,2,43,
,,,,,,,,,,,,,,,,,,,,,,,,,,images/exp2b_trial_79_colour1_distractors19_r.png,r,2,034,001,2021-04-26_17h15.05.218,searchDisc4,2020.2.10,Win32,60,,,space,0.186015,2,1,0.632345,,0,68,68,421,1,2b,79,1,19,
,,,,,,,,,,,,,,,,,,,,,,,,,,images/exp2c_trial_101_colour2_distractors4_l.png,l,1,034,001,2021-04-26_17h15.05.218,searchDisc4,2020.2.10,Win32,60,,,space,0.205435,1,1,0.82139,,0,69,69,557,1,2c,101,2,4,
,,,,,,,,,,,,,,,,,,,,,,,,,,images/exp2a_trial_96_colour1_distractors9_l.png,l,1,034,001,2021-04-26_17h15.05.218,searchDisc4,2020.2.10,Win32,60,,,space,0.177985,1,1,0.651035,,0,70,70,324,1,2a,96,1,9,
,,,,,,,,,,,,,,,,,,,,,,,,,,images/exp1a_trial_93_colour3_distractors43_r.png,r,2,034,001,2021-04-26_17h15.05.218,searchDisc4,2020.2.10,Win32,60,,,space,0.23163,2,1,1.00477,,0,71,71,93,1,1a,93,3,43,
,,,,,,,,,,,,,,,,,,,,,,,,,,images/exp2c_trial_41_colour1_distractors19_r.png,r,2,034,001,2021-04-26_17h15.05.218,searchDisc4,2020.2.10,Win32,60,,,space,0.164525,2,1,0.79455,,0,72,72,497,1,2c,41,1,19,
,,,,,,,,,,,,,,,,,,,,,,,,,,images/exp1b_trial_52_colour3_distractors9_r.png,r,2,034,001,2021-04-26_17h15.05.218,searchDisc4,2020.2.10,Win32,60,,,space,0.225485,2,1,1.13656,,0,73,73,166,1,1b,52,3,9,
,,,,,,,,,,,,,,,,,,,,,,,,,,images/exp1b_trial_1_colour1_distractors4_r.png,r,2,034,001,2021-04-26_17h15.05.218,searchDisc4,2020.2.10,Win32,60,,,space,0.183125,2,1,0.896665,,0,74,74,115,1,1b,1,1,4,
,,,,,,,,,,,,,,,,,,,,,,,,,,images/exp1b_trial_112_colour0_distractors0_r.png,r,2,034,001,2021-04-26_17h15.05.218,searchDisc4,2020.2.10,Win32,60,,,space,0.162945,2,1,0.56416,,0,75,75,226,1,1b,112,0,0,
,,,,,,,,,,,,,,,,,,,,,,,,,,images/exp1a_trial_26_colour2_distractors9_l.png,l,1,034,001,2021-04-26_17h15.05.218,searchDisc4,2020.2.10,Win32,60,,,space,0.28127,1,1,0.7977,,0,76,76,26,1,1a,26,2,9,
,,,,,,,,,,,,,,,,,,,,,,,,,,images/exp1a_trial_3_colour1_distractors19_r.png,r,2,034,001,2021-04-26_17h15.05.218,searchDisc4,2020.2.10,Win32,60,,,space,0.18,2,1,0.729015,,0,77,77,3,1,1a,3,1,19,
,,,,,,,,,,,,,,,,,,,,,,,,,,images/exp1a_trial_46_colour2_distractors9_r.png,r,2,034,001,2021-04-26_17h15.05.218,searchDisc4,2020.2.10,Win32,60,,,space,0.150835,2,1,0.64381,,0,78,78,46,1,1a,46,2,9,
,,,,,,,,,,,,,,,,,,,,,,,,,,images/exp1a_trial_39_colour1_distractors4_r.png,r,2,034,001,2021-04-26_17h15.05.218,searchDisc4,2020.2.10,Win32,60,,,space,0.2653,2,1,0.910015,,0,79,79,39,1,1a,39,1,4,
,,,,,,,,,,,,,,,,,,,,,,,,,,images/exp1a_trial_68_colour3_distractors1_l.png,l,1,034,001,2021-04-26_17h15.05.218,searchDisc4,2020.2.10,Win32,60,,,space,0.29639,1,1,0.932185,,0,80,80,68,1,1a,68,3,1,
,,,,,,,,,,,,,,,,,,,,,,,,,,images/exp1b_trial_80_colour1_distractors31_r.png,r,2,034,001,2021-04-26_17h15.05.218,searchDisc4,2020.2.10,Win32,60,,,space,0.244425,2,1,1.01937,,0,81,81,194,1,1b,80,1,31,
,,,,,,,,,,,,,,,,,,,,,,,,,,images/exp1b_trial_8_colour2_distractors9_r.png,r,2,034,001,2021-04-26_17h15.05.218,searchDisc4,2020.2.10,Win32,60,,,space,0.20684,2,1,0.812705,,0,82,82,122,1,1b,8,2,9,
,,,,,,,,,,,,,,,,,,,,,,,,,,images/exp2a_trial_46_colour2_distractors9_r.png,r,2,034,001,2021-04-26_17h15.05.218,searchDisc4,2020.2.10,Win32,60,,,space,0.218525,2,1,0.78127,,0,83,83,274,1,2a,46,2,9,
,,,,,,,,,,,,,,,,,,,,,,,,,,images/exp2a_trial_73_colour3_distractors43_l.png,l,1,034,001,2021-04-26_17h15.05.218,searchDisc4,2020.2.10,Win32,60,,,space,0.162385,1,1,0.781615,,0,84,84,301,1,2a,73,3,43,
,,,,,,,,,,,,,,,,,,,,,,,,,,images/exp1a_trial_59_colour1_distractors19_l.png,l,1,034,001,2021-04-26_17h15.05.218,searchDisc4,2020.2.10,Win32,60,,,space,0.174845,1,1,0.664085,,0,85,85,59,1,1a,59,1,19,
,,,,,,,,,,,,,,,,,,,,,,,,,,images/exp2a_trial_33_colour3_distractors19_l.png,l,1,034,001,2021-04-26_17h15.05.218,searchDisc4,2020.2.10,Win32,60,,,space,0.243145,1,1,0.65809,,0,86,86,261,1,2a,33,3,19,
,,,,,,,,,,,,,,,,,,,,,,,,,,images/exp2c_trial_78_colour1_distractors9_r.png,r,2,034,001,2021-04-26_17h15.05.218,searchDisc4,2020.2.10,Win32,60,,,space,0.476715,2,1,0.61389,,0,87,87,534,1,2c,78,1,9,
,,,,,,,,,,,,,,,,,,,,,,,,,,images/exp2a_trial_113_colour0_distractors0_l.png,l,1,034,001,2021-04-26_17h15.05.218,searchDisc4,2020.2.10,Win32,60,,,space,0.48645,1,1,0.893965,,0,88,88,341,1,2a,113,0,0,
,,,,,,,,,,,,,,,,,,,,,,,,,,images/exp2a_trial_84_colour2_distractors9_r.png,r,2,034,001,2021-04-26_17h15.05.218,searchDisc4,2020.2.10,Win32,60,,,space,0.420595,2,1,0.616725,,0,89,89,312,1,2a,84,2,9,
,,,,,,,,,,,,,,,,,,,,,,,,,,images/exp1a_trial_81_colour1_distractors43_r.png,r,2,034,001,2021-04-26_17h15.05.218,searchDisc4,2020.2.10,Win32,60,,,space,0.40947,2,1,0.751705,,0,90,90,81,1,1a,81,1,43,
,,,,,,,,,,,,,,,,,,,,,,,,,,images/exp2b_trial_80_colour1_distractors31_r.png,r,2,034,001,2021-04-26_17h15.05.218,searchDisc4,2020.2.10,Win32,60,,,space,0.47187,2,1,0.6921,,0,91,91,422,1,2b,80,1,31,
,,,,,,,,,,,,,,,,,,,,,,,,,,images/exp2c_trial_80_colour1_distractors31_r.png,r,2,034,001,2021-04-26_17h15.05.218,searchDisc4,2020.2.10,Win32,60,,,space,0.708855,2,1,0.62616,,0,92,92,536,1,2c,80,1,31,
,,,,,,,,,,,,,,,,,,,,,,,,,,images/exp2c_trial_113_colour0_distractors0_l.png,l,1,034,001,2021-04-26_17h15.05.218,searchDisc4,2020.2.10,Win32,60,,,space,0.332725,1,1,0.64111,,0,93,93,569,1,2c,113,0,0,
,,,,,,,,,,,,,,,,,,,,,,,,,,images/exp2b_trial_99_colour1_distractors43_l.png,l,1,034,001,2021-04-26_17h15.05.218,searchDisc4,2020.2.10,Win32,60,,,space,0.38075,1,1,0.79021,,0,94,94,441,1,2b,99,1,43,
,,,,,,,,,,,,,,,,,,,,,,,,,,images/exp2b_trial_69_colour3_distractors4_l.png,l,1,034,001,2021-04-26_17h15.05.218,searchDisc4,2020.2.10,Win32,60,,,space,0.40962,1,1,0.817165,,0,95,95,411,1,2b,69,3,4,
,,,,,,,,,,,,,,,,,,,,,,,,,,images/exp2b_trial_25_colour2_distractors4_l.png,l,1,034,001,2021-04-26_17h15.05.218,searchDisc4,2020.2.10,Win32,60,,,space,0.198205,1,1,0.74467,,0,96,96,367,1,2b,25,2,4,
,,,,,,,,,,,,,,,,,,,,,,,,,,images/exp2a_trial_42_colour1_distractors31_r.png,r,2,034,001,2021-04-26_17h15.05.218,searchDisc4,2020.2.10,Win32,60,,,space,0.45406,2,1,0.606375,,0,97,97,270,1,2a,42,1,31,
,,,,,,,,,,,,,,,,,,,,,,,,,,images/exp1a_trial_31_colour3_distractors4_l.png,l,1,034,001,2021-04-26_17h15.05.218,searchDisc4,2020.2.10,Win32,60,,,space,0.40899,1,1,0.976855,,0,98,98,31,1,1a,31,3,4,
,,,,,,,,,,,,,,,,,,,,,,,,,,images/exp2b_trial_111_colour3_distractors43_l.png,l,1,034,001,2021-04-26_17h15.05.218,searchDisc4,2020.2.10,Win32,60,,,space,0.280835,1,1,0.69621,,0,99,99,453,1,2b,111,3,43,
,,,,,,,,,,,,,,,,,,,,,,,,,,images/exp1b_trial_23_colour1_distractors43_l.png,l,1,034,001,2021-04-26_17h15.05.218,searchDisc4,2020.2.10,Win32,60,,,space,0.3254,1,1,1.06416,,0,100,100,137,1,1b,23,1,43,
,,,,,,,,,,,,,,,,,,,,,,,,,,images/exp1a_trial_100_colour2_distractors1_l.png,l,1,034,001,2021-04-26_17h15.05.218,searchDisc4,2020.2.10,Win32,60,,,space,0.274035,1,1,0.793695,,0,101,101,100,1,1a,100,2,1,
,,,,,,,,,,,,,,,,,,,,,,,,,,images/exp1a_trial_82_colour2_distractors1_r.png,r,2,034,001,2021-04-26_17h15.05.218,searchDisc4,2020.2.10,Win32,60,,,space,0.35737,2,1,0.60653,,0,102,102,82,1,1a,82,2,1,
,,,,,,,,,,,,,,,,,,,,,,,,,,images/exp1a_trial_61_colour1_distractors43_l.png,l,1,034,001,2021-04-26_17h15.05.218,searchDisc4,2020.2.10,Win32,60,,,space,0.340715,1,1,0.56652,,0,103,103,61,1,1a,61,1,43,
,,,,,,,,,,,,,,,,,,,,,,,,,,images/exp2c_trial_56_colour1_distractors1_l.png,l,1,034,001,2021-04-26_17h15.05.218,searchDisc4,2020.2.10,Win32,60,,,space,0.30066,1,1,0.77131,,0,104,104,512,1,2c,56,1,1,
,,,,,,,,,,,,,,,,,,,,,,,,,,images/exp2c_trial_30_colour3_distractors1_l.png,l,1,034,001,2021-04-26_17h15.05.218,searchDisc4,2020.2.10,Win32,60,,,space,0.278705,1,1,0.82701,,0,105,105,486,1,2c,30,3,1,
,,,,,,,,,,,,,,,,,,,,,,,,,,images/exp1b_trial_17_colour3_distractors43_r.png,r,2,034,001,2021-04-26_17h15.05.218,searchDisc4,2020.2.10,Win32,60,,,space,0.247995,2,1,2.22788,,0,106,106,131,1,1b,17,3,43,
,,,,,,,,,,,,,,,,,,,,,,,,,,images/exp1a_trial_27_colour2_distractors19_l.png,l,1,034,001,2021-04-26_17h15.05.218,searchDisc4,2020.2.10,Win32,60,,,space,0.18722,1,1,0.714555,,0,107,107,27,1,1a,27,2,19,
,,,,,,,,,,,,,,,,,,,,,,,,,,images/exp2b_trial_91_colour3_distractors19_r.png,r,2,034,001,2021-04-26_17h15.05.218,searchDisc4,2020.2.10,Win32,60,,,space,0.32268,2,1,0.68577,,0,108,108,433,1,2b,91,3,19,
,,,,,,,,,,,,,,,,,,,,,,,,,,images/exp2b_trial_73_colour3_distractors43_l.png,l,1,034,001,2021-04-26_17h15.05.218,searchDisc4,2020.2.10,Win32,60,,,space,0.28806,1,1,0.99088,,0,109,109,415,1,2b,73,3,43,
,,,,,,,,,,,,,,,,,,,,,,,,,,images/exp1a_trial_5_colour1_distractors43_r.png,r,2,034,001,2021-04-26_17h15.05.218,searchDisc4,2020.2.10,Win32,60,,,space,0.227135,2,1,0.737665,,0,110,110,5,1,1a,5,1,43,
,,,,,,,,,,,,,,,,,,,,,,,,,,images/exp2a_trial_57_colour1_distractors4_l.png,l,1,034,001,2021-04-26_17h15.05.218,searchDisc4,2020.2.10,Win32,60,,,space,0.224695,1,1,0.8012,,0,111,111,285,1,2a,57,1,4,
,,,,,,,,,,,,,,,,,,,,,,,,,,images/exp1b_trial_74_colour0_distractors0_r.png,r,2,034,001,2021-04-26_17h15.05.218,searchDisc4,2020.2.10,Win32,60,,,space,0.293975,2,1,0.6786,,0,112,112,188,1,1b,74,0,0,
,,,,,,,,,,,,,,,,,,,,,,,,,,images/exp2a_trial_29_colour2_distractors43_l.png,l,1,034,001,2021-04-26_17h15.05.218,searchDisc4,2020.2.10,Win32,60,,,space,0.221405,1,1,0.645715,,0,113,113,257,1,2a,29,2,43,
,,,,,,,,,,,,,,,,,,,,,,,,,,images/exp1a_trial_71_colour3_distractors19_l.png,l,1,034,001,2021-04-26_17h15.05.218,searchDisc4,2020.2.10,Win32,60,,,space,0.263455,1,1,0.766335,,0,114,114,71,1,1a,71,3,19,
,,,,,,,,,,,,,,,,,,,,,,,,,,images/exp2b_trial_112_colour0_distractors0_r.png,r,2,034,001,2021-04-26_17h15.05.218,searchDisc4,2020.2.10,Win32,60,,,space,0.20305,2,1,0.706765,,0,115,115,454,1,2b,112,0,0,
,,,,,,,,,,,,,,,,,,,,,,,,,,images/exp1b_trial_86_colour2_distractors31_r.png,r,2,034,001,2021-04-26_17h15.05.218,searchDisc4,2020.2.10,Win32,60,,,space,0.203985,2,1,0.9639,,0,116,116,200,1,1b,86,2,31,
,,,,,,,,,,,,,,,,,,,,,,,,,,images/exp2c_trial_46_colour2_distractors9_r.png,r,2,034,001,2021-04-26_17h15.05.218,searchDisc4,2020.2.10,Win32,60,,,space,0.218285,2,1,0.825775,,0,117,117,502,1,2c,46,2,9,
,,,,,,,,,,,,,,,,,,,,,,,,,,images/exp2a_trial_21_colour1_distractors19_l.png,l,1,034,001,2021-04-26_17h15.05.218,searchDisc4,2020.2.10,Win32,60,,,space,0.228735,1,1,0.715195,,0,118,118,249,1,2a,21,1,19,
,,,,,,,,,,,,,,,,,,,,,,,,,,images/exp2b_trial_74_colour0_distractors0_r.png,r,2,034,001,2021-04-26_17h15.05.218,searchDisc4,2020.2.10,Win32,60,,,space,0.317035,2,1,0.81458,space,0,119,119,416,1,2b,74,0,0,0.275115
,,,,,,,,,,,,,,,,,,,,,,,,,,images/exp1a_trial_36_colour0_distractors0_r.png,r,2,034,001,2021-04-26_17h15.05.218,searchDisc4,2020.2.10,Win32,60,,,space,21.84446,2,1,0.563655,,0,120,120,36,1,1a,36,0,0,
,,,,,,,,,,,,,,,,,,,,,,,,,,images/exp2a_trial_87_colour2_distractors43_r.png,r,2,034,001,2021-04-26_17h15.05.218,searchDisc4,2020.2.10,Win32,60,,,space,0.35264,2,1,0.664765,,0,121,121,315,1,2a,87,2,43,
,,,,,,,,,,,,,,,,,,,,,,,,,,images/exp2a_trial_30_colour3_distractors1_l.png,l,1,034,001,2021-04-26_17h15.05.218,searchDisc4,2020.2.10,Win32,60,,,space,0.354775,1,1,0.740645,,0,122,122,258,1,2a,30,3,1,
,,,,,,,,,,,,,,,,,,,,,,,,,,images/exp1b_trial_88_colour3_distractors1_r.png,r,2,034,001,2021-04-26_17h15.05.218,searchDisc4,2020.2.10,Win32,60,,,space,0.221195,2,1,1.01652,,0,123,123,202,1,1b,88,3,1,
,,,,,,,,,,,,,,,,,,,,,,,,,,images/exp1a_trial_70_colour3_distractors9_l.png,l,1,034,001,2021-04-26_17h15.05.218,searchDisc4,2020.2.10,Win32,60,,,space,0.191055,1,1,0.822955,,0,124,124,70,1,1a,70,3,9,
,,,,,,,,,,,,,,,,,,,,,,,,,,images/exp2b_trial_12_colour3_distractors1_r.png,r,2,034,001,2021-04-26_17h15.05.218,searchDisc4,2020.2.10,Win32,60,,,space,0.413515,2,1,0.783535,,0,125,125,354,1,2b,12,3,1,
,,,,,,,,,,,,,,,,,,,,,,,,,,images/exp2c_trial_66_colour2_distractors31_l.png,l,1,034,001,2021-04-26_17h15.05.218,searchDisc4,2020.2.10,Win32,60,,,space,0.19512,1,1,0.87458,,0,126,126,522,1,2c,66,2,31,
,,,,,,,,,,,,,,,,,,,,,,,,,,images/exp2b_trial_90_colour3_distractors9_r.png,r,2,034,001,2021-04-26_17h15.05.218,searchDisc4,2020.2.10,Win32,60,,,space,0.18834,2,1,0.62362,,0,127,127,432,1,2b,90,3,9,
,,,,,,,,,,,,,,,,,,,,,,,,,,images/exp2a_trial_67_colour2_distractors43_l.png,l,1,034,001,2021-04-26_17h15.05.218,searchDisc4,2020.2.10,Win32,60,,,space,0.38279,1,1,0.74355,,0,128,128,295,1,2a,67,2,43,
,,,,,,,,,,,,,,,,,,,,,,,,,,images/exp2c_trial_9_colour2_distractors19_r.png,r,2,034,001,2021-04-26_17h15.05.218,searchDisc4,2020.2.10,Win32,60,,,space,0.30585,2,1,0.761465,,0,129,129,465,1,2c,9,2,19,
,,,,,,,,,,,,,,,,,,,,,,,,,,images/exp1b_trial_19_colour1_distractors4_l.png,l,1,034,001,2021-04-26_17h15.05.218,searchDisc4,2020.2.10,Win32,60,,,space,0.41341,1,1,1.26024,,0,130,130,133,1,1b,19,1,4,
,,,,,,,,,,,,,,,,,,,,,,,,,,images/exp1a_trial_34_colour3_distractors31_l.png,l,1,034,001,2021-04-26_17h15.05.218,searchDisc4,2020.2.10,Win32,60,,,space,0.30193,1,1,0.88043,,0,131,131,34,1,1a,34,3,31,
,,,,,,,,,,,,,,,,,,,,,,,,,,images/exp1a_trial_90_colour3_distractors9_r.png,r,2,034,001,2021-04-26_17h15.05.218,searchDisc4,2020.2.10,Win32,60,,,space,0.203115,2,1,1.028025,,0,132,132,90,1,1a,90,3,9,
,,,,,,,,,,,,,,,,,,,,,,,,,,images/exp2a_trial_62_colour2_distractors1_l.png,l,1,034,001,2021-04-26_17h15.05.218,searchDisc4,2020.2.10,Win32,60,,,space,0.47123,1,1,0.66029,,0,133,133,290,1,2a,62,2,1,
,,,,,,,,,,,,,,,,,,,,,,,,,,images/exp2b_trial_9_colour2_distractors19_r.png,r,2,034,001,2021-04-26_17h15.05.218,searchDisc4,2020.2.10,Win32,60,,,space,0.39143,2,1,0.65753,,0,134,134,351,1,2b,9,2,19,
,,,,,,,,,,,,,,,,,,,,,,,,,,images/exp1b_trial_105_colour2_distractors43_l.png,l,1,034,001,2021-04-26_17h15.05.218,searchDisc4,2020.2.10,Win32,60,,,space,0.180325,1,1,1.16653,,0,135,135,219,1,1b,105,2,43,
,,,,,,,,,,,,,,,,,,,,,,,,,,images/exp2a_trial_11_colour2_distractors43_r.png,r,2,034,001,2021-04-26_17h15.05.218,searchDisc4,2020.2.10,Win32,60,,,space,0.23413,2,1,0.640445,,0,136,136,239,1,2a,11,2,43,
,,,,,,,,,,,,,,,,,,,,,,,,,,images/exp1b_trial_85_colour2_distractors19_r.png,r,2,034,001,2021-04-26_17h15.05.218,searchDisc4,2020.2.10,Win32,60,,,space,0.204145,2,1,1.36136,,0,137,137,199,1,1b,85,2,19,
,,,,,,,,,,,,,,,,,,,,,,,,,,images/exp1b_trial_60_colour1_distractors31_l.png,l,1,034,001,2021-04-26_17h15.05.218,searchDisc4,2020.2.10,Win32,60,,,space,0.25284,1,1,0.87203,,0,138,138,174,1,1b,60,1,31,
,,,,,,,,,,,,,,,,,,,,,,,,,,images/exp2c_trial_38_colour1_distractors1_r.png,r,2,034,001,2021-04-26_17h15.05.218,searchDisc4,2020.2.10,Win32,60,,,space,0.22514,2,1,0.69467,,0,139,139,494,1,2c,38,1,1,
,,,,,,,,,,,,,,,,,,,,,,,,,,images/exp2c_trial_31_colour3_distractors4_l.png,l,1,034,001,2021-04-26_17h15.05.218,searchDisc4,2020.2.10,Win32,60,,,space,0.1619,1,1,0.70503,,0,140,140,487,1,2c,31,3,4,
,,,,,,,,,,,,,,,,,,,,,,,,,,images/exp2a_trial_91_colour3_distractors19_r.png,r,2,034,001,2021-04-26_17h15.05.218,searchDisc4,2020.2.10,Win32,60,,,space,0.190145,2,1,0.77893,,0,141,141,319,1,2a,91,3,19,
,,,,,,,,,,,,,,,,,,,,,,,,,,images/exp2b_trial_70_colour3_distractors9_l.png,l,1,034,001,2021-04-26_17h15.05.218,searchDisc4,2020.2.10,Win32,60,,,space,0.18119,1,1,0.819395,,0,142,142,412,1,2b,70,3,9,
,,,,,,,,,,,,,,,,,,,,,,,,,,images/exp2b_trial_6_colour2_distractors1_r.png,r,2,034,001,2021-04-26_17h15.05.218,searchDisc4,2020.2.10,Win32,60,,,space,0.17594,2,1,0.61776,,0,143,143,348,1,2b,6,2,1,
,,,,,,,,,,,,,,,,,,,,,,,,,,images/exp2a_trial_53_colour3_distractors19_r.png,r,2,034,001,2021-04-26_17h15.05.218,searchDisc4,2020.2.10,Win32,60,,,space,0.18999,2,1,0.818565,,0,144,144,281,1,2a,53,3,19,
,,,,,,,,,,,,,,,,,,,,,,,,,,images/exp1b_trial_36_colour0_distractors0_r.png,r,2,034,001,2021-04-26_17h15.05.218,searchDisc4,2020.2.10,Win32,60,,,space,0.12339,2,1,1.190985,,0,145,145,150,1,1b,36,0,0,
,,,,,,,,,,,,,,,,,,,,,,,,,,images/exp2a_trial_3_colour1_distractors19_r.png,r,2,034,001,2021-04-26_17h15.05.218,searchDisc4,2020.2.10,Win32,60,,,space,0.17172,2,1,1.246335,,0,146,146,231,1,2a,3,1,19,
,,,,,,,,,,,,,,,,,,,,,,,,,,images/exp2c_trial_28_colour2_distractors31_l.png,l,1,034,001,2021-04-26_17h15.05.218,searchDisc4,2020.2.10,Win32,60,,,space,0.112855,1,1,1.032685,,0,147,147,484,1,2c,28,2,31,
,,,,,,,,,,,,,,,,,,,,,,,,,,images/exp2a_trial_85_colour2_distractors19_r.png,r,2,034,001,2021-04-26_17h15.05.218,searchDisc4,2020.2.10,Win32,60,,,space,0.14539,2,1,0.745265,,0,148,148,313,1,2a,85,2,19,
,,,,,,,,,,,,,,,,,,,,,,,,,,images/exp1b_trial_93_colour3_distractors43_r.png,r,2,034,001,2021-04-26_17h15.05.218,searchDisc4,2020.2.10,Win32,60,,,space,0.192445,2,1,2.19942,,0,149,149,207,1,1b,93,3,43,
,,,,,,,,,,,,,,,,,,,,,,,,,,images/exp2b_trial_57_colour1_distractors4_l.png,l,1,034,001,2021-04-26_17h15.05.218,searchDisc4,2020.2.10,Win32,60,,,space,0.15823,1,1,0.632265,,0,150,150,399,1,2b,57,1,4,
,,,,,,,,,,,,,,,,,,,,,,,,,,images/exp2c_trial_20_colour1_distractors9_l.png,l,1,034,001,2021-04-26_17h15.05.218,searchDisc4,2020.2.10,Win32,60,,,space,0.228345,1,1,0.677495,,0,151,151,476,1,2c,20,1,9,
,,,,,,,,,,,,,,,,,,,,,,,,,,images/exp2a_trial_41_colour1_distractors19_r.png,r,2,034,001,2021-04-26_17h15.05.218,searchDisc4,2020.2.10,Win32,60,,,space,0.19911,2,1,0.78083,,0,152,152,269,1,2a,41,1,19,
,,,,,,,,,,,,,,,,,,,,,,,,,,images/exp2c_trial_59_colour1_distractors19_l.png,l,1,034,001,2021-04-26_17h15.05.218,searchDisc4,2020.2.10,Win32,60,,,space,0.196175,1,1,0.90859,,0,153,153,515,1,2c,59,1,19,
,,,,,,,,,,,,,,,,,,,,,,,,,,images/exp2c_trial_45_colour2_distractors4_r.png,r,2,034,001,2021-04-26_17h15.05.218,searchDisc4,2020.2.10,Win32,60,,,space,0.15547,2,1,0.962975,,0,154,154,501,1,2c,45,2,4,
,,,,,,,,,,,,,,,,,,,,,,,,,,images/exp2c_trial_96_colour1_distractors9_l.png,l,1,034,001,2021-04-26_17h15.05.218,searchDisc4,2020.2.10,Win32,60,,,space,0.124675,1,1,0.768045,,0,155,155,552,1,2c,96,1,9,
,,,,,,,,,,,,,,,,,,,,,,,,,,images/exp2b_trial_51_colour3_distractors4_r.png,r,2,034,001,2021-04-26_17h15.05.218,searchDisc4,2020.2.10,Win32,60,,,space,0.15941,2,1,0.769915,,0,156,156,393,1,2b,51,3,4,
,,,,,,,,,,,,,,,,,,,,,,,,,,images/exp1a_trial_19_colour1_distractors4_l.png,l,1,034,001,2021-04-26_17h15.05.218,searchDisc4,2020.2.10,Win32,60,,,space,0.19177,1,1,0.751865,,0,157,157,19,1,1a,19,1,4,
,,,,,,,,,,,,,,,,,,,,,,,,,,images/exp2a_trial_66_colour2_distractors31_l.png,l,1,034,001,2021-04-26_17h15.05.218,searchDisc4,2020.2.10,Win32,60,,,space,0.207405,1,1,1.034005,,0,158,158,294,1,2a,66,2,31,
,,,,,,,,,,,,,,,,,,,,,,,,,,images/exp1b_trial_68_colour3_distractors1_l.png,l,1,034,001,2021-04-26_17h15.05.218,searchDisc4,2020.2.10,Win32,60,,,space,0.14102,1,1,0.709025,,0,159,159,182,1,1b,68,3,1,
,,,,,,,,,,,,,,,,,,,,,,,,,,images/exp2c_trial_91_colour3_distractors19_r.png,r,2,034,001,2021-04-26_17h15.05.218,searchDisc4,2020.2.10,Win32,60,,,space,0.16543,2,1,0.69795,,0,160,160,547,1,2c,91,3,19,
,,,,,,,,,,,,,,,,,,,,,,,,,,images/exp2c_trial_0_colour1_distractors1_r.png,r,2,034,001,2021-04-26_17h15.05.218,searchDisc4,2020.2.10,Win32,60,,,space,0.16084,2,1,0.73042,,0,161,161,456,1,2c,0,1,1,
,,,,,,,,,,,,,,,,,,,,,,,,,,images/exp2c_trial_94_colour1_distractors1_l.png,l,1,034,001,2021-04-26_17h15.05.218,searchDisc4,2020.2.10,Win32,60,,,space,0.1535,1,1,0.70075,,0,162,162,550,1,2c,94,1,1,
,,,,,,,,,,,,,,,,,,,,,,,,,,images/exp1a_trial_41_colour1_distractors19_r.png,r,2,034,001,2021-04-26_17h15.05.218,searchDisc4,2020.2.10,Win32,60,,,space,0.14143,2,1,0.741515,,0,163,163,41,1,1a,41,1,19,
,,,,,,,,,,,,,,,,,,,,,,,,,,images/exp1a_trial_11_colour2_distractors43_r.png,r,2,034,001,2021-04-26_17h15.05.218,searchDisc4,2020.2.10,Win32,60,,,space,0.16786,2,1,0.703255,,0,164,164,11,1,1a,11,2,43,
,,,,,,,,,,,,,,,,,,,,,,,,,,images/exp2b_trial_37_colour0_distractors0_l.png,l,1,034,001,2021-04-26_17h15.05.218,searchDisc4,2020.2.10,Win32,60,,,space,0.15316,1,1,0.595215,,0,165,165,379,1,2b,37,0,0,
,,,,,,,,,,,,,,,,,,,,,,,,,,images/exp2c_trial_3_colour1_distractors19_r.png,r,2,034,001,2021-04-26_17h15.05.218,searchDisc4,2020.2.10,Win32,60,,,space,0.14593,2,1,0.603955,,0,166,166,459,1,2c,3,1,19,
,,,,,,,,,,,,,,,,,,,,,,,,,,images/exp1b_trial_94_colour1_distractors1_l.png,l,1,034,001,2021-04-26_17h15.05.218,searchDisc4,2020.2.10,Win32,60,,,space,0.16086,1,1,0.662885,,0,167,167,208,1,1b,94,1,1,
,,,,,,,,,,,,,,,,,,,,,,,,,,images/exp2c_trial_77_colour1_distractors4_r.png,r,2,034,001,2021-04-26_17h15.05.218,searchDisc4,2020.2.10,Win32,60,,,space,0.149385,2,1,0.56549,,0,168,168,533,1,2c,77,1,4,
,,,,,,,,,,,,,,,,,,,,,,,,,,images/exp1a_trial_94_colour1_distractors1_l.png,l,1,034,001,2021-04-26_17h15.05.218,searchDisc4,2020.2.10,Win32,60,,,space,0.189155,1,1,0.723065,,0,169,169,94,1,1a,94,1,1,
,,,,,,,,,,,,,,,,,,,,,,,,,,images/exp2c_trial_97_colour1_distractors19_l.png,l,1,034,001,2021-04-26_17h15.05.218,searchDisc4,2020.2.10,Win32,60,,,space,0.150115,2,0,0.703355,,0,170,170,553,1,2c,97,1,19,
,,,,,,,,,,,,,,,,,,,,,,,,,,images/exp1a_trial_65_colour2_distractors19_l.png,l,1,034,001,2021-04-26_17h15.05.218,searchDisc4,2020.2.10,Win32,60,,,space,0.8822,1,1,0.639445,,0,171,171,65,1,1a,65,2,19,
,,,,,,,,,,,,,,,,,,,,,,,,,,images/exp2a_trial_54_colour3_distractors31_r.png,r,2,034,001,2021-04-26_17h15.05.218,searchDisc4,2020.2.10,Win32,60,,,space,0.17729,2,1,0.688575,,0,172,172,282,1,2a,54,3,31,
,,,,,,,,,,,,,,,,,,,,,,,,,,images/exp2c_trial_29_colour2_distractors43_l.png,l,1,034,001,2021-04-26_17h15.05.218,searchDisc4,2020.2.10,Win32,60,,,space,0.118735,1,1,0.85357,,0,173,173,485,1,2c,29,2,43,
,,,,,,,,,,,,,,,,,,,,,,,,,,images/exp2a_trial_17_colour3_distractors43_r.png,r,2,034,001,2021-04-26_17h15.05.218,searchDisc4,2020.2.10,Win32,60,,,space,0.181075,2,1,0.6996,,0,174,174,245,1,2a,17,3,43,
,,,,,,,,,,,,,,,,,,,,,,,,,,images/exp1b_trial_67_colour2_distractors43_l.png,l,1,034,001,2021-04-26_17h15.05.218,searchDisc4,2020.2.10,Win32,60,,,space,0.1719,1,1,1.043765,,0,175,175,181,1,1b,67,2,43,
,,,,,,,,,,,,,,,,,,,,,,,,,,images/exp2b_trial_75_colour0_distractors0_l.png,l,1,034,001,2021-04-26_17h15.05.218,searchDisc4,2020.2.10,Win32,60,,,space,0.15214,1,1,0.82641,,0,176,176,417,1,2b,75,0,0,
,,,,,,,,,,,,,,,,,,,,,,,,,,images/exp2a_trial_12_colour3_distractors1_r.png,r,2,034,001,2021-04-26_17h15.05.218,searchDisc4,2020.2.10,Win32,60,,,space,0.1194,2,1,0.767825,,0,177,177,240,1,2a,12,3,1,
,,,,,,,,,,,,,,,,,,,,,,,,,,images/exp1a_trial_0_colour1_distractors1_r.png,r,2,034,001,2021-04-26_17h15.05.218,searchDisc4,2020.2.10,Win32,60,,,space,0.13603,2,1,1.004205,,0,178,178,0,1,1a,0,1,1,
,,,,,,,,,,,,,,,,,,,,,,,,,,images/exp1a_trial_83_colour2_distractors4_r.png,r,2,034,001,2021-04-26_17h15.05.218,searchDisc4,2020.2.10,Win32,60,,,space,0.11444,2,1,0.786995,space,0,179,179,83,1,1a,83,2,4,0.150465
,,,,,,,,,,,,,,,,,,,,,,,,,,images/exp2c_trial_109_colour3_distractors19_l.png,l,1,034,001,2021-04-26_17h15.05.218,searchDisc4,2020.2.10,Win32,60,,,space,8.97352,1,1,0.808185,,0,180,180,565,1,2c,109,3,19,
,,,,,,,,,,,,,,,,,,,,,,,,,,images/exp2b_trial_76_colour1_distractors1_r.png,r,2,034,001,2021-04-26_17h15.05.218,searchDisc4,2020.2.10,Win32,60,,,space,0.145365,2,1,0.67545,,0,181,181,418,1,2b,76,1,1,
,,,,,,,,,,,,,,,,,,,,,,,,,,images/exp2c_trial_42_colour1_distractors31_r.png,r,2,034,001,2021-04-26_17h15.05.218,searchDisc4,2020.2.10,Win32,60,,,space,0.5966,2,1,0.860975,,0,182,182,498,1,2c,42,1,31,
,,,,,,,,,,,,,,,,,,,,,,,,,,images/exp2c_trial_67_colour2_distractors43_l.png,l,1,034,001,2021-04-26_17h15.05.218,searchDisc4,2020.2.10,Win32,60,,,space,0.12797,1,1,0.891805,,0,183,183,523,1,2c,67,2,43,
,,,,,,,,,,,,,,,,,,,,,,,,,,images/exp2c_trial_33_colour3_distractors19_l.png,l,1,034,001,2021-04-26_17h15.05.218,searchDisc4,2020.2.10,Win32,60,,,space,0.11013,1,1,0.81548,,0,184,184,489,1,2c,33,3,19,
,,,,,,,,,,,,,,,,,,,,,,,,,,images/exp1a_trial_86_colour2_distractors31_r.png,r,2,034,001,2021-04-26_17h15.05.218,searchDisc4,2020.2.10,Win32,60,,,space,0.085345,2,1,0.806395,,0,185,185,86,1,1a,86,2,31,
,,,,,,,,,,,,,,,,,,,,,,,,,,images/exp2a_trial_49_colour2_distractors43_r.png,r,2,034,001,2021-04-26_17h15.05.218,searchDisc4,2020.2.10,Win32,60,,,space,0.05013,2,1,0.838185,,0,186,186,277,1,2a,49,2,43,
,,,,,,,,,,,,,,,,,,,,,,,,,,images/exp2c_trial_103_colour2_distractors19_l.png,l,1,034,001,2021-04-26_17h15.05.218,searchDisc4,2020.2.10,Win32,60,,,space,0.072735,1,1,0.76685,,0,187,187,559,1,2c,103,2,19,
,,,,,,,,,,,,,,,,,,,,,,,,,,images/exp2b_trial_15_colour3_distractors19_r.png,r,2,034,001,2021-04-26_17h15.05.218,searchDisc4,2020.2.10,Win32,60,,,space,0.10656,2,1,0.658705,,0,188,188,357,1,2b,15,3,19,
,,,,,,,,,,,,,,,,,,,,,,,,,,images/exp1b_trial_89_colour3_distractors4_r.png,r,2,034,001,2021-04-26_17h15.05.218,searchDisc4,2020.2.10,Win32,60,,,space,0.059575,1,0,2.05511,,0,189,189,203,1,1b,89,3,4,
,,,,,,,,,,,,,,,,,,,,,,,,,,images/exp2a_trial_72_colour3_distractors31_l.png,l,1,034,001,2021-04-26_17h15.05.218,searchDisc4,2020.2.10,Win32,60,,,space,0.56397,1,1,0.861535,,0,190,190,300,1,2a,72,3,31,
,,,,,,,,,,,,,,,,,,,,,,,,,,images/exp2a_trial_47_colour2_distractors19_r.png,r,2,034,001,2021-04-26_17h15.05.218,searchDisc4,2020.2.10,Win32,60,,,space,0.085815,2,1,0.67913,,0,191,191,275,1,2a,47,2,19,
,,,,,,,,,,,,,,,,,,,,,,,,,,images/exp2c_trial_27_colour2_distractors19_l.png,l,1,034,001,2021-04-26_17h15.05.218,searchDisc4,2020.2.10,Win32,60,,,space,0.07875,1,1,0.618935,,0,192,192,483,1,2c,27,2,19,
,,,,,,,,,,,,,,,,,,,,,,,,,,images/exp1a_trial_43_colour1_distractors43_r.png,r,2,034,001,2021-04-26_17h15.05.218,searchDisc4,2020.2.10,Win32,60,,,space,0.117285,2,1,0.69514,,0,193,193,43,1,1a,43,1,43,
,,,,,,,,,,,,,,,,,,,,,,,,,,images/exp2a_trial_18_colour1_distractors1_l.png,l,1,034,001,2021-04-26_17h15.05.218,searchDisc4,2020.2.10,Win32,60,,,space,0.10005,1,1,0.59303,,0,194,194,246,1,2a,18,1,1,
,,,,,,,,,,,,,,,,,,,,,,,,,,images/exp1a_trial_109_colour3_distractors19_l.png,l,1,034,001,2021-04-26_17h15.05.218,searchDisc4,2020.2.10,Win32,60,,,space,0.09191,1,1,0.83281,,0,195,195,109,1,1a,109,3,19,
,,,,,,,,,,,,,,,,,,,,,,,,,,images/exp1b_trial_44_colour2_distractors1_r.png,r,2,034,001,2021-04-26_17h15.05.218,searchDisc4,2020.2.10,Win32,60,,,space,0.099705,2,1,0.798235,,0,196,196,158,1,1b,44,2,1,
,,,,,,,,,,,,,,,,,,,,,,,,,,images/exp1b_trial_100_colour2_distractors1_l.png,l,1,034,001,2021-04-26_17h15.05.218,searchDisc4,2020.2.10,Win32,60,,,space,0.0549,1,1,0.71144,,0,197,197,214,1,1b,100,2,1,
,,,,,,,,,,,,,,,,,,,,,,,,,,images/exp2c_trial_26_colour2_distractors9_l.png,l,1,034,001,2021-04-26_17h15.05.218,searchDisc4,2020.2.10,Win32,60,,,space,0.114955,1,1,0.844525,,0,198,198,482,1,2c,26,2,9,
,,,,,,,,,,,,,,,,,,,,,,,,,,images/exp1a_trial_111_colour3_distractors43_l.png,l,1,034,001,2021-04-26_17h15.05.218,searchDisc4,2020.2.10,Win32,60,,,space,0.09843,1,1,0.786075,,0,199,199,111,1,1a,111,3,43,
,,,,,,,,,,,,,,,,,,,,,,,,,,images/exp2b_trial_23_colour1_distractors43_l.png,l,1,034,001,2021-04-26_17h15.05.218,searchDisc4,2020.2.10,Win32,60,,,space,0.11005,1,1,1.07276,,0,200,200,365,1,2b,23,1,43,
,,,,,,,,,,,,,,,,,,,,,,,,,,images/exp2a_trial_99_colour1_distractors43_l.png,l,1,034,001,2021-04-26_17h15.05.218,searchDisc4,2020.2.10,Win32,60,,,space,0.16991,1,1,0.712015,,0,201,201,327,1,2a,99,1,43,
,,,,,,,,,,,,,,,,,,,,,,,,,,images/exp2c_trial_105_colour2_distractors43_l.png,l,1,034,001,2021-04-26_17h15.05.218,searchDisc4,2020.2.10,Win32,60,,,space,0.05906,1,1,0.885595,,0,202,202,561,1,2c,105,2,43,
,,,,,,,,,,,,,,,,,,,,,,,,,,images/exp2b_trial_81_colour1_distractors43_r.png,r,2,034,001,2021-04-26_17h15.05.218,searchDisc4,2020.2.10,Win32,60,,,space,0.100385,2,1,0.83292,,0,203,203,423,1,2b,81,1,43,
,,,,,,,,,,,,,,,,,,,,,,,,,,images/exp1b_trial_50_colour3_distractors1_r.png,r,2,034,001,2021-04-26_17h15.05.218,searchDisc4,2020.2.10,Win32,60,,,space,0.05149,2,1,0.921305,,0,204,204,164,1,1b,50,3,1,
,,,,,,,,,,,,,,,,,,,,,,,,,,images/exp1b_trial_70_colour3_distractors9_l.png,l,1,034,001,2021-04-26_17h15.05.218,searchDisc4,2020.2.10,Win32,60,,,space,0.066145,1,1,1.67061,,0,205,205,184,1,1b,70,3,9,
,,,,,,,,,,,,,,,,,,,,,,,,,,images/exp1b_trial_55_colour3_distractors43_r.png,r,2,034,001,2021-04-26_17h15.05.218,searchDisc4,2020.2.10,Win32,60,,,space,0.13121,,0,,,0,206,206,169,1,1b,55,3,43,
,,,,,,,,,,,,,,,,,,,,,,,,,,images/exp1b_trial_28_colour2_distractors31_l.png,l,1,034,001,2021-04-26_17h15.05.218,searchDisc4,2020.2.10,Win32,60,,,space,0.77116,1,1,0.57253,,0,207,207,142,1,1b,28,2,31,
,,,,,,,,,,,,,,,,,,,,,,,,,,images/exp2a_trial_76_colour1_distractors1_r.png,r,2,034,001,2021-04-26_17h15.05.218,searchDisc4,2020.2.10,Win32,60,,,space,0.091085,2,1,0.691485,,0,208,208,304,1,2a,76,1,1,
,,,,,,,,,,,,,,,,,,,,,,,,,,images/exp2c_trial_82_colour2_distractors1_r.png,r,2,034,001,2021-04-26_17h15.05.218,searchDisc4,2020.2.10,Win32,60,,,space,0.09009,2,1,0.778115,,0,209,209,538,1,2c,82,2,1,
,,,,,,,,,,,,,,,,,,,,,,,,,,images/exp1b_trial_35_colour3_distractors43_l.png,l,1,034,001,2021-04-26_17h15.05.218,searchDisc4,2020.2.10,Win32,60,,,space,0.997725,1,1,1.573455,,0,210,210,149,1,1b,35,3,43,
,,,,,,,,,,,,,,,,,,,,,,,,,,images/exp2c_trial_5_colour1_distractors43_r.png,r,2,034,001,2021-04-26_17h15.05.218,searchDisc4,2020.2.10,Win32,60,,,space,0.05918,2,1,0.69191,,0,211,211,461,1,2c,5,1,43,
,,,,,,,,,,,,,,,,,,,,,,,,,,images/exp2a_trial_106_colour3_distractors1_l.png,l,1,034,001,2021-04-26_17h15.05.218,searchDisc4,2020.2.10,Win32,60,,,space,0.0901,1,1,0.700925,,0,212,212,334,1,2a,106,3,1,
,,,,,,,,,,,,,,,,,,,,,,,,,,images/exp2c_trial_87_colour2_distractors43_r.png,r,2,034,001,2021-04-26_17h15.05.218,searchDisc4,2020.2.10,Win32,60,,,space,0.121575,2,1,0.87574,,0,213,213,543,1,2c,87,2,43,
,,,,,,,,,,,,,,,,,,,,,,,,,,images/exp2c_trial_76_colour1_distractors1_r.png,r,2,034,001,2021-04-26_17h15.05.218,searchDisc4,2020.2.10,Win32,60,,,space,0.052635,2,1,0.755795,,0,214,214,532,1,2c,76,1,1,
,,,,,,,,,,,,,,,,,,,,,,,,,,images/exp2c_trial_60_colour1_distractors31_l.png,l,1,034,001,2021-04-26_17h15.05.218,searchDisc4,2020.2.10,Win32,60,,,space,0.05071,1,1,0.824315,,0,215,215,516,1,2c,60,1,31,
,,,,,,,,,,,,,,,,,,,,,,,,,,images/exp1a_trial_103_colour2_distractors19_l.png,l,1,034,001,2021-04-26_17h15.05.218,searchDisc4,2020.2.10,Win32,60,,,space,0.08539,2,0,0.93932,,0,216,216,103,1,1a,103,2,19,
,,,,,,,,,,,,,,,,,,,,,,,,,,images/exp1b_trial_84_colour2_distractors9_r.png,r,2,034,001,2021-04-26_17h15.05.218,searchDisc4,2020.2.10,Win32,60,,,space,1.091465,2,1,0.705155,,0,217,217,198,1,1b,84,2,9,
,,,,,,,,,,,,,,,,,,,,,,,,,,images/exp1b_trial_61_colour1_distractors43_l.png,l,1,034,001,2021-04-26_17h15.05.218,searchDisc4,2020.2.10,Win32,60,,,space,0.07067,1,1,2.032645,,0,218,218,175,1,1b,61,1,43,
,,,,,,,,,,,,,,,,,,,,,,,,,,images/exp2a_trial_13_colour3_distractors4_r.png,r,2,034,001,2021-04-26_17h15.05.218,searchDisc4,2020.2.10,Win32,60,,,space,0.066995,2,1,0.761505,,0,219,219,241,1,2a,13,3,4,
,,,,,,,,,,,,,,,,,,,,,,,,,,images/exp2b_trial_5_colour1_distractors43_r.png,r,2,034,001,2021-04-26_17h15.05.218,searchDisc4,2020.2.10,Win32,60,,,space,0.091965,2,1,0.91638,,0,220,220,347,1,2b,5,1,43,
,,,,,,,,,,,,,,,,,,,,,,,,,,images/exp2c_trial_110_colour3_distractors31_l.png,l,1,034,001,2021-04-26_17h15.05.218,searchDisc4,2020.2.10,Win32,60,,,space,0.06399,1,1,0.733575,,0,221,221,566,1,2c,110,3,31,
,,,,,,,,,,,,,,,,,,,,,,,,,,images/exp1a_trial_105_colour2_distractors43_l.png,l,1,034,001,2021-04-26_17h15.05.218,searchDisc4,2020.2.10,Win32,60,,,space,0.07677,1,1,0.84083,,0,222,222,105,1,1a,105,2,43,
,,,,,,,,,,,,,,,,,,,,,,,,,,images/exp2b_trial_78_colour1_distractors9_r.png,r,2,034,001,2021-04-26_17h15.05.218,searchDisc4,2020.2.10,Win32,60,,,space,0.06301,2,1,0.837615,,0,223,223,420,1,2b,78,1,9,
,,,,,,,,,,,,,,,,,,,,,,,,,,images/exp1b_trial_102_colour2_distractors9_l.png,l,1,034,001,2021-04-26_17h15.05.218,searchDisc4,2020.2.10,Win32,60,,,space,0.10405,1,1,0.65974,,0,224,224,216,1,1b,102,2,9,
,,,,,,,,,,,,,,,,,,,,,,,,,,images/exp2b_trial_66_colour2_distractors31_l.png,l,1,034,001,2021-04-26_17h15.05.218,searchDisc4,2020.2.10,Win32,60,,,space,0.09384,1,1,0.787515,,0,225,225,408,1,2b,66,2,31,
,,,,,,,,,,,,,,,,,,,,,,,,,,images/exp2a_trial_32_colour3_distractors9_l.png,l,1,034,001,2021-04-26_17h15.05.218,searchDisc4,2020.2.10,Win32,60,,,space,0.114135,1,1,0.91461,,0,226,226,260,1,2a,32,3,9,
,,,,,,,,,,,,,,,,,,,,,,,,,,images/exp1b_trial_13_colour3_distractors4_r.png,r,2,034,001,2021-04-26_17h15.05.218,searchDisc4,2020.2.10,Win32,60,,,space,0.08531,2,1,2.329735,,0,227,227,127,1,1b,13,3,4,
,,,,,,,,,,,,,,,,,,,,,,,,,,images/exp1a_trial_88_colour3_distractors1_r.png,r,2,034,001,2021-04-26_17h15.05.218,searchDisc4,2020.2.10,Win32,60,,,space,0.905995,1,0,0.664005,,0,228,228,88,1,1a,88,3,1,
,,,,,,,,,,,,,,,,,,,,,,,,,,images/exp1b_trial_79_colour1_distractors19_r.png,r,2,034,001,2021-04-26_17h15.05.218,searchDisc4,2020.2.10,Win32,60,,,space,0.80027,2,1,0.81985,,0,229,229,193,1,1b,79,1,19,
,,,,,,,,,,,,,,,,,,,,,,,,,,images/exp2a_trial_6_colour2_distractors1_r.png,r,2,034,001,2021-04-26_17h15.05.218,searchDisc4,2020.2.10,Win32,60,,,space,0.094475,2,1,0.94429,,0,230,230,234,1,2a,6,2,1,
,,,,,,,,,,,,,,,,,,,,,,,,,,images/exp2c_trial_4_colour1_distractors31_r.png,r,2,034,001,2021-04-26_17h15.05.218,searchDisc4,2020.2.10,Win32,60,,,space,0.551615,2,1,0.65095,,0,231,231,460,1,2c,4,1,31,
,,,,,,,,,,,,,,,,,,,,,,,,,,images/exp2a_trial_55_colour3_distractors43_r.png,r,2,034,001,2021-04-26_17h15.05.218,searchDisc4,2020.2.10,Win32,60,,,space,0.100955,2,1,1.08652,,0,232,232,283,1,2a,55,3,43,
,,,,,,,,,,,,,,,,,,,,,,,,,,images/exp2c_trial_70_colour3_distractors9_l.png,l,1,034,001,2021-04-26_17h15.05.218,searchDisc4,2020.2.10,Win32,60,,,space,0.08349,1,1,0.68816,,0,233,233,526,1,2c,70,3,9,
,,,,,,,,,,,,,,,,,,,,,,,,,,images/exp1b_trial_95_colour1_distractors4_l.png,l,1,034,001,2021-04-26_17h15.05.218,searchDisc4,2020.2.10,Win32,60,,,space,0.10492,1,1,0.74101,,0,234,234,209,1,1b,95,1,4,
,,,,,,,,,,,,,,,,,,,,,,,,,,images/exp1b_trial_25_colour2_distractors4_l.png,l,1,034,001,2021-04-26_17h15.05.218,searchDisc4,2020.2.10,Win32,60,,,space,0.092245,1,1,0.87111,,0,235,235,139,1,1b,25,2,4,
,,,,,,,,,,,,,,,,,,,,,,,,,,images/exp2a_trial_75_colour0_distractors0_l.png,l,1,034,001,2021-04-26_17h15.05.218,searchDisc4,2020.2.10,Win32,60,,,space,0.076995,1,1,0.842855,,0,236,236,303,1,2a,75,0,0,
,,,,,,,,,,,,,,,,,,,,,,,,,,images/exp2c_trial_71_colour3_distractors19_l.png,l,1,034,001,2021-04-26_17h15.05.218,searchDisc4,2020.2.10,Win32,60,,,space,0.10589,1,1,0.75715,,0,237,237,527,1,2c,71,3,19,
,,,,,,,,,,,,,,,,,,,,,,,,,,images/exp2b_trial_102_colour2_distractors9_l.png,l,1,034,001,2021-04-26_17h15.05.218,searchDisc4,2020.2.10,Win32,60,,,space,0.13338,1,1,0.735345,,0,238,238,444,1,2b,102,2,9,
,,,,,,,,,,,,,,,,,,,,,,,,,,images/exp2b_trial_65_colour2_distractors19_l.png,l,1,034,001,2021-04-26_17h15.05.218,searchDisc4,2020.2.10,Win32,60,,,space,0.16859,1,1,0.77215,space,0,239,239,407,1,2b,65,2,19,0.085605
,,,,,,,,,,,,,,,,,,,,,,,,,,images/exp1a_trial_37_colour0_distractors0_l.png,l,1,034,001,2021-04-26_17h15.05.218,searchDisc4,2020.2.10,Win32,60,,,space,3.303025,1,1,0.666845,,0,240,240,37,1,1a,37,0,0,
,,,,,,,,,,,,,,,,,,,,,,,,,,images/exp1a_trial_48_colour2_distractors31_r.png,r,2,034,001,2021-04-26_17h15.05.218,searchDisc4,2020.2.10,Win32,60,,,space,0.083895,2,1,0.78683,,0,241,241,48,1,1a,48,2,31,
,,,,,,,,,,,,,,,,,,,,,,,,,,images/exp2c_trial_61_colour1_distractors43_l.png,l,1,034,001,2021-04-26_17h15.05.218,searchDisc4,2020.2.10,Win32,60,,,space,0.085735,1,1,0.925125,,0,242,242,517,1,2c,61,1,43,
,,,,,,,,,,,,,,,,,,,,,,,,,,images/exp2b_trial_42_colour1_distractors31_r.png,r,2,034,001,2021-04-26_17h15.05.218,searchDisc4,2020.2.10,Win32,60,,,space,0.09833,1,0,0.76422,,0,243,243,384,1,2b,42,1,31,
,,,,,,,,,,,,,,,,,,,,,,,,,,images/exp1a_trial_60_colour1_distractors31_l.png,l,1,034,001,2021-04-26_17h15.05.218,searchDisc4,2020.2.10,Win32,60,,,space,0.09199,1,1,0.867,,0,244,244,60,1,1a,60,1,31,
,,,,,,,,,,,,,,,,,,,,,,,,,,images/exp2a_trial_26_colour2_distractors9_l.png,l,1,034,001,2021-04-26_17h15.05.218,searchDisc4,2020.2.10,Win32,60,,,space,0.08954,1,1,0.892805,,0,245,245,254,1,2a,26,2,9,
,,,,,,,,,,,,,,,,,,,,,,,,,,images/exp2a_trial_102_colour2_distractors9_l.png,l,1,034,001,2021-04-26_17h15.05.218,searchDisc4,2020.2.10,Win32,60,,,space,0.083665,1,1,0.80048,,0,246,246,330,1,2a,102,2,9,
,,,,,,,,,,,,,,,,,,,,,,,,,,images/exp1a_trial_47_colour2_distractors19_r.png,r,2,034,001,2021-04-26_17h15.05.218,searchDisc4,2020.2.10,Win32,60,,,space,0.121005,2,1,0.731925,,0,247,247,47,1,1a,47,2,19,
,,,,,,,,,,,,,,,,,,,,,,,,,,images/exp2c_trial_112_colour0_distractors0_r.png,r,2,034,001,2021-04-26_17h15.05.218,searchDisc4,2020.2.10,Win32,60,,,space,0.08519,2,1,0.76946,,0,248,248,568,1,2c,112,0,0,
,,,,,,,,,,,,,,,,,,,,,,,,,,images/exp1a_trial_107_colour3_distractors4_l.png,l,1,034,001,2021-04-26_17h15.05.218,searchDisc4,2020.2.10,Win32,60,,,space,0.130365,1,1,0.85856,,0,249,249,107,1,1a,107,3,4,
,,,,,,,,,,,,,,,,,,,,,,,,,,images/exp1a_trial_7_colour2_distractors4_r.png,r,2,034,001,2021-04-26_17h15.05.218,searchDisc4,2020.2.10,Win32,60,,,space,0.077965,2,1,0.68577,,0,250,250,7,1,1a,7,2,4,
,,,,,,,,,,,,,,,,,,,,,,,,,,images/exp2b_trial_10_colour2_distractors31_r.png,r,2,034,001,2021-04-26_17h15.05.218,searchDisc4,2020.2.10,Win32,60,,,space,0.09321,2,1,0.68172,,0,251,251,352,1,2b,10,2,31,
,,,,,,,,,,,,,,,,,,,,,,,,,,images/exp1b_trial_58_colour1_distractors9_l.png,l,1,034,001,2021-04-26_17h15.05.218,searchDisc4,2020.2.10,Win32,60,,,space,0.116505,1,1,1.02322,,0,252,252,172,1,1b,58,1,9,
,,,,,,,,,,,,,,,,,,,,,,,,,,images/exp2b_trial_67_colour2_distractors43_l.png,l,1,034,001,2021-04-26_17h15.05.218,searchDisc4,2020.2.10,Win32,60,,,space,0.09137,1,1,0.70233,,0,253,253,409,1,2b,67,2,43,
,,,,,,,,,,,,,,,,,,,,,,,,,,images/exp2c_trial_83_colour2_distractors4_r.png,r,2,034,001,2021-04-26_17h15.05.218,searchDisc4,2020.2.10,Win32,60,,,space,0.11284,2,1,0.693525,,0,254,254,539,1,2c,83,2,4,
,,,,,,,,,,,,,,,,,,,,,,,,,,images/exp1a_trial_49_colour2_distractors43_r.png,r,2,034,001,2021-04-26_17h15.05.218,searchDisc4,2020.2.10,Win32,60,,,space,0.117455,2,1,0.881665,,0,255,255,49,1,1a,49,2,43,
,,,,,,,,,,,,,,,,,,,,,,,,,,images/exp1a_trial_25_colour2_distractors4_l.png,l,1,034,001,2021-04-26_17h15.05.218,searchDisc4,2020.2.10,Win32,60,,,space,0.050325,1,1,0.673675,,0,256,256,25,1,1a,25,2,4,
,,,,,,,,,,,,,,,,,,,,,,,,,,images/exp1b_trial_103_colour2_distractors19_l.png,l,1,034,001,2021-04-26_17h15.05.218,searchDisc4,2020.2.10,Win32,60,,,space,0.10656,1,1,1.110965,,0,257,257,217,1,1b,103,2,19,
,,,,,,,,,,,,,,,,,,,,,,,,,,images/exp1b_trial_0_colour1_distractors1_r.png,r,2,034,001,2021-04-26_17h15.05.218,searchDisc4,2020.2.10,Win32,60,,,space,0.096675,2,1,0.73155,,0,258,258,114,1,1b,0,1,1,
,,,,,,,,,,,,,,,,,,,,,,,,,,images/exp1b_trial_57_colour1_distractors4_l.png,l,1,034,001,2021-04-26_17h15.05.218,searchDisc4,2020.2.10,Win32,60,,,space,0.06899,1,1,0.841115,,0,259,259,171,1,1b,57,1,4,
,,,,,,,,,,,,,,,,,,,,,,,,,,images/exp1a_trial_113_colour0_distractors0_l.png,l,1,034,001,2021-04-26_17h15.05.218,searchDisc4,2020.2.10,Win32,60,,,space,0.0764,1,1,0.733175,,0,260,260,113,1,1a,113,0,0,
,,,,,,,,,,,,,,,,,,,,,,,,,,images/exp2b_trial_85_colour2_distractors19_r.png,r,2,034,001,2021-04-26_17h15.05.218,searchDisc4,2020.2.10,Win32,60,,,space,0.09782,2,1,0.79417,,0,261,261,427,1,2b,85,2,19,
,,,,,,,,,,,,,,,,,,,,,,,,,,images/exp2b_trial_39_colour1_distractors4_r.png,r,2,034,001,2021-04-26_17h15.05.218,searchDisc4,2020.2.10,Win32,60,,,space,0.09233,2,1,0.856255,,0,262,262,381,1,2b,39,1,4,
,,,,,,,,,,,,,,,,,,,,,,,,,,images/exp1b_trial_82_colour2_distractors1_r.png,r,2,034,001,2021-04-26_17h15.05.218,searchDisc4,2020.2.10,Win32,60,,,space,0.026265,2,1,0.98237,,0,263,263,196,1,1b,82,2,1,
,,,,,,,,,,,,,,,,,,,,,,,,,,images/exp1a_trial_77_colour1_distractors4_r.png,r,2,034,001,2021-04-26_17h15.05.218,searchDisc4,2020.2.10,Win32,60,,,space,0.10342,2,1,0.75466,,0,264,264,77,1,1a,77,1,4,
,,,,,,,,,,,,,,,,,,,,,,,,,,images/exp2b_trial_0_colour1_distractors1_r.png,r,2,034,001,2021-04-26_17h15.05.218,searchDisc4,2020.2.10,Win32,60,,,space,0.16271,2,1,0.748555,,0,265,265,342,1,2b,0,1,1,
,,,,,,,,,,,,,,,,,,,,,,,,,,images/exp1a_trial_30_colour3_distractors1_l.png,l,1,034,001,2021-04-26_17h15.05.218,searchDisc4,2020.2.10,Win32,60,,,space,0.09883,1,1,0.59534,,0,266,266,30,1,1a,30,3,1,
,,,,,,,,,,,,,,,,,,,,,,,,,,images/exp2c_trial_23_colour1_distractors43_l.png,l,1,034,001,2021-04-26_17h15.05.218,searchDisc4,2020.2.10,Win32,60,,,space,0.108825,1,1,0.936775,,0,267,267,479,1,2c,23,1,43,
,,,,,,,,,,,,,,,,,,,,,,,,,,images/exp2c_trial_52_colour3_distractors9_r.png,r,2,034,001,2021-04-26_17h15.05.218,searchDisc4,2020.2.10,Win32,60,,,space,0.105525,2,1,0.78827,,0,268,268,508,1,2c,52,3,9,
,,,,,,,,,,,,,,,,,,,,,,,,,,images/exp1b_trial_78_colour1_distractors9_r.png,r,2,034,001,2021-04-26_17h15.05.218,searchDisc4,2020.2.10,Win32,60,,,space,0.098835,2,1,0.729015,,0,269,269,192,1,1b,78,1,9,
,,,,,,,,,,,,,,,,,,,,,,,,,,images/exp2a_trial_7_colour2_distractors4_r.png,r,2,034,001,2021-04-26_17h15.05.218,searchDisc4,2020.2.10,Win32,60,,,space,0.099625,2,1,0.828215,,0,270,270,235,1,2a,7,2,4,
,,,,,,,,,,,,,,,,,,,,,,,,,,images/exp2a_trial_4_colour1_distractors31_r.png,r,2,034,001,2021-04-26_17h15.05.218,searchDisc4,2020.2.10,Win32,60,,,space,0.10253,2,1,0.755455,,0,271,271,232,1,2a,4,1,31,
,,,,,,,,,,,,,,,,,,,,,,,,,,images/exp1b_trial_6_colour2_distractors1_r.png,r,2,034,001,2021-04-26_17h15.05.218,searchDisc4,2020.2.10,Win32,60,,,space,0.107525,2,1,0.901815,,0,272,272,120,1,1b,6,2,1,
,,,,,,,,,,,,,,,,,,,,,,,,,,images/exp1b_trial_54_colour3_distractors31_r.png,r,2,034,001,2021-04-26_17h15.05.218,searchDisc4,2020.2.10,Win32,60,,,space,0.103455,2,1,1.69059,,0,273,273,168,1,1b,54,3,31,
,,,,,,,,,,,,,,,,,,,,,,,,,,images/exp2b_trial_1_colour1_distractors4_r.png,r,2,034,001,2021-04-26_17h15.05.218,searchDisc4,2020.2.10,Win32,60,,,space,0.05168,2,1,0.70993,,0,274,274,343,1,2b,1,1,4,
,,,,,,,,,,,,,,,,,,,,,,,,,,images/exp2c_trial_32_colour3_distractors9_l.png,l,1,034,001,2021-04-26_17h15.05.218,searchDisc4,2020.2.10,Win32,60,,,space,0.08444,1,1,0.737205,,0,275,275,488,1,2c,32,3,9,
,,,,,,,,,,,,,,,,,,,,,,,,,,images/exp2b_trial_40_colour1_distractors9_r.png,r,2,034,001,2021-04-26_17h15.05.218,searchDisc4,2020.2.10,Win32,60,,,space,0.09363,1,0,0.850855,,0,276,276,382,1,2b,40,1,9,
,,,,,,,,,,,,,,,,,,,,,,,,,,images/exp2b_trial_98_colour1_distractors31_l.png,l,1,034,001,2021-04-26_17h15.05.218,searchDisc4,2020.2.10,Win32,60,,,space,0.89387,1,1,0.713565,,0,277,277,440,1,2b,98,1,31,
,,,,,,,,,,,,,,,,,,,,,,,,,,images/exp2a_trial_81_colour1_distractors43_r.png,r,2,034,001,2021-04-26_17h15.05.218,searchDisc4,2020.2.10,Win32,60,,,space,0.084685,2,1,1.01379,,0,278,278,309,1,2a,81,1,43,
,,,,,,,,,,,,,,,,,,,,,,,,,,images/exp2b_trial_108_colour3_distractors9_l.png,l,1,034,001,2021-04-26_17h15.05.218,searchDisc4,2020.2.10,Win32,60,,,space,0.117445,1,1,0.89681,,0,279,279,450,1,2b,108,3,9,
,,,,,,,,,,,,,,,,,,,,,,,,,,images/exp2a_trial_0_colour1_distractors1_r.png,r,2,034,001,2021-04-26_17h15.05.218,searchDisc4,2020.2.10,Win32,60,,,space,0.09797,2,1,0.70953,,0,280,280,228,1,2a,0,1,1,
,,,,,,,,,,,,,,,,,,,,,,,,,,images/exp2c_trial_106_colour3_distractors1_l.png,l,1,034,001,2021-04-26_17h15.05.218,searchDisc4,2020.2.10,Win32,60,,,space,0.102075,1,1,0.99509,,0,281,281,562,1,2c,106,3,1,
,,,,,,,,,,,,,,,,,,,,,,,,,,images/exp1a_trial_79_colour1_distractors19_r.png,r,2,034,001,2021-04-26_17h15.05.218,searchDisc4,2020.2.10,Win32,60,,,space,0.082445,2,1,0.885535,,0,282,282,79,1,1a,79,1,19,
,,,,,,,,,,,,,,,,,,,,,,,,,,images/exp1a_trial_9_colour2_distractors19_r.png,r,2,034,001,2021-04-26_17h15.05.218,searchDisc4,2020.2.10,Win32,60,,,space,0.084885,2,1,0.81254,,0,283,283,9,1,1a,9,2,19,
,,,,,,,,,,,,,,,,,,,,,,,,,,images/exp2a_trial_44_colour2_distractors1_r.png,r,2,034,001,2021-04-26_17h15.05.218,searchDisc4,2020.2.10,Win32,60,,,space,0.08855,2,1,1.117095,,0,284,284,272,1,2a,44,2,1,
,,,,,,,,,,,,,,,,,,,,,,,,,,images/exp2a_trial_100_colour2_distractors1_l.png,l,1,034,001,2021-04-26_17h15.05.218,searchDisc4,2020.2.10,Win32,60,,,space,0.08452,1,1,0.71124,,0,285,285,328,1,2a,100,2,1,
,,,,,,,,,,,,,,,,,,,,,,,,,,images/exp1a_trial_22_colour1_distractors31_l.png,l,1,034,001,2021-04-26_17h15.05.218,searchDisc4,2020.2.10,Win32,60,,,space,0.0884,1,1,0.79685,,0,286,286,22,1,1a,22,1,31,
,,,,,,,,,,,,,,,,,,,,,,,,,,images/exp2a_trial_105_colour2_distractors43_l.png,l,1,034,001,2021-04-26_17h15.05.218,searchDisc4,2020.2.10,Win32,60,,,space,0.09726,1,1,0.91199,,0,287,287,333,1,2a,105,2,43,
,,,,,,,,,,,,,,,,,,,,,,,,,,images/exp2c_trial_65_colour2_distractors19_l.png,l,1,034,001,2021-04-26_17h15.05.218,searchDisc4,2020.2.10,Win32,60,,,space,0.08755,1,1,0.75838,,0,288,288,521,1,2c,65,2,19,
,,,,,,,,,,,,,,,,,,,,,,,,,,images/exp1a_trial_75_colour0_distractors0_l.png,l,1,034,001,2021-04-26_17h15.05.218,searchDisc4,2020.2.10,Win32,60,,,space,0.130865,1,1,0.806225,,0,289,289,75,1,1a,75,0,0,
,,,,,,,,,,,,,,,,,,,,,,,,,,images/exp2a_trial_101_colour2_distractors4_l.png,l,1,034,001,2021-04-26_17h15.05.218,searchDisc4,2020.2.10,Win32,60,,,space,0.11508,1,1,0.765535,,0,290,290,329,1,2a,101,2,4,
,,,,,,,,,,,,,,,,,,,,,,,,,,images/exp2b_trial_49_colour2_distractors43_r.png,r,2,034,001,2021-04-26_17h15.05.218,searchDisc4,2020.2.10,Win32,60,,,space,0.10941,2,1,1.00315,,0,291,291,391,1,2b,49,2,43,
,,,,,,,,,,,,,,,,,,,,,,,,,,images/exp2b_trial_44_colour2_distractors1_r.png,r,2,034,001,2021-04-26_17h15.05.218,searchDisc4,2020.2.10,Win32,60,,,space,0.072585,2,1,0.78135,,0,292,292,386,1,2b,44,2,1,
,,,,,,,,,,,,,,,,,,,,,,,,,,images/exp2c_trial_85_colour2_distractors19_r.png,r,2,034,001,2021-04-26_17h15.05.218,searchDisc4,2020.2.10,Win32,60,,,space,0.10413,2,1,0.980965,,0,293,293,541,1,2c,85,2,19,
,,,,,,,,,,,,,,,,,,,,,,,,,,images/exp2c_trial_54_colour3_distractors31_r.png,r,2,034,001,2021-04-26_17h15.05.218,searchDisc4,2020.2.10,Win32,60,,,space,0.122595,2,1,0.781495,,0,294,294,510,1,2c,54,3,31,
,,,,,,,,,,,,,,,,,,,,,,,,,,images/exp2c_trial_14_colour3_distractors9_r.png,r,2,034,001,2021-04-26_17h15.05.218,searchDisc4,2020.2.10,Win32,60,,,space,0.11534,2,1,0.7701,,0,295,295,470,1,2c,14,3,9,
,,,,,,,,,,,,,,,,,,,,,,,,,,images/exp2a_trial_36_colour0_distractors0_r.png,r,2,034,001,2021-04-26_17h15.05.218,searchDisc4,2020.2.10,Win32,60,,,space,0.09336,2,1,0.71436,,0,296,296,264,1,2a,36,0,0,
,,,,,,,,,,,,,,,,,,,,,,,,,,images/exp2c_trial_57_colour1_distractors4_l.png,l,1,034,001,2021-04-26_17h15.05.218,searchDisc4,2020.2.10,Win32,60,,,space,0.08304,1,1,0.57511,,0,297,297,513,1,2c,57,1,4,
,,,,,,,,,,,,,,,,,,,,,,,,,,images/exp1b_trial_5_colour1_distractors43_r.png,r,2,034,001,2021-04-26_17h15.05.218,searchDisc4,2020.2.10,Win32,60,,,space,0.118215,2,1,0.75326,,0,298,298,119,1,1b,5,1,43,
,,,,,,,,,,,,,,,,,,,,,,,,,,images/exp2c_trial_18_colour1_distractors1_l.png,l,1,034,001,2021-04-26_17h15.05.218,searchDisc4,2020.2.10,Win32,60,,,space,0.103625,1,1,0.61825,space,0,299,299,474,1,2c,18,1,1,0.102175
,,,,,,,,,,,,,,,,,,,,,,,,,,images/exp2b_trial_92_colour3_distractors31_r.png,r,2,034,001,2021-04-26_17h15.05.218,searchDisc4,2020.2.10,Win32,60,,,space,25.983405,2,1,0.56423,,0,300,300,434,1,2b,92,3,31,
,,,,,,,,,,,,,,,,,,,,,,,,,,images/exp2b_trial_110_colour3_distractors31_l.png,l,1,034,001,2021-04-26_17h15.05.218,searchDisc4,2020.2.10,Win32,60,,,space,0.147795,1,1,0.809505,,0,301,301,452,1,2b,110,3,31,
,,,,,,,,,,,,,,,,,,,,,,,,,,images/exp2a_trial_78_colour1_distractors9_r.png,r,2,034,001,2021-04-26_17h15.05.218,searchDisc4,2020.2.10,Win32,60,,,space,0.100245,2,1,0.745285,,0,302,302,306,1,2a,78,1,9,
,,,,,,,,,,,,,,,,,,,,,,,,,,images/exp2b_trial_109_colour3_distractors19_l.png,l,1,034,001,2021-04-26_17h15.05.218,searchDisc4,2020.2.10,Win32,60,,,space,0.077995,1,1,0.72855,,0,303,303,451,1,2b,109,3,19,
,,,,,,,,,,,,,,,,,,,,,,,,,,images/exp2b_trial_47_colour2_distractors19_r.png,r,2,034,001,2021-04-26_17h15.05.218,searchDisc4,2020.2.10,Win32,60,,,space,0.105355,2,1,0.686985,,0,304,304,389,1,2b,47,2,19,
,,,,,,,,,,,,,,,,,,,,,,,,,,images/exp1a_trial_51_colour3_distractors4_r.png,r,2,034,001,2021-04-26_17h15.05.218,searchDisc4,2020.2.10,Win32,60,,,space,0.09438,2,1,0.746865,,0,305,305,51,1,1a,51,3,4,
,,,,,,,,,,,,,,,,,,,,,,,,,,images/exp2a_trial_108_colour3_distractors9_l.png,l,1,034,001,2021-04-26_17h15.05.218,searchDisc4,2020.2.10,Win32,60,,,space,0.07396,1,1,0.632815,,0,306,306,336,1,2a,108,3,9,
,,,,,,,,,,,,,,,,,,,,,,,,,,images/exp1b_trial_56_colour1_distractors1_l.png,l,1,034,001,2021-04-26_17h15.05.218,searchDisc4,2020.2.10,Win32,60,,,space,0.117105,1,1,1.186255,,0,307,307,170,1,1b,56,1,1,
,,,,,,,,,,,,,,,,,,,,,,,,,,images/exp2c_trial_98_colour1_distractors31_l.png,l,1,034,001,2021-04-26_17h15.05.218,searchDisc4,2020.2.10,Win32,60,,,space,0.09294,1,1,0.727265,,0,308,308,554,1,2c,98,1,31,
,,,,,,,,,,,,,,,,,,,,,,,,,,images/exp1a_trial_98_colour1_distractors31_l.png,l,1,034,001,2021-04-26_17h15.05.218,searchDisc4,2020.2.10,Win32,60,,,space,0.0893,1,1,0.90411,,0,309,309,98,1,1a,98,1,31,
,,,,,,,,,,,,,,,,,,,,,,,,,,images/exp1b_trial_43_colour1_distractors43_r.png,r,2,034,001,2021-04-26_17h15.05.218,searchDisc4,2020.2.10,Win32,60,,,space,0.09768,2,1,1.376515,,0,310,310,157,1,1b,43,1,43,
,,,,,,,,,,,,,,,,,,,,,,,,,,images/exp1a_trial_112_colour0_distractors0_r.png,r,2,034,001,2021-04-26_17h15.05.218,searchDisc4,2020.2.10,Win32,60,,,space,0.05947,2,1,0.86622,,0,311,311,112,1,1a,112,0,0,
,,,,,,,,,,,,,,,,,,,,,,,,,,images/exp1a_trial_1_colour1_distractors4_r.png,r,2,034,001,2021-04-26_17h15.05.218,searchDisc4,2020.2.10,Win32,60,,,space,0.089245,2,1,0.726665,,0,312,312,1,1,1a,1,1,4,
,,,,,,,,,,,,,,,,,,,,,,,,,,images/exp1b_trial_18_colour1_distractors1_l.png,l,1,034,001,2021-04-26_17h15.05.218,searchDisc4,2020.2.10,Win32,60,,,space,0.11007,1,1,0.74753,,0,313,313,132,1,1b,18,1,1,
,,,,,,,,,,,,,,,,,,,,,,,,,,images/exp2b_trial_56_colour1_distractors1_l.png,l,1,034,001,2021-04-26_17h15.05.218,searchDisc4,2020.2.10,Win32,60,,,space,0.115155,1,1,0.702005,,0,314,314,398,1,2b,56,1,1,
,,,,,,,,,,,,,,,,,,,,,,,,,,images/exp1b_trial_16_colour3_distractors31_r.png,r,2,034,001,2021-04-26_17h15.05.218,searchDisc4,2020.2.10,Win32,60,,,space,0.093835,2,1,1.037285,,0,315,315,130,1,1b,16,3,31,
,,,,,,,,,,,,,,,,,,,,,,,,,,images/exp1a_trial_101_colour2_distractors4_l.png,l,1,034,001,2021-04-26_17h15.05.218,searchDisc4,2020.2.10,Win32,60,,,space,0.069555,1,1,0.754705,,0,316,316,101,1,1a,101,2,4,
,,,,,,,,,,,,,,,,,,,,,,,,,,images/exp2b_trial_101_colour2_distractors4_l.png,l,1,034,001,2021-04-26_17h15.05.218,searchDisc4,2020.2.10,Win32,60,,,space,0.09061,1,1,0.8716,,0,317,317,443,1,2b,101,2,4,
,,,,,,,,,,,,,,,,,,,,,,,,,,images/exp2a_trial_25_colour2_distractors4_l.png,l,1,034,001,2021-04-26_17h15.05.218,searchDisc4,2020.2.10,Win32,60,,,space,0.07227,1,1,0.793305,,0,318,318,253,1,2a,25,2,4,
,,,,,,,,,,,,,,,,,,,,,,,,,,images/exp1a_trial_28_colour2_distractors31_l.png,l,1,034,001,2021-04-26_17h15.05.218,searchDisc4,2020.2.10,Win32,60,,,space,0.11709,1,1,0.926465,,0,319,319,28,1,1a,28,2,31,
,,,,,,,,,,,,,,,,,,,,,,,,,,images/exp1b_trial_22_colour1_distractors31_l.png,l,1,034,001,2021-04-26_17h15.05.218,searchDisc4,2020.2.10,Win32,60,,,space,0.070625,1,1,1.59829,,0,320,320,136,1,1b,22,1,31,
,,,,,,,,,,,,,,,,,,,,,,,,,,images/exp1b_trial_73_colour3_distractors43_l.png,l,1,034,001,2021-04-26_17h15.05.218,searchDisc4,2020.2.10,Win32,60,,,space,0.97719,1,1,1.30514,,0,321,321,187,1,1b,73,3,43,
,,,,,,,,,,,,,,,,,,,,,,,,,,images/exp2c_trial_99_colour1_distractors43_l.png,l,1,034,001,2021-04-26_17h15.05.218,searchDisc4,2020.2.10,Win32,60,,,space,0.183425,1,1,0.74032,,0,322,322,555,1,2c,99,1,43,
,,,,,,,,,,,,,,,,,,,,,,,,,,images/exp2a_trial_43_colour1_distractors43_r.png,r,2,034,001,2021-04-26_17h15.05.218,searchDisc4,2020.2.10,Win32,60,,,space,0.13241,2,1,0.7845,,0,323,323,271,1,2a,43,1,43,
,,,,,,,,,,,,,,,,,,,,,,,,,,images/exp2a_trial_112_colour0_distractors0_r.png,r,2,034,001,2021-04-26_17h15.05.218,searchDisc4,2020.2.10,Win32,60,,,space,0.110395,2,1,0.697515,,0,324,324,340,1,2a,112,0,0,
,,,,,,,,,,,,,,,,,,,,,,,,,,images/exp1b_trial_42_colour1_distractors31_r.png,r,2,034,001,2021-04-26_17h15.05.218,searchDisc4,2020.2.10,Win32,60,,,space,0.122335,2,1,0.71655,,0,325,325,156,1,1b,42,1,31,
,,,,,,,,,,,,,,,,,,,,,,,,,,images/exp2a_trial_82_colour2_distractors1_r.png,r,2,034,001,2021-04-26_17h15.05.218,searchDisc4,2020.2.10,Win32,60,,,space,0.09339,2,1,0.94568,,0,326,326,310,1,2a,82,2,1,
,,,,,,,,,,,,,,,,,,,,,,,,,,images/exp1b_trial_38_colour1_distractors1_r.png,r,2,034,001,2021-04-26_17h15.05.218,searchDisc4,2020.2.10,Win32,60,,,space,0.09106,2,1,1.198625,,0,327,327,152,1,1b,38,1,1,
,,,,,,,,,,,,,,,,,,,,,,,,,,images/exp2b_trial_86_colour2_distractors31_r.png,r,2,034,001,2021-04-26_17h15.05.218,searchDisc4,2020.2.10,Win32,60,,,space,0.403565,2,1,0.627355,,0,328,328,428,1,2b,86,2,31,
,,,,,,,,,,,,,,,,,,,,,,,,,,images/exp1b_trial_26_colour2_distractors9_l.png,l,1,034,001,2021-04-26_17h15.05.218,searchDisc4,2020.2.10,Win32,60,,,space,0.31886,1,1,0.62777,,0,329,329,140,1,1b,26,2,9,
,,,,,,,,,,,,,,,,,,,,,,,,,,images/exp2c_trial_104_colour2_distractors31_l.png,l,1,034,001,2021-04-26_17h15.05.218,searchDisc4,2020.2.10,Win32,60,,,space,0.280295,1,1,0.779545,,0,330,330,560,1,2c,104,2,31,
,,,,,,,,,,,,,,,,,,,,,,,,,,images/exp2c_trial_58_colour1_distractors9_l.png,l,1,034,001,2021-04-26_17h15.05.218,searchDisc4,2020.2.10,Win32,60,,,space,0.281355,1,1,0.68655,,0,331,331,514,1,2c,58,1,9,
,,,,,,,,,,,,,,,,,,,,,,,,,,images/exp1a_trial_91_colour3_distractors19_r.png,r,2,034,001,2021-04-26_17h15.05.218,searchDisc4,2020.2.10,Win32,60,,,space,0.23235,2,1,0.600225,,0,332,332,91,1,1a,91,3,19,
,,,,,,,,,,,,,,,,,,,,,,,,,,images/exp2c_trial_51_colour3_distractors4_r.png,r,2,034,001,2021-04-26_17h15.05.218,searchDisc4,2020.2.10,Win32,60,,,space,0.236265,2,1,0.958385,,0,333,333,507,1,2c,51,3,4,
,,,,,,,,,,,,,,,,,,,,,,,,,,images/exp2c_trial_47_colour2_distractors19_r.png,r,2,034,001,2021-04-26_17h15.05.218,searchDisc4,2020.2.10,Win32,60,,,space,0.19546,2,1,0.970635,,0,334,334,503,1,2c,47,2,19,
,,,,,,,,,,,,,,,,,,,,,,,,,,images/exp1a_trial_97_colour1_distractors19_l.png,l,1,034,001,2021-04-26_17h15.05.218,searchDisc4,2020.2.10,Win32,60,,,space,0.16856,1,1,1.003955,,0,335,335,97,1,1a,97,1,19,
,,,,,,,,,,,,,,,,,,,,,,,,,,images/exp2c_trial_6_colour2_distractors1_r.png,r,2,034,001,2021-04-26_17h15.05.218,searchDisc4,2020.2.10,Win32,60,,,space,0.126585,2,1,0.691095,,0,336,336,462,1,2c,6,2,1,
,,,,,,,,,,,,,,,,,,,,,,,,,,images/exp2c_trial_93_colour3_distractors43_r.png,r,2,034,001,2021-04-26_17h15.05.218,searchDisc4,2020.2.10,Win32,60,,,space,0.20487,2,1,0.875925,,0,337,337,549,1,2c,93,3,43,
,,,,,,,,,,,,,,,,,,,,,,,,,,images/exp1a_trial_99_colour1_distractors43_l.png,l,1,034,001,2021-04-26_17h15.05.218,searchDisc4,2020.2.10,Win32,60,,,space,6.79762,1,1,0.54698,,0,338,338,99,1,1a,99,1,43,
,,,,,,,,,,,,,,,,,,,,,,,,,,images/exp1a_trial_21_colour1_distractors19_l.png,l,1,034,001,2021-04-26_17h15.05.218,searchDisc4,2020.2.10,Win32,60,,,space,0.531915,1,1,0.623255,,0,339,339,21,1,1a,21,1,19,
,,,,,,,,,,,,,,,,,,,,,,,,,,images/exp1b_trial_31_colour3_distractors4_l.png,l,1,034,001,2021-04-26_17h15.05.218,searchDisc4,2020.2.10,Win32,60,,,space,0.48258,1,1,3.54347,,0,340,340,145,1,1b,31,3,4,
,,,,,,,,,,,,,,,,,,,,,,,,,,images/exp2a_trial_2_colour1_distractors9_r.png,r,2,034,001,2021-04-26_17h15.05.218,searchDisc4,2020.2.10,Win32,60,,,space,0.26315,2,1,0.803025,,0,341,341,230,1,2a,2,1,9,
,,,,,,,,,,,,,,,,,,,,,,,,,,images/exp2a_trial_28_colour2_distractors31_l.png,l,1,034,001,2021-04-26_17h15.05.218,searchDisc4,2020.2.10,Win32,60,,,space,0.32947,1,1,0.63299,,0,342,342,256,1,2a,28,2,31,
,,,,,,,,,,,,,,,,,,,,,,,,,,images/exp2b_trial_71_colour3_distractors19_l.png,l,1,034,001,2021-04-26_17h15.05.218,searchDisc4,2020.2.10,Win32,60,,,space,0.36994,1,1,0.763955,,0,343,343,413,1,2b,71,3,19,
,,,,,,,,,,,,,,,,,,,,,,,,,,images/exp2a_trial_104_colour2_distractors31_l.png,l,1,034,001,2021-04-26_17h15.05.218,searchDisc4,2020.2.10,Win32,60,,,space,0.16494,1,1,0.901165,,0,344,344,332,1,2a,104,2,31,
,,,,,,,,,,,,,,,,,,,,,,,,,,images/exp2c_trial_84_colour2_distractors9_r.png,r,2,034,001,2021-04-26_17h15.05.218,searchDisc4,2020.2.10,Win32,60,,,space,0.136745,2,1,0.77993,,0,345,345,540,1,2c,84,2,9,
,,,,,,,,,,,,,,,,,,,,,,,,,,images/exp2c_trial_69_colour3_distractors4_l.png,l,1,034,001,2021-04-26_17h15.05.218,searchDisc4,2020.2.10,Win32,60,,,space,0.12914,1,1,1.020455,,0,346,346,525,1,2c,69,3,4,
,,,,,,,,,,,,,,,,,,,,,,,,,,images/exp1a_trial_8_colour2_distractors9_r.png,r,2,034,001,2021-04-26_17h15.05.218,searchDisc4,2020.2.10,Win32,60,,,space,0.11587,2,1,0.73986,,0,347,347,8,1,1a,8,2,9,
,,,,,,,,,,,,,,,,,,,,,,,,,,images/exp2a_trial_107_colour3_distractors4_l.png,l,1,034,001,2021-04-26_17h15.05.218,searchDisc4,2020.2.10,Win32,60,,,space,0.13969,1,1,0.648985,,0,348,348,335,1,2a,107,3,4,
,,,,,,,,,,,,,,,,,,,,,,,,,,images/exp1b_trial_45_colour2_distractors4_r.png,r,2,034,001,2021-04-26_17h15.05.218,searchDisc4,2020.2.10,Win32,60,,,space,0.13047,2,1,0.684105,,0,349,349,159,1,1b,45,2,4,
,,,,,,,,,,,,,,,,,,,,,,,,,,images/exp2a_trial_109_colour3_distractors19_l.png,l,1,034,001,2021-04-26_17h15.05.218,searchDisc4,2020.2.10,Win32,60,,,space,0.126995,1,1,0.667735,,0,350,350,337,1,2a,109,3,19,
,,,,,,,,,,,,,,,,,,,,,,,,,,images/exp2c_trial_34_colour3_distractors31_l.png,l,1,034,001,2021-04-26_17h15.05.218,searchDisc4,2020.2.10,Win32,60,,,space,0.11588,1,1,0.70185,,0,351,351,490,1,2c,34,3,31,
,,,,,,,,,,,,,,,,,,,,,,,,,,images/exp2a_trial_52_colour3_distractors9_r.png,r,2,034,001,2021-04-26_17h15.05.218,searchDisc4,2020.2.10,Win32,60,,,space,0.112875,2,1,0.654835,,0,352,352,280,1,2a,52,3,9,
,,,,,,,,,,,,,,,,,,,,,,,,,,images/exp2a_trial_94_colour1_distractors1_l.png,l,1,034,001,2021-04-26_17h15.05.218,searchDisc4,2020.2.10,Win32,60,,,space,0.08011,1,1,0.58026,,0,353,353,322,1,2a,94,1,1,
,,,,,,,,,,,,,,,,,,,,,,,,,,images/exp2b_trial_60_colour1_distractors31_l.png,l,1,034,001,2021-04-26_17h15.05.218,searchDisc4,2020.2.10,Win32,60,,,space,0.11487,1,1,0.967865,,0,354,354,402,1,2b,60,1,31,
,,,,,,,,,,,,,,,,,,,,,,,,,,images/exp1a_trial_23_colour1_distractors43_l.png,l,1,034,001,2021-04-26_17h15.05.218,searchDisc4,2020.2.10,Win32,60,,,space,0.06811,1,1,0.83769,,0,355,355,23,1,1a,23,1,43,
,,,,,,,,,,,,,,,,,,,,,,,,,,images/exp2a_trial_51_colour3_distractors4_r.png,r,2,034,001,2021-04-26_17h15.05.218,searchDisc4,2020.2.10,Win32,60,,,space,0.082615,2,1,0.78457,,0,356,356,279,1,2a,51,3,4,
,,,,,,,,,,,,,,,,,,,,,,,,,,images/exp2c_trial_102_colour2_distractors9_l.png,l,1,034,001,2021-04-26_17h15.05.218,searchDisc4,2020.2.10,Win32,60,,,space,0.05514,1,1,0.57424,,0,357,357,558,1,2c,102,2,9,
,,,,,,,,,,,,,,,,,,,,,,,,,,images/exp2a_trial_97_colour1_distractors19_l.png,l,1,034,001,2021-04-26_17h15.05.218,searchDisc4,2020.2.10,Win32,60,,,space,0.11324,1,1,0.943285,,0,358,358,325,1,2a,97,1,19,
,,,,,,,,,,,,,,,,,,,,,,,,,,images/exp2c_trial_22_colour1_distractors31_l.png,l,1,034,001,2021-04-26_17h15.05.218,searchDisc4,2020.2.10,Win32,60,,,space,0.05234,1,1,0.92362,space,0,359,359,478,1,2c,22,1,31,0.05757
,,,,,,,,,,,,,,,,,,,,,,,,,,images/exp2b_trial_77_colour1_distractors4_r.png,r,2,034,001,2021-04-26_17h15.05.218,searchDisc4,2020.2.10,Win32,60,,,space,6.019065,2,1,0.55577,,0,360,360,419,1,2b,77,1,4,
,,,,,,,,,,,,,,,,,,,,,,,,,,images/exp1a_trial_40_colour1_distractors9_r.png,r,2,034,001,2021-04-26_17h15.05.218,searchDisc4,2020.2.10,Win32,60,,,space,0.119495,2,1,0.639885,,0,361,361,40,1,1a,40,1,9,
,,,,,,,,,,,,,,,,,,,,,,,,,,images/exp2c_trial_39_colour1_distractors4_r.png,r,2,034,001,2021-04-26_17h15.05.218,searchDisc4,2020.2.10,Win32,60,,,space,0.075475,2,1,0.57605,,0,362,362,495,1,2c,39,1,4,
,,,,,,,,,,,,,,,,,,,,,,,,,,images/exp2b_trial_4_colour1_distractors31_r.png,r,2,034,001,2021-04-26_17h15.05.218,searchDisc4,2020.2.10,Win32,60,,,space,0.08923,2,1,0.756065,,0,363,363,346,1,2b,4,1,31,
,,,,,,,,,,,,,,,,,,,,,,,,,,images/exp1a_trial_108_colour3_distractors9_l.png,l,1,034,001,2021-04-26_17h15.05.218,searchDisc4,2020.2.10,Win32,60,,,space,0.08312,1,1,0.87099,,0,364,364,108,1,1a,108,3,9,
,,,,,,,,,,,,,,,,,,,,,,,,,,images/exp1a_trial_56_colour1_distractors1_l.png,l,1,034,001,2021-04-26_17h15.05.218,searchDisc4,2020.2.10,Win32,60,,,space,0.114565,1,1,0.861645,,0,365,365,56,1,1a,56,1,1,
,,,,,,,,,,,,,,,,,,,,,,,,,,images/exp1a_trial_17_colour3_distractors43_r.png,r,2,034,001,2021-04-26_17h15.05.218,searchDisc4,2020.2.10,Win32,60,,,space,0.081065,2,1,0.72924,,0,366,366,17,1,1a,17,3,43,
,,,,,,,,,,,,,,,,,,,,,,,,,,images/exp1b_trial_3_colour1_distractors19_r.png,r,2,034,001,2021-04-26_17h15.05.218,searchDisc4,2020.2.10,Win32,60,,,space,0.08349,2,1,0.842955,,0,367,367,117,1,1b,3,1,19,
,,,,,,,,,,,,,,,,,,,,,,,,,,images/exp1b_trial_77_colour1_distractors4_r.png,r,2,034,001,2021-04-26_17h15.05.218,searchDisc4,2020.2.10,Win32,60,,,space,0.084165,2,1,0.80346,,0,368,368,191,1,1b,77,1,4,
,,,,,,,,,,,,,,,,,,,,,,,,,,images/exp2b_trial_17_colour3_distractors43_r.png,r,2,034,001,2021-04-26_17h15.05.218,searchDisc4,2020.2.10,Win32,60,,,space,0.06665,2,1,0.850915,,0,369,369,359,1,2b,17,3,43,
,,,,,,,,,,,,,,,,,,,,,,,,,,images/exp1b_trial_83_colour2_distractors4_r.png,r,2,034,001,2021-04-26_17h15.05.218,searchDisc4,2020.2.10,Win32,60,,,space,0.078375,2,1,0.723395,,0,370,370,197,1,1b,83,2,4,
,,,,,,,,,,,,,,,,,,,,,,,,,,images/exp1b_trial_110_colour3_distractors31_l.png,l,1,034,001,2021-04-26_17h15.05.218,searchDisc4,2020.2.10,Win32,60,,,space,0.067965,1,1,1.384555,,0,371,371,224,1,1b,110,3,31,
,,,,,,,,,,,,,,,,,,,,,,,,,,images/exp1b_trial_30_colour3_distractors1_l.png,l,1,034,001,2021-04-26_17h15.05.218,searchDisc4,2020.2.10,Win32,60,,,space,0.1189,1,1,0.946035,,0,372,372,144,1,1b,30,3,1,
,,,,,,,,,,,,,,,,,,,,,,,,,,images/exp2b_trial_107_colour3_distractors4_l.png,l,1,034,001,2021-04-26_17h15.05.218,searchDisc4,2020.2.10,Win32,60,,,space,0.058705,1,1,0.7152,,0,373,373,449,1,2b,107,3,4,
,,,,,,,,,,,,,,,,,,,,,,,,,,images/exp2a_trial_70_colour3_distractors9_l.png,l,1,034,001,2021-04-26_17h15.05.218,searchDisc4,2020.2.10,Win32,60,,,space,0.08097,1,1,0.781405,,0,374,374,298,1,2a,70,3,9,
,,,,,,,,,,,,,,,,,,,,,,,,,,images/exp1b_trial_37_colour0_distractors0_l.png,l,1,034,001,2021-04-26_17h15.05.218,searchDisc4,2020.2.10,Win32,60,,,space,0.107115,1,1,0.71856,,0,375,375,151,1,1b,37,0,0,
,,,,,,,,,,,,,,,,,,,,,,,,,,images/exp1a_trial_35_colour3_distractors43_l.png,l,1,034,001,2021-04-26_17h15.05.218,searchDisc4,2020.2.10,Win32,60,,,space,0.097185,1,1,0.748215,,0,376,376,35,1,1a,35,3,43,
,,,,,,,,,,,,,,,,,,,,,,,,,,images/exp2a_trial_14_colour3_distractors9_r.png,r,2,034,001,2021-04-26_17h15.05.218,searchDisc4,2020.2.10,Win32,60,,,space,0.09901,2,1,0.82849,,0,377,377,242,1,2a,14,3,9,
,,,,,,,,,,,,,,,,,,,,,,,,,,images/exp2a_trial_23_colour1_distractors43_l.png,l,1,034,001,2021-04-26_17h15.05.218,searchDisc4,2020.2.10,Win32,60,,,space,0.06676,1,1,0.82078,,0,378,378,251,1,2a,23,1,43,
,,,,,,,,,,,,,,,,,,,,,,,,,,images/exp2b_trial_103_colour2_distractors19_l.png,l,1,034,001,2021-04-26_17h15.05.218,searchDisc4,2020.2.10,Win32,60,,,space,0.070985,1,1,0.665,,0,379,379,445,1,2b,103,2,19,
,,,,,,,,,,,,,,,,,,,,,,,,,,images/exp2c_trial_24_colour2_distractors1_l.png,l,1,034,001,2021-04-26_17h15.05.218,searchDisc4,2020.2.10,Win32,60,,,space,0.091935,1,1,0.616805,,0,380,380,480,1,2c,24,2,1,
,,,,,,,,,,,,,,,,,,,,,,,,,,images/exp1b_trial_48_colour2_distractors31_r.png,r,2,034,001,2021-04-26_17h15.05.218,searchDisc4,2020.2.10,Win32,60,,,space,0.09208,2,1,0.76754,,0,381,381,162,1,1b,48,2,31,
,,,,,,,,,,,,,,,,,,,,,,,,,,images/exp2a_trial_35_colour3_distractors43_l.png,l,1,034,001,2021-04-26_17h15.05.218,searchDisc4,2020.2.10,Win32,60,,,space,0.10412,1,1,0.63581,,0,382,382,263,1,2a,35,3,43,
,,,,,,,,,,,,,,,,,,,,,,,,,,images/exp1a_trial_4_colour1_distractors31_r.png,r,2,034,001,2021-04-26_17h15.05.218,searchDisc4,2020.2.10,Win32,60,,,space,0.057095,2,1,0.65994,,0,383,383,4,1,1a,4,1,31,
,,,,,,,,,,,,,,,,,,,,,,,,,,images/exp2b_trial_68_colour3_distractors1_l.png,l,1,034,001,2021-04-26_17h15.05.218,searchDisc4,2020.2.10,Win32,60,,,space,0.0561,1,1,0.63012,,0,384,384,410,1,2b,68,3,1,
,,,,,,,,,,,,,,,,,,,,,,,,,,images/exp2c_trial_53_colour3_distractors19_r.png,r,2,034,001,2021-04-26_17h15.05.218,searchDisc4,2020.2.10,Win32,60,,,space,0.1061,2,1,0.615415,,0,385,385,509,1,2c,53,3,19,
,,,,,,,,,,,,,,,,,,,,,,,,,,images/exp1b_trial_41_colour1_distractors19_r.png,r,2,034,001,2021-04-26_17h15.05.218,searchDisc4,2020.2.10,Win32,60,,,space,0.08398,2,1,1.01419,,0,386,386,155,1,1b,41,1,19,
,,,,,,,,,,,,,,,,,,,,,,,,,,images/exp2c_trial_63_colour2_distractors4_l.png,l,1,034,001,2021-04-26_17h15.05.218,searchDisc4,2020.2.10,Win32,60,,,space,0.076015,1,1,0.769365,,0,387,387,519,1,2c,63,2,4,
,,,,,,,,,,,,,,,,,,,,,,,,,,images/exp1b_trial_21_colour1_distractors19_l.png,l,1,034,001,2021-04-26_17h15.05.218,searchDisc4,2020.2.10,Win32,60,,,space,0.09616,1,1,1.516075,,0,388,388,135,1,1b,21,1,19,
,,,,,,,,,,,,,,,,,,,,,,,,,,images/exp2a_trial_77_colour1_distractors4_r.png,r,2,034,001,2021-04-26_17h15.05.218,searchDisc4,2020.2.10,Win32,60,,,space,0.91758,1,0,0.60008,,0,389,389,305,1,2a,77,1,4,
,,,,,,,,,,,,,,,,,,,,,,,,,,images/exp2b_trial_21_colour1_distractors19_l.png,l,1,034,001,2021-04-26_17h15.05.218,searchDisc4,2020.2.10,Win32,60,,,space,0.819755,1,1,0.92069,,0,390,390,363,1,2b,21,1,19,
,,,,,,,,,,,,,,,,,,,,,,,,,,images/exp2c_trial_17_colour3_distractors43_r.png,r,2,034,001,2021-04-26_17h15.05.218,searchDisc4,2020.2.10,Win32,60,,,space,0.1836,2,1,0.63881,,0,391,391,473,1,2c,17,3,43,
,,,,,,,,,,,,,,,,,,,,,,,,,,images/exp1b_trial_14_colour3_distractors9_r.png,r,2,034,001,2021-04-26_17h15.05.218,searchDisc4,2020.2.10,Win32,60,,,space,0.1217,2,1,1.50861,,0,392,392,128,1,1b,14,3,9,
,,,,,,,,,,,,,,,,,,,,,,,,,,images/exp1a_trial_69_colour3_distractors4_l.png,l,1,034,001,2021-04-26_17h15.05.218,searchDisc4,2020.2.10,Win32,60,,,space,0.05323,1,1,0.6835,,0,393,393,69,1,1a,69,3,4,
,,,,,,,,,,,,,,,,,,,,,,,,,,images/exp1b_trial_40_colour1_distractors9_r.png,r,2,034,001,2021-04-26_17h15.05.218,searchDisc4,2020.2.10,Win32,60,,,space,0.117705,2,1,0.98441,,0,394,394,154,1,1b,40,1,9,
,,,,,,,,,,,,,,,,,,,,,,,,,,images/exp1b_trial_34_colour3_distractors31_l.png,l,1,034,001,2021-04-26_17h15.05.218,searchDisc4,2020.2.10,Win32,60,,,space,0.05011,1,1,1.004155,,0,395,395,148,1,1b,34,3,31,
,,,,,,,,,,,,,,,,,,,,,,,,,,images/exp2b_trial_24_colour2_distractors1_l.png,l,1,034,001,2021-04-26_17h15.05.218,searchDisc4,2020.2.10,Win32,60,,,space,0.076115,1,1,0.745565,,0,396,396,366,1,2b,24,2,1,
,,,,,,,,,,,,,,,,,,,,,,,,,,images/exp1a_trial_110_colour3_distractors31_l.png,l,1,034,001,2021-04-26_17h15.05.218,searchDisc4,2020.2.10,Win32,60,,,space,0.05345,2,0,0.87014,,0,397,397,110,1,1a,110,3,31,
,,,,,,,,,,,,,,,,,,,,,,,,,,images/exp1b_trial_59_colour1_distractors19_l.png,l,1,034,001,2021-04-26_17h15.05.218,searchDisc4,2020.2.10,Win32,60,,,space,0.5022,1,1,0.710515,,0,398,398,173,1,1b,59,1,19,
,,,,,,,,,,,,,,,,,,,,,,,,,,images/exp1b_trial_87_colour2_distractors43_r.png,r,2,034,001,2021-04-26_17h15.05.218,searchDisc4,2020.2.10,Win32,60,,,space,0.092055,2,1,0.71946,,0,399,399,201,1,1b,87,2,43,
,,,,,,,,,,,,,,,,,,,,,,,,,,images/exp1b_trial_91_colour3_distractors19_r.png,r,2,034,001,2021-04-26_17h15.05.218,searchDisc4,2020.2.10,Win32,60,,,space,0.08115,,0,,,0,400,400,205,1,1b,91,3,19,
,,,,,,,,,,,,,,,,,,,,,,,,,,images/exp1b_trial_10_colour2_distractors31_r.png,r,2,034,001,2021-04-26_17h15.05.218,searchDisc4,2020.2.10,Win32,60,,,space,0.65842,2,1,0.81213,,0,401,401,124,1,1b,10,2,31,
,,,,,,,,,,,,,,,,,,,,,,,,,,images/exp2b_trial_53_colour3_distractors19_r.png,r,2,034,001,2021-04-26_17h15.05.218,searchDisc4,2020.2.10,Win32,60,,,space,0.16043,2,1,0.752885,,0,402,402,395,1,2b,53,3,19,
,,,,,,,,,,,,,,,,,,,,,,,,,,images/exp1b_trial_106_colour3_distractors1_l.png,l,1,034,001,2021-04-26_17h15.05.218,searchDisc4,2020.2.10,Win32,60,,,space,0.08814,1,1,1.039475,,0,403,403,220,1,1b,106,3,1,
,,,,,,,,,,,,,,,,,,,,,,,,,,images/exp2b_trial_94_colour1_distractors1_l.png,l,1,034,001,2021-04-26_17h15.05.218,searchDisc4,2020.2.10,Win32,60,,,space,0.59146,1,1,0.78185,,0,404,404,436,1,2b,94,1,1,
,,,,,,,,,,,,,,,,,,,,,,,,,,images/exp1a_trial_13_colour3_distractors4_r.png,r,2,034,001,2021-04-26_17h15.05.218,searchDisc4,2020.2.10,Win32,60,,,space,0.158315,2,1,0.73078,,0,405,405,13,1,1a,13,3,4,
,,,,,,,,,,,,,,,,,,,,,,,,,,images/exp2c_trial_12_colour3_distractors1_r.png,r,2,034,001,2021-04-26_17h15.05.218,searchDisc4,2020.2.10,Win32,60,,,space,0.096455,2,1,0.69546,,0,406,406,468,1,2c,12,3,1,
,,,,,,,,,,,,,,,,,,,,,,,,,,images/exp1b_trial_24_colour2_distractors1_l.png,l,1,034,001,2021-04-26_17h15.05.218,searchDisc4,2020.2.10,Win32,60,,,space,0.06959,1,1,1.067955,,0,407,407,138,1,1b,24,2,1,
,,,,,,,,,,,,,,,,,,,,,,,,,,images/exp2b_trial_32_colour3_distractors9_l.png,l,1,034,001,2021-04-26_17h15.05.218,searchDisc4,2020.2.10,Win32,60,,,space,0.07858,2,0,0.84372,,0,408,408,374,1,2b,32,3,9,
,,,,,,,,,,,,,,,,,,,,,,,,,,images/exp1b_trial_90_colour3_distractors9_r.png,r,2,034,001,2021-04-26_17h15.05.218,searchDisc4,2020.2.10,Win32,60,,,space,0.48639,2,1,2.93005,,0,409,409,204,1,1b,90,3,9,
,,,,,,,,,,,,,,,,,,,,,,,,,,images/exp2c_trial_44_colour2_distractors1_r.png,r,2,034,001,2021-04-26_17h15.05.218,searchDisc4,2020.2.10,Win32,60,,,space,0.169735,2,1,0.81166,,0,410,410,500,1,2c,44,2,1,
,,,,,,,,,,,,,,,,,,,,,,,,,,images/exp1a_trial_67_colour2_distractors43_l.png,l,1,034,001,2021-04-26_17h15.05.218,searchDisc4,2020.2.10,Win32,60,,,space,0.10446,1,1,0.721085,,0,411,411,67,1,1a,67,2,43,
,,,,,,,,,,,,,,,,,,,,,,,,,,images/exp1b_trial_96_colour1_distractors9_l.png,l,1,034,001,2021-04-26_17h15.05.218,searchDisc4,2020.2.10,Win32,60,,,space,0.08362,1,1,1.371495,,0,412,412,210,1,1b,96,1,9,
,,,,,,,,,,,,,,,,,,,,,,,,,,images/exp2b_trial_38_colour1_distractors1_r.png,r,2,034,001,2021-04-26_17h15.05.218,searchDisc4,2020.2.10,Win32,60,,,space,0.08046,2,1,0.909515,,0,413,413,380,1,2b,38,1,1,
,,,,,,,,,,,,,,,,,,,,,,,,,,images/exp2a_trial_38_colour1_distractors1_r.png,r,2,034,001,2021-04-26_17h15.05.218,searchDisc4,2020.2.10,Win32,60,,,space,0.08255,2,1,1.240305,,0,414,414,266,1,2a,38,1,1,
,,,,,,,,,,,,,,,,,,,,,,,,,,images/exp2c_trial_15_colour3_distractors19_r.png,r,2,034,001,2021-04-26_17h15.05.218,searchDisc4,2020.2.10,Win32,60,,,space,2.31008,2,1,0.61029,,0,415,415,471,1,2c,15,3,19,
,,,,,,,,,,,,,,,,,,,,,,,,,,images/exp1b_trial_81_colour1_distractors43_r.png,r,2,034,001,2021-04-26_17h15.05.218,searchDisc4,2020.2.10,Win32,60,,,space,0.086175,2,1,1.130535,,0,416,416,195,1,1b,81,1,43,
,,,,,,,,,,,,,,,,,,,,,,,,,,images/exp2b_trial_36_colour0_distractors0_r.png,r,2,034,001,2021-04-26_17h15.05.218,searchDisc4,2020.2.10,Win32,60,,,space,0.09878,2,1,0.703065,,0,417,417,378,1,2b,36,0,0,
,,,,,,,,,,,,,,,,,,,,,,,,,,images/exp1a_trial_32_colour3_distractors9_l.png,l,1,034,001,2021-04-26_17h15.05.218,searchDisc4,2020.2.10,Win32,60,,,space,0.064755,1,1,0.95804,,0,418,418,32,1,1a,32,3,9,
,,,,,,,,,,,,,,,,,,,,,,,,,,images/exp2b_trial_96_colour1_distractors9_l.png,l,1,034,001,2021-04-26_17h15.05.218,searchDisc4,2020.2.10,Win32,60,,,space,0.08348,1,1,0.759465,space,0,419,419,438,1,2b,96,1,9,0.060405
,,,,,,,,,,,,,,,,,,,,,,,,,,images/exp1a_trial_74_colour0_distractors0_r.png,r,2,034,001,2021-04-26_17h15.05.218,searchDisc4,2020.2.10,Win32,60,,,space,58.326475,1,0,0.573535,,0,420,420,74,1,1a,74,0,0,
,,,,,,,,,,,,,,,,,,,,,,,,,,images/exp2a_trial_27_colour2_distractors19_l.png,l,1,034,001,2021-04-26_17h15.05.218,searchDisc4,2020.2.10,Win32,60,,,space,0.516675,1,1,0.652405,,0,421,421,255,1,2a,27,2,19,
,,,,,,,,,,,,,,,,,,,,,,,,,,images/exp1b_trial_69_colour3_distractors4_l.png,l,1,034,001,2021-04-26_17h15.05.218,searchDisc4,2020.2.10,Win32,60,,,space,0.137815,1,1,1.23798,,0,422,422,183,1,1b,69,3,4,
,,,,,,,,,,,,,,,,,,,,,,,,,,images/exp2b_trial_16_colour3_distractors31_r.png,r,2,034,001,2021-04-26_17h15.05.218,searchDisc4,2020.2.10,Win32,60,,,space,0.08062,2,1,0.80084,,0,423,423,358,1,2b,16,3,31,
,,,,,,,,,,,,,,,,,,,,,,,,,,images/exp1a_trial_53_colour3_distractors19_r.png,r,2,034,001,2021-04-26_17h15.05.218,searchDisc4,2020.2.10,Win32,60,,,space,0.075165,2,1,0.763835,,0,424,424,53,1,1a,53,3,19,
,,,,,,,,,,,,,,,,,,,,,,,,,,images/exp1b_trial_39_colour1_distractors4_r.png,r,2,034,001,2021-04-26_17h15.05.218,searchDisc4,2020.2.10,Win32,60,,,space,0.086125,2,1,0.78056,,0,425,425,153,1,1b,39,1,4,
,,,,,,,,,,,,,,,,,,,,,,,,,,images/exp1a_trial_29_colour2_distractors43_l.png,l,1,034,001,2021-04-26_17h15.05.218,searchDisc4,2020.2.10,Win32,60,,,space,0.073605,1,1,0.820795,,0,426,426,29,1,1a,29,2,43,
,,,,,,,,,,,,,,,,,,,,,,,,,,images/exp2b_trial_100_colour2_distractors1_l.png,l,1,034,001,2021-04-26_17h15.05.218,searchDisc4,2020.2.10,Win32,60,,,space,0.100675,1,1,0.64897,,0,427,427,442,1,2b,100,2,1,
,,,,,,,,,,,,,,,,,,,,,,,,,,images/exp1b_trial_46_colour2_distractors9_r.png,r,2,034,001,2021-04-26_17h15.05.218,searchDisc4,2020.2.10,Win32,60,,,space,0.08256,2,1,0.74878,,0,428,428,160,1,1b,46,2,9,
,,,,,,,,,,,,,,,,,,,,,,,,,,images/exp2b_trial_13_colour3_distractors4_r.png,r,2,034,001,2021-04-26_17h15.05.218,searchDisc4,2020.2.10,Win32,60,,,space,0.078385,2,1,0.843955,,0,429,429,355,1,2b,13,3,4,
,,,,,,,,,,,,,,,,,,,,,,,,,,images/exp2b_trial_63_colour2_distractors4_l.png,l,1,034,001,2021-04-26_17h15.05.218,searchDisc4,2020.2.10,Win32,60,,,space,0.07927,1,1,0.60383,,0,430,430,405,1,2b,63,2,4,
,,,,,,,,,,,,,,,,,,,,,,,,,,images/exp2a_trial_88_colour3_distractors1_r.png,r,2,034,001,2021-04-26_17h15.05.218,searchDisc4,2020.2.10,Win32,60,,,space,0.08277,2,1,0.63785,,0,431,431,316,1,2a,88,3,1,
,,,,,,,,,,,,,,,,,,,,,,,,,,images/exp1a_trial_12_colour3_distractors1_r.png,r,2,034,001,2021-04-26_17h15.05.218,searchDisc4,2020.2.10,Win32,60,,,space,0.0737,2,1,0.9873,,0,432,432,12,1,1a,12,3,1,
,,,,,,,,,,,,,,,,,,,,,,,,,,images/exp2b_trial_55_colour3_distractors43_r.png,r,2,034,001,2021-04-26_17h15.05.218,searchDisc4,2020.2.10,Win32,60,,,space,0.06946,2,1,0.78569,,0,433,433,397,1,2b,55,3,43,
,,,,,,,,,,,,,,,,,,,,,,,,,,images/exp2b_trial_82_colour2_distractors1_r.png,r,2,034,001,2021-04-26_17h15.05.218,searchDisc4,2020.2.10,Win32,60,,,space,0.08192,2,1,0.661455,,0,434,434,424,1,2b,82,2,1,
,,,,,,,,,,,,,,,,,,,,,,,,,,images/exp2c_trial_16_colour3_distractors31_r.png,r,2,034,001,2021-04-26_17h15.05.218,searchDisc4,2020.2.10,Win32,60,,,space,0.07967,2,1,0.68189,,0,435,435,472,1,2c,16,3,31,
,,,,,,,,,,,,,,,,,,,,,,,,,,images/exp1a_trial_80_colour1_distractors31_r.png,r,2,034,001,2021-04-26_17h15.05.218,searchDisc4,2020.2.10,Win32,60,,,space,0.07008,2,1,0.750435,,0,436,436,80,1,1a,80,1,31,
,,,,,,,,,,,,,,,,,,,,,,,,,,images/exp2c_trial_7_colour2_distractors4_r.png,r,2,034,001,2021-04-26_17h15.05.218,searchDisc4,2020.2.10,Win32,60,,,space,0.08326,2,1,0.664285,,0,437,437,463,1,2c,7,2,4,
,,,,,,,,,,,,,,,,,,,,,,,,,,images/exp2a_trial_10_colour2_distractors31_r.png,r,2,034,001,2021-04-26_17h15.05.218,searchDisc4,2020.2.10,Win32,60,,,space,0.090275,2,1,0.70189,,0,438,438,238,1,2a,10,2,31,
,,,,,,,,,,,,,,,,,,,,,,,,,,images/exp2b_trial_54_colour3_distractors31_r.png,r,2,034,001,2021-04-26_17h15.05.218,searchDisc4,2020.2.10,Win32,60,,,space,0.06486,2,1,0.69424,,0,439,439,396,1,2b,54,3,31,
,,,,,,,,,,,,,,,,,,,,,,,,,,images/exp2b_trial_18_colour1_distractors1_l.png,l,1,034,001,2021-04-26_17h15.05.218,searchDisc4,2020.2.10,Win32,60,,,space,0.06313,2,0,0.56311,,0,440,440,360,1,2b,18,1,1,
,,,,,,,,,,,,,,,,,,,,,,,,,,images/exp1b_trial_62_colour2_distractors1_l.png,l,1,034,001,2021-04-26_17h15.05.218,searchDisc4,2020.2.10,Win32,60,,,space,0.515965,1,1,0.77395,,0,441,441,176,1,1b,62,2,1,
,,,,,,,,,,,,,,,,,,,,,,,,,,images/exp2b_trial_61_colour1_distractors43_l.png,l,1,034,001,2021-04-26_17h15.05.218,searchDisc4,2020.2.10,Win32,60,,,space,0.09954,1,1,0.75226,,0,442,442,403,1,2b,61,1,43,
,,,,,,,,,,,,,,,,,,,,,,,,,,images/exp1a_trial_64_colour2_distractors9_l.png,l,1,034,001,2021-04-26_17h15.05.218,searchDisc4,2020.2.10,Win32,60,,,space,0.086095,1,1,0.90954,,0,443,443,64,1,1a,64,2,9,
,,,,,,,,,,,,,,,,,,,,,,,,,,images/exp2a_trial_40_colour1_distractors9_r.png,r,2,034,001,2021-04-26_17h15.05.218,searchDisc4,2020.2.10,Win32,60,,,space,0.06034,2,1,0.79815,,0,444,444,268,1,2a,40,1,9,
,,,,,,,,,,,,,,,,,,,,,,,,,,images/exp2c_trial_19_colour1_distractors4_l.png,l,1,034,001,2021-04-26_17h15.05.218,searchDisc4,2020.2.10,Win32,60,,,space,0.08695,1,1,0.645935,,0,445,445,475,1,2c,19,1,4,
,,,,,,,,,,,,,,,,,,,,,,,,,,images/exp1b_trial_15_colour3_distractors19_r.png,r,2,034,001,2021-04-26_17h15.05.218,searchDisc4,2020.2.10,Win32,60,,,space,0.06414,2,1,0.830445,,0,446,446,129,1,1b,15,3,19,
,,,,,,,,,,,,,,,,,,,,,,,,,,images/exp1b_trial_29_colour2_distractors43_l.png,l,1,034,001,2021-04-26_17h15.05.218,searchDisc4,2020.2.10,Win32,60,,,space,0.04088,1,1,1.965665,,0,447,447,143,1,1b,29,2,43,
,,,,,,,,,,,,,,,,,,,,,,,,,,images/exp2a_trial_5_colour1_distractors43_r.png,r,2,034,001,2021-04-26_17h15.05.218,searchDisc4,2020.2.10,Win32,60,,,space,0.10181,2,1,0.81951,,0,448,448,233,1,2a,5,1,43,
,,,,,,,,,,,,,,,,,,,,,,,,,,images/exp1b_trial_75_colour0_distractors0_l.png,l,1,034,001,2021-04-26_17h15.05.218,searchDisc4,2020.2.10,Win32,60,,,space,0.07839,1,1,0.76971,,0,449,449,189,1,1b,75,0,0,
,,,,,,,,,,,,,,,,,,,,,,,,,,images/exp2b_trial_8_colour2_distractors9_r.png,r,2,034,001,2021-04-26_17h15.05.218,searchDisc4,2020.2.10,Win32,60,,,space,0.0817,2,1,0.69579,,0,450,450,350,1,2b,8,2,9,
,,,,,,,,,,,,,,,,,,,,,,,,,,images/exp2b_trial_93_colour3_distractors43_r.png,r,2,034,001,2021-04-26_17h15.05.218,searchDisc4,2020.2.10,Win32,60,,,space,0.112965,2,1,0.845505,,0,451,451,435,1,2b,93,3,43,
,,,,,,,,,,,,,,,,,,,,,,,,,,images/exp2b_trial_3_colour1_distractors19_r.png,r,2,034,001,2021-04-26_17h15.05.218,searchDisc4,2020.2.10,Win32,60,,,space,0.08653,2,1,0.791575,,0,452,452,345,1,2b,3,1,19,
,,,,,,,,,,,,,,,,,,,,,,,,,,images/exp1a_trial_15_colour3_distractors19_r.png,r,2,034,001,2021-04-26_17h15.05.218,searchDisc4,2020.2.10,Win32,60,,,space,0.065205,2,1,0.72591,,0,453,453,15,1,1a,15,3,19,
,,,,,,,,,,,,,,,,,,,,,,,,,,images/exp2a_trial_111_colour3_distractors43_l.png,l,1,034,001,2021-04-26_17h15.05.218,searchDisc4,2020.2.10,Win32,60,,,space,0.07187,1,1,0.70052,,0,454,454,339,1,2a,111,3,43,
,,,,,,,,,,,,,,,,,,,,,,,,,,images/exp1b_trial_63_colour2_distractors4_l.png,l,1,034,001,2021-04-26_17h15.05.218,searchDisc4,2020.2.10,Win32,60,,,space,0.077265,1,1,0.821755,,0,455,455,177,1,1b,63,2,4,
,,,,,,,,,,,,,,,,,,,,,,,,,,images/exp1a_trial_102_colour2_distractors9_l.png,l,1,034,001,2021-04-26_17h15.05.218,searchDisc4,2020.2.10,Win32,60,,,space,0.079685,1,1,0.794365,,0,456,456,102,1,1a,102,2,9,
,,,,,,,,,,,,,,,,,,,,,,,,,,images/exp2c_trial_8_colour2_distractors9_r.png,r,2,034,001,2021-04-26_17h15.05.218,searchDisc4,2020.2.10,Win32,60,,,space,0.08957,2,1,0.76776,,0,457,457,464,1,2c,8,2,9,
,,,,,,,,,,,,,,,,,,,,,,,,,,images/exp2a_trial_110_colour3_distractors31_l.png,l,1,034,001,2021-04-26_17h15.05.218,searchDisc4,2020.2.10,Win32,60,,,space,0.091615,1,1,0.77285,,0,458,458,338,1,2a,110,3,31,
,,,,,,,,,,,,,,,,,,,,,,,,,,images/exp1b_trial_47_colour2_distractors19_r.png,r,2,034,001,2021-04-26_17h15.05.218,searchDisc4,2020.2.10,Win32,60,,,space,0.117485,2,1,0.953865,,0,459,459,161,1,1b,47,2,19,
,,,,,,,,,,,,,,,,,,,,,,,,,,images/exp1a_trial_50_colour3_distractors1_r.png,r,2,034,001,2021-04-26_17h15.05.218,searchDisc4,2020.2.10,Win32,60,,,space,0.06546,2,1,0.76265,,0,460,460,50,1,1a,50,3,1,
,,,,,,,,,,,,,,,,,,,,,,,,,,images/exp1a_trial_42_colour1_distractors31_r.png,r,2,034,001,2021-04-26_17h15.05.218,searchDisc4,2020.2.10,Win32,60,,,space,0.110025,2,1,0.816695,,0,461,461,42,1,1a,42,1,31,
,,,,,,,,,,,,,,,,,,,,,,,,,,images/exp1a_trial_16_colour3_distractors31_r.png,r,2,034,001,2021-04-26_17h15.05.218,searchDisc4,2020.2.10,Win32,60,,,space,0.108465,2,1,0.741325,,0,462,462,16,1,1a,16,3,31,
,,,,,,,,,,,,,,,,,,,,,,,,,,images/exp1b_trial_7_colour2_distractors4_r.png,r,2,034,001,2021-04-26_17h15.05.218,searchDisc4,2020.2.10,Win32,60,,,space,0.08772,2,1,0.90199,,0,463,463,121,1,1b,7,2,4,
,,,,,,,,,,,,,,,,,,,,,,,,,,images/exp2b_trial_35_colour3_distractors43_l.png,l,1,034,001,2021-04-26_17h15.05.218,searchDisc4,2020.2.10,Win32,60,,,space,0.110635,1,1,0.769345,,0,464,464,377,1,2b,35,3,43,
,,,,,,,,,,,,,,,,,,,,,,,,,,images/exp1a_trial_20_colour1_distractors9_l.png,l,1,034,001,2021-04-26_17h15.05.218,searchDisc4,2020.2.10,Win32,60,,,space,0.081515,2,0,0.66972,,0,465,465,20,1,1a,20,1,9,
,,,,,,,,,,,,,,,,,,,,,,,,,,images/exp1a_trial_106_colour3_distractors1_l.png,l,1,034,001,2021-04-26_17h15.05.218,searchDisc4,2020.2.10,Win32,60,,,space,0.47199,1,1,0.695845,,0,466,466,106,1,1a,106,3,1,
,,,,,,,,,,,,,,,,,,,,,,,,,,images/exp2c_trial_92_colour3_distractors31_r.png,r,2,034,001,2021-04-26_17h15.05.218,searchDisc4,2020.2.10,Win32,60,,,space,0.10315,2,1,0.979155,,0,467,467,548,1,2c,92,3,31,
,,,,,,,,,,,,,,,,,,,,,,,,,,images/exp1a_trial_76_colour1_distractors1_r.png,r,2,034,001,2021-04-26_17h15.05.218,searchDisc4,2020.2.10,Win32,60,,,space,0.07248,2,1,0.83356,,0,468,468,76,1,1a,76,1,1,
,,,,,,,,,,,,,,,,,,,,,,,,,,images/exp2b_trial_29_colour2_distractors43_l.png,l,1,034,001,2021-04-26_17h15.05.218,searchDisc4,2020.2.10,Win32,60,,,space,0.07339,1,1,0.75254,,0,469,469,371,1,2b,29,2,43,
,,,,,,,,,,,,,,,,,,,,,,,,,,images/exp1a_trial_54_colour3_distractors31_r.png,r,2,034,001,2021-04-26_17h15.05.218,searchDisc4,2020.2.10,Win32,60,,,space,0.08355,2,1,0.786445,,0,470,470,54,1,1a,54,3,31,
,,,,,,,,,,,,,,,,,,,,,,,,,,images/exp1a_trial_62_colour2_distractors1_l.png,l,1,034,001,2021-04-26_17h15.05.218,searchDisc4,2020.2.10,Win32,60,,,space,0.089725,1,1,0.74378,,0,471,471,62,1,1a,62,2,1,
,,,,,,,,,,,,,,,,,,,,,,,,,,images/exp2a_trial_58_colour1_distractors9_l.png,l,1,034,001,2021-04-26_17h15.05.218,searchDisc4,2020.2.10,Win32,60,,,space,0.10824,1,1,0.868115,,0,472,472,286,1,2a,58,1,9,
,,,,,,,,,,,,,,,,,,,,,,,,,,images/exp2b_trial_97_colour1_distractors19_l.png,l,1,034,001,2021-04-26_17h15.05.218,searchDisc4,2020.2.10,Win32,60,,,space,0.083225,1,1,0.70589,,0,473,473,439,1,2b,97,1,19,
,,,,,,,,,,,,,,,,,,,,,,,,,,images/exp1b_trial_20_colour1_distractors9_l.png,l,1,034,001,2021-04-26_17h15.05.218,searchDisc4,2020.2.10,Win32,60,,,space,0.066525,1,1,0.821055,,0,474,474,134,1,1b,20,1,9,
,,,,,,,,,,,,,,,,,,,,,,,,,,images/exp2a_trial_69_colour3_distractors4_l.png,l,1,034,001,2021-04-26_17h15.05.218,searchDisc4,2020.2.10,Win32,60,,,space,0.07467,1,1,0.678675,,0,475,475,297,1,2a,69,3,4,
,,,,,,,,,,,,,,,,,,,,,,,,,,images/exp2b_trial_22_colour1_distractors31_l.png,l,1,034,001,2021-04-26_17h15.05.218,searchDisc4,2020.2.10,Win32,60,,,space,0.08228,1,1,0.74905,,0,476,476,364,1,2b,22,1,31,
