X Scale,Y Scale,key_resp_10.keys,key_resp_10.rt,key_resp_11.keys,key_resp_11.rt,key_resp_12.keys,key_resp_12.rt,key_resp_13.keys,key_resp_13.rt,key_resp_5.keys,key_resp_5.rt,key_resp_8.keys,key_resp_8.rt,key_resp_6.keys,key_resp_6.rt,key_resp_7.keys,key_resp_7.rt,key_resp_4.keys,key_resp_4.corr,key_resp_4.rt,trials_2.thisRepN,trials_2.thisTrialN,trials_2.thisN,trials_2.thisIndex,trials_2.ran,ImageFile,targ_side,correctAnswer,participant,session,date,expName,psychopyVersion,OS,frameRate,key_resp_3.keys,key_resp_3.rt,key_resp_9.keys,key_resp_9.rt,key_resp_2.keys,key_resp_2.corr,key_resp_2.rt,key_resp.keys,trials.thisRepN,trials.thisTrialN,trials.thisN,trials.thisIndex,trials.ran,exp,trial,colour,distNo,key_resp.rt
19.9,20.1,space,3.02523,space,4.355715,space,1.22652,space,2.847865,space,3.44108,space,1.754755,space,1.67551,space,1.64304,1,1,0.939065,0,0,0,17,1,Practice arrays/exp1a_trial_35_colour3_distractors43_l.png,l,1,036,001,2021-04-26_19h52.58.632,searchDisc4,2020.2.10,Win32,60,,,,,,,,,,,,,,,,,,
,,,,,,,,,,,,,,,,space,0.77203,1,1,0.588735,0,1,1,15,1,Practice arrays/exp1a_trial_32_colour3_distractors9_l.png,l,1,036,001,2021-04-26_19h52.58.632,searchDisc4,2020.2.10,Win32,60,,,,,,,,,,,,,,,,,,
,,,,,,,,,,,,,,,,space,0.67803,2,1,0.978965,0,2,2,6,1,Practice arrays/exp1a_trial_12_colour3_distractors1_r.png,r,2,036,001,2021-04-26_19h52.58.632,searchDisc4,2020.2.10,Win32,60,,,,,,,,,,,,,,,,,,
,,,,,,,,,,,,,,,,space,0.621465,2,1,0.53582,0,3,3,0,1,Practice arrays/exp1a_trial_0_colour1_distractors1_r.png,r,2,036,001,2021-04-26_19h52.58.632,searchDisc4,2020.2.10,Win32,60,,,,,,,,,,,,,,,,,,
,,,,,,,,,,,,,,,,space,0.510525,2,1,0.676185,0,4,4,4,1,Practice arrays/exp1a_trial_8_colour2_distractors9_r.png,r,2,036,001,2021-04-26_19h52.58.632,searchDisc4,2020.2.10,Win32,60,,,,,,,,,,,,,,,,,,
,,,,,,,,,,,,,,,,space,0.10946,1,1,0.857395,0,5,5,14,1,Practice arrays/exp1a_trial_29_colour2_distractors43_l.png,l,1,036,001,2021-04-26_19h52.58.632,searchDisc4,2020.2.10,Win32,60,,,,,,,,,,,,,,,,,,
,,,,,,,,,,,,,,,,space,0.404375,2,1,0.80646,0,6,6,5,1,Practice arrays/exp1a_trial_10_colour2_distractors31_r.png,r,2,036,001,2021-04-26_19h52.58.632,searchDisc4,2020.2.10,Win32,60,,,,,,,,,,,,,,,,,,
,,,,,,,,,,,,,,,,space,0.785745,2,1,0.598455,0,7,7,2,1,Practice arrays/exp1a_trial_5_colour1_distractors43_r.png,r,2,036,001,2021-04-26_19h52.58.632,searchDisc4,2020.2.10,Win32,60,,,,,,,,,,,,,,,,,,
,,,,,,,,,,,,,,,,space,0.64815,2,1,0.934485,0,8,8,3,1,Practice arrays/exp1a_trial_7_colour2_distractors4_r.png,r,2,036,001,2021-04-26_19h52.58.632,searchDisc4,2020.2.10,Win32,60,,,,,,,,,,,,,,,,,,
,,,,,,,,,,,,,,,,space,0.586015,1,1,0.649005,0,9,9,16,1,Practice arrays/exp1a_trial_33_colour3_distractors19_l.png,l,1,036,001,2021-04-26_19h52.58.632,searchDisc4,2020.2.10,Win32,60,,,,,,,,,,,,,,,,,,
,,,,,,,,,,,,,,,,space,1.080165,2,1,0.51413,0,10,10,7,1,Practice arrays/exp1a_trial_13_colour3_distractors4_r.png,r,2,036,001,2021-04-26_19h52.58.632,searchDisc4,2020.2.10,Win32,60,,,,,,,,,,,,,,,,,,
,,,,,,,,,,,,,,,,space,0.555775,1,1,1.11401,0,11,11,13,1,Practice arrays/exp1a_trial_28_colour2_distractors31_l.png,l,1,036,001,2021-04-26_19h52.58.632,searchDisc4,2020.2.10,Win32,60,,,,,,,,,,,,,,,,,,
,,,,,,,,,,,,,,,,space,0.6957,1,1,0.726025,0,12,12,10,1,Practice arrays/exp1a_trial_20_colour1_distractors9_l.png,l,1,036,001,2021-04-26_19h52.58.632,searchDisc4,2020.2.10,Win32,60,,,,,,,,,,,,,,,,,,
,,,,,,,,,,,,,,,,space,0.58846,2,1,0.83412,0,13,13,1,1,Practice arrays/exp1a_trial_3_colour1_distractors19_r.png,r,2,036,001,2021-04-26_19h52.58.632,searchDisc4,2020.2.10,Win32,60,,,,,,,,,,,,,,,,,,
,,,,,,,,,,,,,,,,space,1.35446,2,1,0.58383,0,14,14,8,1,Practice arrays/exp1a_trial_16_colour3_distractors31_r.png,r,2,036,001,2021-04-26_19h52.58.632,searchDisc4,2020.2.10,Win32,60,,,,,,,,,,,,,,,,,,
,,,,,,,,,,,,,,,,space,0.13565,1,1,0.84098,0,15,15,12,1,Practice arrays/exp1a_trial_25_colour2_distractors4_l.png,l,1,036,001,2021-04-26_19h52.58.632,searchDisc4,2020.2.10,Win32,60,,,,,,,,,,,,,,,,,,
,,,,,,,,,,,,,,,,space,1.17687,2,1,0.829965,0,16,16,18,1,Practice arrays/exp1a_trial_36_colour0_distractors0_r.png,r,2,036,001,2021-04-26_19h52.58.632,searchDisc4,2020.2.10,Win32,60,,,,,,,,,,,,,,,,,,
,,,,,,,,,,,,,,,,space,0.410735,1,1,0.6748,0,17,17,19,1,Practice arrays/exp1a_trial_37_colour0_distractors0_l.png,l,1,036,001,2021-04-26_19h52.58.632,searchDisc4,2020.2.10,Win32,60,,,,,,,,,,,,,,,,,,
,,,,,,,,,,,,,,,,space,0.594255,1,1,0.708555,0,18,18,9,1,Practice arrays/exp1a_trial_19_colour1_distractors4_l.png,l,1,036,001,2021-04-26_19h52.58.632,searchDisc4,2020.2.10,Win32,60,,,,,,,,,,,,,,,,,,
,,,,,,,,,,,,,,,,space,0.60556,1,1,0.72363,0,19,19,11,1,Practice arrays/exp1a_trial_21_colour1_distractors19_l.png,l,1,036,001,2021-04-26_19h52.58.632,searchDisc4,2020.2.10,Win32,60,,,,,,,,,,,,,,,,,,
,,,,,,,,,,,,,,,,,,,,,,,,,,images/exp1a_trial_3_colour1_distractors19_r.png,r,2,036,001,2021-04-26_19h52.58.632,searchDisc4,2020.2.10,Win32,60,space,10.58617,space,0.791435,2,1,0.57026,,0,0,0,3,1,1a,3,1,19,
,,,,,,,,,,,,,,,,,,,,,,,,,,images/exp2a_trial_67_colour2_distractors43_l.png,l,1,036,001,2021-04-26_19h52.58.632,searchDisc4,2020.2.10,Win32,60,,,space,0.611735,1,1,0.61977,,0,1,1,295,1,2a,67,2,43,
,,,,,,,,,,,,,,,,,,,,,,,,,,images/exp2b_trial_31_colour3_distractors4_l.png,l,1,036,001,2021-04-26_19h52.58.632,searchDisc4,2020.2.10,Win32,60,,,space,0.512985,1,1,0.60062,,0,2,2,373,1,2b,31,3,4,
,,,,,,,,,,,,,,,,,,,,,,,,,,images/exp2a_trial_111_colour3_distractors43_l.png,l,1,036,001,2021-04-26_19h52.58.632,searchDisc4,2020.2.10,Win32,60,,,space,0.611365,1,1,0.6559,,0,3,3,339,1,2a,111,3,43,
,,,,,,,,,,,,,,,,,,,,,,,,,,images/exp2a_trial_48_colour2_distractors31_r.png,r,2,036,001,2021-04-26_19h52.58.632,searchDisc4,2020.2.10,Win32,60,,,space,0.4588,2,1,0.47356,,0,4,4,276,1,2a,48,2,31,
,,,,,,,,,,,,,,,,,,,,,,,,,,images/exp2b_trial_23_colour1_distractors43_l.png,l,1,036,001,2021-04-26_19h52.58.632,searchDisc4,2020.2.10,Win32,60,,,space,0.46318,1,1,0.48395,,0,5,5,365,1,2b,23,1,43,
,,,,,,,,,,,,,,,,,,,,,,,,,,images/exp2b_trial_4_colour1_distractors31_r.png,r,2,036,001,2021-04-26_19h52.58.632,searchDisc4,2020.2.10,Win32,60,,,space,0.465875,2,1,0.441625,,0,6,6,346,1,2b,4,1,31,
,,,,,,,,,,,,,,,,,,,,,,,,,,images/exp2c_trial_50_colour3_distractors1_r.png,r,2,036,001,2021-04-26_19h52.58.632,searchDisc4,2020.2.10,Win32,60,,,space,0.396015,2,1,0.52575,,0,7,7,506,1,2c,50,3,1,
,,,,,,,,,,,,,,,,,,,,,,,,,,images/exp2b_trial_56_colour1_distractors1_l.png,l,1,036,001,2021-04-26_19h52.58.632,searchDisc4,2020.2.10,Win32,60,,,space,0.39234,1,1,0.4537,,0,8,8,398,1,2b,56,1,1,
,,,,,,,,,,,,,,,,,,,,,,,,,,images/exp2a_trial_96_colour1_distractors9_l.png,l,1,036,001,2021-04-26_19h52.58.632,searchDisc4,2020.2.10,Win32,60,,,space,0.420235,1,1,0.540865,,0,9,9,324,1,2a,96,1,9,
,,,,,,,,,,,,,,,,,,,,,,,,,,images/exp2a_trial_75_colour0_distractors0_l.png,l,1,036,001,2021-04-26_19h52.58.632,searchDisc4,2020.2.10,Win32,60,,,space,0.472325,1,1,0.519595,,0,10,10,303,1,2a,75,0,0,
,,,,,,,,,,,,,,,,,,,,,,,,,,images/exp1a_trial_73_colour3_distractors43_l.png,l,1,036,001,2021-04-26_19h52.58.632,searchDisc4,2020.2.10,Win32,60,,,space,0.423715,1,1,0.54136,,0,11,11,73,1,1a,73,3,43,
,,,,,,,,,,,,,,,,,,,,,,,,,,images/exp2b_trial_5_colour1_distractors43_r.png,r,2,036,001,2021-04-26_19h52.58.632,searchDisc4,2020.2.10,Win32,60,,,space,0.402435,2,1,0.553615,,0,12,12,347,1,2b,5,1,43,
,,,,,,,,,,,,,,,,,,,,,,,,,,images/exp1b_trial_58_colour1_distractors9_l.png,l,1,036,001,2021-04-26_19h52.58.632,searchDisc4,2020.2.10,Win32,60,,,space,0.43623,1,1,0.740185,,0,13,13,172,1,1b,58,1,9,
,,,,,,,,,,,,,,,,,,,,,,,,,,images/exp2a_trial_26_colour2_distractors9_l.png,l,1,036,001,2021-04-26_19h52.58.632,searchDisc4,2020.2.10,Win32,60,,,space,0.38491,1,1,0.48924,,0,14,14,254,1,2a,26,2,9,
,,,,,,,,,,,,,,,,,,,,,,,,,,images/exp2b_trial_43_colour1_distractors43_r.png,r,2,036,001,2021-04-26_19h52.58.632,searchDisc4,2020.2.10,Win32,60,,,space,0.388815,2,1,0.9706,,0,15,15,385,1,2b,43,1,43,
,,,,,,,,,,,,,,,,,,,,,,,,,,images/exp2c_trial_36_colour0_distractors0_r.png,r,2,036,001,2021-04-26_19h52.58.632,searchDisc4,2020.2.10,Win32,60,,,space,0.25657,2,1,0.457375,,0,16,16,492,1,2c,36,0,0,
,,,,,,,,,,,,,,,,,,,,,,,,,,images/exp1a_trial_41_colour1_distractors19_r.png,r,2,036,001,2021-04-26_19h52.58.632,searchDisc4,2020.2.10,Win32,60,,,space,0.304085,2,1,0.446225,,0,17,17,41,1,1a,41,1,19,
,,,,,,,,,,,,,,,,,,,,,,,,,,images/exp2c_trial_52_colour3_distractors9_r.png,r,2,036,001,2021-04-26_19h52.58.632,searchDisc4,2020.2.10,Win32,60,,,space,0.276745,2,1,0.634125,,0,18,18,508,1,2c,52,3,9,
,,,,,,,,,,,,,,,,,,,,,,,,,,images/exp1a_trial_66_colour2_distractors31_l.png,l,1,036,001,2021-04-26_19h52.58.632,searchDisc4,2020.2.10,Win32,60,,,space,0.27113,1,1,1.65489,,0,19,19,66,1,1a,66,2,31,
,,,,,,,,,,,,,,,,,,,,,,,,,,images/exp2c_trial_73_colour3_distractors43_l.png,l,1,036,001,2021-04-26_19h52.58.632,searchDisc4,2020.2.10,Win32,60,,,space,0.283035,1,1,0.57815,,0,20,20,529,1,2c,73,3,43,
,,,,,,,,,,,,,,,,,,,,,,,,,,images/exp2c_trial_94_colour1_distractors1_l.png,l,1,036,001,2021-04-26_19h52.58.632,searchDisc4,2020.2.10,Win32,60,,,space,0.279945,1,1,0.520945,,0,21,21,550,1,2c,94,1,1,
,,,,,,,,,,,,,,,,,,,,,,,,,,images/exp1a_trial_46_colour2_distractors9_r.png,r,2,036,001,2021-04-26_19h52.58.632,searchDisc4,2020.2.10,Win32,60,,,space,0.28862,2,1,0.74618,,0,22,22,46,1,1a,46,2,9,
,,,,,,,,,,,,,,,,,,,,,,,,,,images/exp2c_trial_40_colour1_distractors9_r.png,r,2,036,001,2021-04-26_19h52.58.632,searchDisc4,2020.2.10,Win32,60,,,space,0.29573,2,1,0.59511,,0,23,23,496,1,2c,40,1,9,
,,,,,,,,,,,,,,,,,,,,,,,,,,images/exp2b_trial_87_colour2_distractors43_r.png,r,2,036,001,2021-04-26_19h52.58.632,searchDisc4,2020.2.10,Win32,60,,,space,0.29068,2,1,0.558605,,0,24,24,429,1,2b,87,2,43,
,,,,,,,,,,,,,,,,,,,,,,,,,,images/exp1a_trial_77_colour1_distractors4_r.png,r,2,036,001,2021-04-26_19h52.58.632,searchDisc4,2020.2.10,Win32,60,,,space,0.319575,2,1,0.47548,,0,25,25,77,1,1a,77,1,4,
,,,,,,,,,,,,,,,,,,,,,,,,,,images/exp1a_trial_94_colour1_distractors1_l.png,l,1,036,001,2021-04-26_19h52.58.632,searchDisc4,2020.2.10,Win32,60,,,space,0.403515,1,1,0.666305,,0,26,26,94,1,1a,94,1,1,
,,,,,,,,,,,,,,,,,,,,,,,,,,images/exp2b_trial_29_colour2_distractors43_l.png,l,1,036,001,2021-04-26_19h52.58.632,searchDisc4,2020.2.10,Win32,60,,,space,0.34233,1,1,0.71199,,0,27,27,371,1,2b,29,2,43,
,,,,,,,,,,,,,,,,,,,,,,,,,,images/exp2b_trial_75_colour0_distractors0_l.png,l,1,036,001,2021-04-26_19h52.58.632,searchDisc4,2020.2.10,Win32,60,,,space,0.363265,1,1,0.567745,,0,28,28,417,1,2b,75,0,0,
,,,,,,,,,,,,,,,,,,,,,,,,,,images/exp2b_trial_92_colour3_distractors31_r.png,r,2,036,001,2021-04-26_19h52.58.632,searchDisc4,2020.2.10,Win32,60,,,space,0.418695,2,1,0.942095,,0,29,29,434,1,2b,92,3,31,
,,,,,,,,,,,,,,,,,,,,,,,,,,images/exp2b_trial_110_colour3_distractors31_l.png,l,1,036,001,2021-04-26_19h52.58.632,searchDisc4,2020.2.10,Win32,60,,,space,0.33835,1,1,0.636215,,0,30,30,452,1,2b,110,3,31,
,,,,,,,,,,,,,,,,,,,,,,,,,,images/exp1b_trial_75_colour0_distractors0_l.png,l,1,036,001,2021-04-26_19h52.58.632,searchDisc4,2020.2.10,Win32,60,,,space,0.368305,1,1,0.77251,,0,31,31,189,1,1b,75,0,0,
,,,,,,,,,,,,,,,,,,,,,,,,,,images/exp1a_trial_80_colour1_distractors31_r.png,r,2,036,001,2021-04-26_19h52.58.632,searchDisc4,2020.2.10,Win32,60,,,space,0.38755,2,1,0.478905,,0,32,32,80,1,1a,80,1,31,
,,,,,,,,,,,,,,,,,,,,,,,,,,images/exp1a_trial_86_colour2_distractors31_r.png,r,2,036,001,2021-04-26_19h52.58.632,searchDisc4,2020.2.10,Win32,60,,,space,0.42346,2,1,0.660175,,0,33,33,86,1,1a,86,2,31,
,,,,,,,,,,,,,,,,,,,,,,,,,,images/exp1b_trial_28_colour2_distractors31_l.png,l,1,036,001,2021-04-26_19h52.58.632,searchDisc4,2020.2.10,Win32,60,,,space,0.4166,1,1,0.646695,,0,34,34,142,1,1b,28,2,31,
,,,,,,,,,,,,,,,,,,,,,,,,,,images/exp1a_trial_79_colour1_distractors19_r.png,r,2,036,001,2021-04-26_19h52.58.632,searchDisc4,2020.2.10,Win32,60,,,space,0.300205,2,1,0.59598,,0,35,35,79,1,1a,79,1,19,
,,,,,,,,,,,,,,,,,,,,,,,,,,images/exp2c_trial_105_colour2_distractors43_l.png,l,1,036,001,2021-04-26_19h52.58.632,searchDisc4,2020.2.10,Win32,60,,,space,0.30753,1,1,1.17699,,0,36,36,561,1,2c,105,2,43,
,,,,,,,,,,,,,,,,,,,,,,,,,,images/exp2b_trial_1_colour1_distractors4_r.png,r,2,036,001,2021-04-26_19h52.58.632,searchDisc4,2020.2.10,Win32,60,,,space,0.328645,2,1,0.5509,,0,37,37,343,1,2b,1,1,4,
,,,,,,,,,,,,,,,,,,,,,,,,,,images/exp2a_trial_28_colour2_distractors31_l.png,l,1,036,001,2021-04-26_19h52.58.632,searchDisc4,2020.2.10,Win32,60,,,space,0.37176,1,1,0.511775,,0,38,38,256,1,2a,28,2,31,
,,,,,,,,,,,,,,,,,,,,,,,,,,images/exp2b_trial_36_colour0_distractors0_r.png,r,2,036,001,2021-04-26_19h52.58.632,searchDisc4,2020.2.10,Win32,60,,,space,0.38107,2,1,0.471055,,0,39,39,378,1,2b,36,0,0,
,,,,,,,,,,,,,,,,,,,,,,,,,,images/exp1b_trial_72_colour3_distractors31_l.png,l,1,036,001,2021-04-26_19h52.58.632,searchDisc4,2020.2.10,Win32,60,,,space,0.355705,1,1,1.08712,,0,40,40,186,1,1b,72,3,31,
,,,,,,,,,,,,,,,,,,,,,,,,,,images/exp2a_trial_37_colour0_distractors0_l.png,l,1,036,001,2021-04-26_19h52.58.632,searchDisc4,2020.2.10,Win32,60,,,space,0.30972,1,1,0.55682,,0,41,41,265,1,2a,37,0,0,
,,,,,,,,,,,,,,,,,,,,,,,,,,images/exp2c_trial_51_colour3_distractors4_r.png,r,2,036,001,2021-04-26_19h52.58.632,searchDisc4,2020.2.10,Win32,60,,,space,0.32238,1,0,0.53694,,0,42,42,507,1,2c,51,3,4,
,,,,,,,,,,,,,,,,,,,,,,,,,,images/exp1b_trial_112_colour0_distractors0_r.png,r,2,036,001,2021-04-26_19h52.58.632,searchDisc4,2020.2.10,Win32,60,,,space,0.581315,2,1,0.754,,0,43,43,226,1,1b,112,0,0,
,,,,,,,,,,,,,,,,,,,,,,,,,,images/exp2b_trial_26_colour2_distractors9_l.png,l,1,036,001,2021-04-26_19h52.58.632,searchDisc4,2020.2.10,Win32,60,,,space,0.35147,1,1,0.536105,,0,44,44,368,1,2b,26,2,9,
,,,,,,,,,,,,,,,,,,,,,,,,,,images/exp2c_trial_89_colour3_distractors4_r.png,r,2,036,001,2021-04-26_19h52.58.632,searchDisc4,2020.2.10,Win32,60,,,space,0.33538,2,1,0.64694,,0,45,45,545,1,2c,89,3,4,
,,,,,,,,,,,,,,,,,,,,,,,,,,images/exp1b_trial_6_colour2_distractors1_r.png,r,2,036,001,2021-04-26_19h52.58.632,searchDisc4,2020.2.10,Win32,60,,,space,0.291085,2,1,0.62085,,0,46,46,120,1,1b,6,2,1,
,,,,,,,,,,,,,,,,,,,,,,,,,,images/exp1b_trial_18_colour1_distractors1_l.png,l,1,036,001,2021-04-26_19h52.58.632,searchDisc4,2020.2.10,Win32,60,,,space,0.321995,1,1,0.55956,,0,47,47,132,1,1b,18,1,1,
,,,,,,,,,,,,,,,,,,,,,,,,,,images/exp2c_trial_76_colour1_distractors1_r.png,r,2,036,001,2021-04-26_19h52.58.632,searchDisc4,2020.2.10,Win32,60,,,space,0.331005,2,1,0.526855,,0,48,48,532,1,2c,76,1,1,
,,,,,,,,,,,,,,,,,,,,,,,,,,images/exp2a_trial_24_colour2_distractors1_l.png,l,1,036,001,2021-04-26_19h52.58.632,searchDisc4,2020.2.10,Win32,60,,,space,0.31469,1,1,0.416655,,0,49,49,252,1,2a,24,2,1,
,,,,,,,,,,,,,,,,,,,,,,,,,,images/exp1a_trial_6_colour2_distractors1_r.png,r,2,036,001,2021-04-26_19h52.58.632,searchDisc4,2020.2.10,Win32,60,,,space,0.288705,2,1,0.74681,,0,50,50,6,1,1a,6,2,1,
,,,,,,,,,,,,,,,,,,,,,,,,,,images/exp2a_trial_80_colour1_distractors31_r.png,r,2,036,001,2021-04-26_19h52.58.632,searchDisc4,2020.2.10,Win32,60,,,space,0.4983,2,1,0.581665,,0,51,51,308,1,2a,80,1,31,
,,,,,,,,,,,,,,,,,,,,,,,,,,images/exp1a_trial_95_colour1_distractors4_l.png,l,1,036,001,2021-04-26_19h52.58.632,searchDisc4,2020.2.10,Win32,60,,,space,0.31487,1,1,0.55731,,0,52,52,95,1,1a,95,1,4,
,,,,,,,,,,,,,,,,,,,,,,,,,,images/exp1a_trial_31_colour3_distractors4_l.png,l,1,036,001,2021-04-26_19h52.58.632,searchDisc4,2020.2.10,Win32,60,,,space,0.29491,1,1,0.60451,,0,53,53,31,1,1a,31,3,4,
,,,,,,,,,,,,,,,,,,,,,,,,,,images/exp1b_trial_62_colour2_distractors1_l.png,l,1,036,001,2021-04-26_19h52.58.632,searchDisc4,2020.2.10,Win32,60,,,space,0.321655,1,1,1.46201,,0,54,54,176,1,1b,62,2,1,
,,,,,,,,,,,,,,,,,,,,,,,,,,images/exp2c_trial_74_colour0_distractors0_r.png,r,2,036,001,2021-04-26_19h52.58.632,searchDisc4,2020.2.10,Win32,60,,,space,0.319625,2,1,0.990725,,0,55,55,530,1,2c,74,0,0,
,,,,,,,,,,,,,,,,,,,,,,,,,,images/exp1a_trial_27_colour2_distractors19_l.png,l,1,036,001,2021-04-26_19h52.58.632,searchDisc4,2020.2.10,Win32,60,,,space,0.28645,1,1,1.435495,,0,56,56,27,1,1a,27,2,19,
,,,,,,,,,,,,,,,,,,,,,,,,,,images/exp2c_trial_54_colour3_distractors31_r.png,r,2,036,001,2021-04-26_19h52.58.632,searchDisc4,2020.2.10,Win32,60,,,space,0.238355,2,1,0.693715,,0,57,57,510,1,2c,54,3,31,
,,,,,,,,,,,,,,,,,,,,,,,,,,images/exp1b_trial_66_colour2_distractors31_l.png,l,1,036,001,2021-04-26_19h52.58.632,searchDisc4,2020.2.10,Win32,60,,,space,0.17513,1,1,1.012465,,0,58,58,180,1,1b,66,2,31,
,,,,,,,,,,,,,,,,,,,,,,,,,,images/exp2a_trial_53_colour3_distractors19_r.png,r,2,036,001,2021-04-26_19h52.58.632,searchDisc4,2020.2.10,Win32,60,,,space,0.27842,2,1,0.6838,space,0,59,59,281,1,2a,53,3,19,4.103065
,,,,,,,,,,,,,,,,,,,,,,,,,,images/exp2c_trial_38_colour1_distractors1_r.png,r,2,036,001,2021-04-26_19h52.58.632,searchDisc4,2020.2.10,Win32,60,,,space,0.628745,2,1,0.711785,,0,60,60,494,1,2c,38,1,1,
,,,,,,,,,,,,,,,,,,,,,,,,,,images/exp2b_trial_68_colour3_distractors1_l.png,l,1,036,001,2021-04-26_19h52.58.632,searchDisc4,2020.2.10,Win32,60,,,space,0.256275,1,1,0.698435,,0,61,61,410,1,2b,68,3,1,
,,,,,,,,,,,,,,,,,,,,,,,,,,images/exp2b_trial_48_colour2_distractors31_r.png,r,2,036,001,2021-04-26_19h52.58.632,searchDisc4,2020.2.10,Win32,60,,,space,0.24188,2,1,0.54002,,0,62,62,390,1,2b,48,2,31,
,,,,,,,,,,,,,,,,,,,,,,,,,,images/exp2b_trial_0_colour1_distractors1_r.png,r,2,036,001,2021-04-26_19h52.58.632,searchDisc4,2020.2.10,Win32,60,,,space,0.24324,2,1,0.80746,,0,63,63,342,1,2b,0,1,1,
,,,,,,,,,,,,,,,,,,,,,,,,,,images/exp2a_trial_72_colour3_distractors31_l.png,l,1,036,001,2021-04-26_19h52.58.632,searchDisc4,2020.2.10,Win32,60,,,space,0.26232,1,1,0.58876,,0,64,64,300,1,2a,72,3,31,
,,,,,,,,,,,,,,,,,,,,,,,,,,images/exp1b_trial_9_colour2_distractors19_r.png,r,2,036,001,2021-04-26_19h52.58.632,searchDisc4,2020.2.10,Win32,60,,,space,0.521935,2,1,1.086115,,0,65,65,123,1,1b,9,2,19,
,,,,,,,,,,,,,,,,,,,,,,,,,,images/exp1b_trial_14_colour3_distractors9_r.png,r,2,036,001,2021-04-26_19h52.58.632,searchDisc4,2020.2.10,Win32,60,,,space,0.261015,2,1,0.5394,,0,66,66,128,1,1b,14,3,9,
,,,,,,,,,,,,,,,,,,,,,,,,,,images/exp1a_trial_8_colour2_distractors9_r.png,r,2,036,001,2021-04-26_19h52.58.632,searchDisc4,2020.2.10,Win32,60,,,space,0.258505,2,1,0.64683,,0,67,67,8,1,1a,8,2,9,
,,,,,,,,,,,,,,,,,,,,,,,,,,images/exp2b_trial_8_colour2_distractors9_r.png,r,2,036,001,2021-04-26_19h52.58.632,searchDisc4,2020.2.10,Win32,60,,,space,0.292505,2,1,0.50393,,0,68,68,350,1,2b,8,2,9,
,,,,,,,,,,,,,,,,,,,,,,,,,,images/exp1a_trial_113_colour0_distractors0_l.png,l,1,036,001,2021-04-26_19h52.58.632,searchDisc4,2020.2.10,Win32,60,,,space,0.331655,1,1,0.52757,,0,69,69,113,1,1a,113,0,0,
,,,,,,,,,,,,,,,,,,,,,,,,,,images/exp1a_trial_87_colour2_distractors43_r.png,r,2,036,001,2021-04-26_19h52.58.632,searchDisc4,2020.2.10,Win32,60,,,space,0.305655,2,1,2.734635,,0,70,70,87,1,1a,87,2,43,
,,,,,,,,,,,,,,,,,,,,,,,,,,images/exp2c_trial_48_colour2_distractors31_r.png,r,2,036,001,2021-04-26_19h52.58.632,searchDisc4,2020.2.10,Win32,60,,,space,0.30238,2,1,0.656845,,0,71,71,504,1,2c,48,2,31,
,,,,,,,,,,,,,,,,,,,,,,,,,,images/exp2b_trial_69_colour3_distractors4_l.png,l,1,036,001,2021-04-26_19h52.58.632,searchDisc4,2020.2.10,Win32,60,,,space,0.33023,1,1,0.517095,,0,72,72,411,1,2b,69,3,4,
,,,,,,,,,,,,,,,,,,,,,,,,,,images/exp2b_trial_58_colour1_distractors9_l.png,l,1,036,001,2021-04-26_19h52.58.632,searchDisc4,2020.2.10,Win32,60,,,space,0.30453,1,1,0.46516,,0,73,73,400,1,2b,58,1,9,
,,,,,,,,,,,,,,,,,,,,,,,,,,images/exp1b_trial_104_colour2_distractors31_l.png,l,1,036,001,2021-04-26_19h52.58.632,searchDisc4,2020.2.10,Win32,60,,,space,0.313285,1,1,1.70389,,0,74,74,218,1,1b,104,2,31,
,,,,,,,,,,,,,,,,,,,,,,,,,,images/exp2a_trial_55_colour3_distractors43_r.png,r,2,036,001,2021-04-26_19h52.58.632,searchDisc4,2020.2.10,Win32,60,,,space,0.27163,2,1,0.510375,,0,75,75,283,1,2a,55,3,43,
,,,,,,,,,,,,,,,,,,,,,,,,,,images/exp2a_trial_94_colour1_distractors1_l.png,l,1,036,001,2021-04-26_19h52.58.632,searchDisc4,2020.2.10,Win32,60,,,space,0.28597,1,1,0.4893,,0,76,76,322,1,2a,94,1,1,
,,,,,,,,,,,,,,,,,,,,,,,,,,images/exp2b_trial_111_colour3_distractors43_l.png,l,1,036,001,2021-04-26_19h52.58.632,searchDisc4,2020.2.10,Win32,60,,,space,0.291955,1,1,0.89838,,0,77,77,453,1,2b,111,3,43,
,,,,,,,,,,,,,,,,,,,,,,,,,,images/exp1b_trial_13_colour3_distractors4_r.png,r,2,036,001,2021-04-26_19h52.58.632,searchDisc4,2020.2.10,Win32,60,,,space,0.314515,2,1,0.481945,,0,78,78,127,1,1b,13,3,4,
,,,,,,,,,,,,,,,,,,,,,,,,,,images/exp2b_trial_80_colour1_distractors31_r.png,r,2,036,001,2021-04-26_19h52.58.632,searchDisc4,2020.2.10,Win32,60,,,space,0.326535,2,1,0.589965,,0,79,79,422,1,2b,80,1,31,
,,,,,,,,,,,,,,,,,,,,,,,,,,images/exp2c_trial_77_colour1_distractors4_r.png,r,2,036,001,2021-04-26_19h52.58.632,searchDisc4,2020.2.10,Win32,60,,,space,0.307425,2,1,0.4675,,0,80,80,533,1,2c,77,1,4,
,,,,,,,,,,,,,,,,,,,,,,,,,,images/exp2b_trial_83_colour2_distractors4_r.png,r,2,036,001,2021-04-26_19h52.58.632,searchDisc4,2020.2.10,Win32,60,,,space,0.311895,2,1,0.91193,,0,81,81,425,1,2b,83,2,4,
,,,,,,,,,,,,,,,,,,,,,,,,,,images/exp1b_trial_26_colour2_distractors9_l.png,l,1,036,001,2021-04-26_19h52.58.632,searchDisc4,2020.2.10,Win32,60,,,space,0.29528,1,1,0.836605,,0,82,82,140,1,1b,26,2,9,
,,,,,,,,,,,,,,,,,,,,,,,,,,images/exp2c_trial_34_colour3_distractors31_l.png,l,1,036,001,2021-04-26_19h52.58.632,searchDisc4,2020.2.10,Win32,60,,,space,0.31076,1,1,0.568285,,0,83,83,490,1,2c,34,3,31,
,,,,,,,,,,,,,,,,,,,,,,,,,,images/exp2b_trial_20_colour1_distractors9_l.png,l,1,036,001,2021-04-26_19h52.58.632,searchDisc4,2020.2.10,Win32,60,,,space,0.324815,1,1,0.548695,,0,84,84,362,1,2b,20,1,9,
,,,,,,,,,,,,,,,,,,,,,,,,,,images/exp1b_trial_64_colour2_distractors9_l.png,l,1,036,001,2021-04-26_19h52.58.632,searchDisc4,2020.2.10,Win32,60,,,space,0.33812,1,1,0.72699,,0,85,85,178,1,1b,64,2,9,
,,,,,,,,,,,,,,,,,,,,,,,,,,images/exp2c_trial_57_colour1_distractors4_l.png,l,1,036,001,2021-04-26_19h52.58.632,searchDisc4,2020.2.10,Win32,60,,,space,0.34046,1,1,0.496865,,0,86,86,513,1,2c,57,1,4,
,,,,,,,,,,,,,,,,,,,,,,,,,,images/exp2b_trial_85_colour2_distractors19_r.png,r,2,036,001,2021-04-26_19h52.58.632,searchDisc4,2020.2.10,Win32,60,,,space,0.375755,2,1,0.5173,,0,87,87,427,1,2b,85,2,19,
,,,,,,,,,,,,,,,,,,,,,,,,,,images/exp1b_trial_108_colour3_distractors9_l.png,l,1,036,001,2021-04-26_19h52.58.632,searchDisc4,2020.2.10,Win32,60,,,space,0.34479,1,1,0.939865,,0,88,88,222,1,1b,108,3,9,
,,,,,,,,,,,,,,,,,,,,,,,,,,images/exp1b_trial_91_colour3_distractors19_r.png,r,2,036,001,2021-04-26_19h52.58.632,searchDisc4,2020.2.10,Win32,60,,,space,0.304035,2,1,2.290875,,0,89,89,205,1,1b,91,3,19,
,,,,,,,,,,,,,,,,,,,,,,,,,,images/exp2c_trial_111_colour3_distractors43_l.png,l,1,036,001,2021-04-26_19h52.58.632,searchDisc4,2020.2.10,Win32,60,,,space,0.33343,1,1,0.52805,,0,90,90,567,1,2c,111,3,43,
,,,,,,,,,,,,,,,,,,,,,,,,,,images/exp2c_trial_7_colour2_distractors4_r.png,r,2,036,001,2021-04-26_19h52.58.632,searchDisc4,2020.2.10,Win32,60,,,space,0.32707,2,1,0.8279,,0,91,91,463,1,2c,7,2,4,
,,,,,,,,,,,,,,,,,,,,,,,,,,images/exp1b_trial_80_colour1_distractors31_r.png,r,2,036,001,2021-04-26_19h52.58.632,searchDisc4,2020.2.10,Win32,60,,,space,0.30539,2,1,0.750165,,0,92,92,194,1,1b,80,1,31,
,,,,,,,,,,,,,,,,,,,,,,,,,,images/exp2c_trial_98_colour1_distractors31_l.png,l,1,036,001,2021-04-26_19h52.58.632,searchDisc4,2020.2.10,Win32,60,,,space,0.339815,1,1,0.55984,,0,93,93,554,1,2c,98,1,31,
,,,,,,,,,,,,,,,,,,,,,,,,,,images/exp2a_trial_89_colour3_distractors4_r.png,r,2,036,001,2021-04-26_19h52.58.632,searchDisc4,2020.2.10,Win32,60,,,space,0.305905,2,1,0.750735,,0,94,94,317,1,2a,89,3,4,
,,,,,,,,,,,,,,,,,,,,,,,,,,images/exp2a_trial_66_colour2_distractors31_l.png,l,1,036,001,2021-04-26_19h52.58.632,searchDisc4,2020.2.10,Win32,60,,,space,0.338555,1,1,0.60022,,0,95,95,294,1,2a,66,2,31,
,,,,,,,,,,,,,,,,,,,,,,,,,,images/exp2c_trial_61_colour1_distractors43_l.png,l,1,036,001,2021-04-26_19h52.58.632,searchDisc4,2020.2.10,Win32,60,,,space,0.304745,1,1,0.562445,,0,96,96,517,1,2c,61,1,43,
,,,,,,,,,,,,,,,,,,,,,,,,,,images/exp2a_trial_85_colour2_distractors19_r.png,r,2,036,001,2021-04-26_19h52.58.632,searchDisc4,2020.2.10,Win32,60,,,space,0.368605,2,1,0.48975,,0,97,97,313,1,2a,85,2,19,
,,,,,,,,,,,,,,,,,,,,,,,,,,images/exp1b_trial_105_colour2_distractors43_l.png,l,1,036,001,2021-04-26_19h52.58.632,searchDisc4,2020.2.10,Win32,60,,,space,0.375275,1,1,1.66209,,0,98,98,219,1,1b,105,2,43,
,,,,,,,,,,,,,,,,,,,,,,,,,,images/exp2c_trial_20_colour1_distractors9_l.png,l,1,036,001,2021-04-26_19h52.58.632,searchDisc4,2020.2.10,Win32,60,,,space,0.303505,1,1,0.467505,,0,99,99,476,1,2c,20,1,9,
,,,,,,,,,,,,,,,,,,,,,,,,,,images/exp2c_trial_88_colour3_distractors1_r.png,r,2,036,001,2021-04-26_19h52.58.632,searchDisc4,2020.2.10,Win32,60,,,space,0.28963,2,1,0.61221,,0,100,100,544,1,2c,88,3,1,
,,,,,,,,,,,,,,,,,,,,,,,,,,images/exp2a_trial_2_colour1_distractors9_r.png,r,2,036,001,2021-04-26_19h52.58.632,searchDisc4,2020.2.10,Win32,60,,,space,0.26812,2,1,1.12988,,0,101,101,230,1,2a,2,1,9,
,,,,,,,,,,,,,,,,,,,,,,,,,,images/exp1b_trial_38_colour1_distractors1_r.png,r,2,036,001,2021-04-26_19h52.58.632,searchDisc4,2020.2.10,Win32,60,,,space,0.29565,2,1,0.536475,,0,102,102,152,1,1b,38,1,1,
,,,,,,,,,,,,,,,,,,,,,,,,,,images/exp2c_trial_60_colour1_distractors31_l.png,l,1,036,001,2021-04-26_19h52.58.632,searchDisc4,2020.2.10,Win32,60,,,space,0.319025,1,1,0.79481,,0,103,103,516,1,2c,60,1,31,
,,,,,,,,,,,,,,,,,,,,,,,,,,images/exp1b_trial_86_colour2_distractors31_r.png,r,2,036,001,2021-04-26_19h52.58.632,searchDisc4,2020.2.10,Win32,60,,,space,0.29515,2,1,1.30689,,0,104,104,200,1,1b,86,2,31,
,,,,,,,,,,,,,,,,,,,,,,,,,,images/exp2c_trial_10_colour2_distractors31_r.png,r,2,036,001,2021-04-26_19h52.58.632,searchDisc4,2020.2.10,Win32,60,,,space,0.25421,2,1,1.01621,,0,105,105,466,1,2c,10,2,31,
,,,,,,,,,,,,,,,,,,,,,,,,,,images/exp1a_trial_30_colour3_distractors1_l.png,l,1,036,001,2021-04-26_19h52.58.632,searchDisc4,2020.2.10,Win32,60,,,space,0.249535,1,1,0.633945,,0,106,106,30,1,1a,30,3,1,
,,,,,,,,,,,,,,,,,,,,,,,,,,images/exp2a_trial_33_colour3_distractors19_l.png,l,1,036,001,2021-04-26_19h52.58.632,searchDisc4,2020.2.10,Win32,60,,,space,0.31194,1,1,0.656555,,0,107,107,261,1,2a,33,3,19,
,,,,,,,,,,,,,,,,,,,,,,,,,,images/exp2a_trial_25_colour2_distractors4_l.png,l,1,036,001,2021-04-26_19h52.58.632,searchDisc4,2020.2.10,Win32,60,,,space,0.29605,1,1,0.515585,,0,108,108,253,1,2a,25,2,4,
,,,,,,,,,,,,,,,,,,,,,,,,,,images/exp2a_trial_7_colour2_distractors4_r.png,r,2,036,001,2021-04-26_19h52.58.632,searchDisc4,2020.2.10,Win32,60,,,space,0.330615,2,1,0.50109,,0,109,109,235,1,2a,7,2,4,
,,,,,,,,,,,,,,,,,,,,,,,,,,images/exp2a_trial_68_colour3_distractors1_l.png,l,1,036,001,2021-04-26_19h52.58.632,searchDisc4,2020.2.10,Win32,60,,,space,0.316645,1,1,0.40148,,0,110,110,296,1,2a,68,3,1,
,,,,,,,,,,,,,,,,,,,,,,,,,,images/exp2c_trial_43_colour1_distractors43_r.png,r,2,036,001,2021-04-26_19h52.58.632,searchDisc4,2020.2.10,Win32,60,,,space,0.32386,2,1,0.45483,,0,111,111,499,1,2c,43,1,43,
,,,,,,,,,,,,,,,,,,,,,,,,,,images/exp2a_trial_77_colour1_distractors4_r.png,r,2,036,001,2021-04-26_19h52.58.632,searchDisc4,2020.2.10,Win32,60,,,space,0.278615,2,1,0.562265,,0,112,112,305,1,2a,77,1,4,
,,,,,,,,,,,,,,,,,,,,,,,,,,images/exp2c_trial_44_colour2_distractors1_r.png,r,2,036,001,2021-04-26_19h52.58.632,searchDisc4,2020.2.10,Win32,60,,,space,0.26756,2,1,0.46229,,0,113,113,500,1,2c,44,2,1,
,,,,,,,,,,,,,,,,,,,,,,,,,,images/exp1b_trial_34_colour3_distractors31_l.png,l,1,036,001,2021-04-26_19h52.58.632,searchDisc4,2020.2.10,Win32,60,,,space,0.28977,1,1,1.502135,,0,114,114,148,1,1b,34,3,31,
,,,,,,,,,,,,,,,,,,,,,,,,,,images/exp2b_trial_86_colour2_distractors31_r.png,r,2,036,001,2021-04-26_19h52.58.632,searchDisc4,2020.2.10,Win32,60,,,space,0.274295,2,1,0.527405,,0,115,115,428,1,2b,86,2,31,
,,,,,,,,,,,,,,,,,,,,,,,,,,images/exp2c_trial_97_colour1_distractors19_l.png,l,1,036,001,2021-04-26_19h52.58.632,searchDisc4,2020.2.10,Win32,60,,,space,0.27762,1,1,0.594485,,0,116,116,553,1,2c,97,1,19,
,,,,,,,,,,,,,,,,,,,,,,,,,,images/exp1a_trial_26_colour2_distractors9_l.png,l,1,036,001,2021-04-26_19h52.58.632,searchDisc4,2020.2.10,Win32,60,,,space,0.29662,1,1,1.49707,,0,117,117,26,1,1a,26,2,9,
,,,,,,,,,,,,,,,,,,,,,,,,,,images/exp2a_trial_36_colour0_distractors0_r.png,r,2,036,001,2021-04-26_19h52.58.632,searchDisc4,2020.2.10,Win32,60,,,space,0.30882,2,1,0.59091,,0,118,118,264,1,2a,36,0,0,
,,,,,,,,,,,,,,,,,,,,,,,,,,images/exp1b_trial_31_colour3_distractors4_l.png,l,1,036,001,2021-04-26_19h52.58.632,searchDisc4,2020.2.10,Win32,60,,,space,0.33533,1,1,0.885555,space,0,119,119,145,1,1b,31,3,4,0.31222
,,,,,,,,,,,,,,,,,,,,,,,,,,images/exp1a_trial_28_colour2_distractors31_l.png,l,1,036,001,2021-04-26_19h52.58.632,searchDisc4,2020.2.10,Win32,60,,,space,1.02133,1,1,2.24629,,0,120,120,28,1,1a,28,2,31,
,,,,,,,,,,,,,,,,,,,,,,,,,,images/exp2b_trial_28_colour2_distractors31_l.png,l,1,036,001,2021-04-26_19h52.58.632,searchDisc4,2020.2.10,Win32,60,,,space,0.299655,1,1,0.460705,,0,121,121,370,1,2b,28,2,31,
,,,,,,,,,,,,,,,,,,,,,,,,,,images/exp2c_trial_16_colour3_distractors31_r.png,r,2,036,001,2021-04-26_19h52.58.632,searchDisc4,2020.2.10,Win32,60,,,space,0.26709,2,1,0.438295,,0,122,122,472,1,2c,16,3,31,
,,,,,,,,,,,,,,,,,,,,,,,,,,images/exp1a_trial_82_colour2_distractors1_r.png,r,2,036,001,2021-04-26_19h52.58.632,searchDisc4,2020.2.10,Win32,60,,,space,0.30402,2,1,0.60107,,0,123,123,82,1,1a,82,2,1,
,,,,,,,,,,,,,,,,,,,,,,,,,,images/exp1a_trial_11_colour2_distractors43_r.png,r,2,036,001,2021-04-26_19h52.58.632,searchDisc4,2020.2.10,Win32,60,,,space,0.29736,2,1,0.49298,,0,124,124,11,1,1a,11,2,43,
,,,,,,,,,,,,,,,,,,,,,,,,,,images/exp2b_trial_50_colour3_distractors1_r.png,r,2,036,001,2021-04-26_19h52.58.632,searchDisc4,2020.2.10,Win32,60,,,space,0.312915,2,1,0.48689,,0,125,125,392,1,2b,50,3,1,
,,,,,,,,,,,,,,,,,,,,,,,,,,images/exp2c_trial_112_colour0_distractors0_r.png,r,2,036,001,2021-04-26_19h52.58.632,searchDisc4,2020.2.10,Win32,60,,,space,0.291735,2,1,0.606885,,0,126,126,568,1,2c,112,0,0,
,,,,,,,,,,,,,,,,,,,,,,,,,,images/exp2a_trial_98_colour1_distractors31_l.png,l,1,036,001,2021-04-26_19h52.58.632,searchDisc4,2020.2.10,Win32,60,,,space,0.27098,1,1,0.729815,,0,127,127,326,1,2a,98,1,31,
,,,,,,,,,,,,,,,,,,,,,,,,,,images/exp1b_trial_95_colour1_distractors4_l.png,l,1,036,001,2021-04-26_19h52.58.632,searchDisc4,2020.2.10,Win32,60,,,space,0.31273,1,1,0.591635,,0,128,128,209,1,1b,95,1,4,
,,,,,,,,,,,,,,,,,,,,,,,,,,images/exp1b_trial_11_colour2_distractors43_r.png,r,2,036,001,2021-04-26_19h52.58.632,searchDisc4,2020.2.10,Win32,60,,,space,0.262015,2,1,0.5509,,0,129,129,125,1,1b,11,2,43,
,,,,,,,,,,,,,,,,,,,,,,,,,,images/exp2a_trial_40_colour1_distractors9_r.png,r,2,036,001,2021-04-26_19h52.58.632,searchDisc4,2020.2.10,Win32,60,,,space,0.295385,2,1,0.479755,,0,130,130,268,1,2a,40,1,9,
,,,,,,,,,,,,,,,,,,,,,,,,,,images/exp1b_trial_110_colour3_distractors31_l.png,l,1,036,001,2021-04-26_19h52.58.632,searchDisc4,2020.2.10,Win32,60,,,space,0.271135,1,1,1.34462,,0,131,131,224,1,1b,110,3,31,
,,,,,,,,,,,,,,,,,,,,,,,,,,images/exp1a_trial_32_colour3_distractors9_l.png,l,1,036,001,2021-04-26_19h52.58.632,searchDisc4,2020.2.10,Win32,60,,,space,0.37183,1,1,0.426535,,0,132,132,32,1,1a,32,3,9,
,,,,,,,,,,,,,,,,,,,,,,,,,,images/exp1b_trial_94_colour1_distractors1_l.png,l,1,036,001,2021-04-26_19h52.58.632,searchDisc4,2020.2.10,Win32,60,,,space,0.319605,1,1,0.50408,,0,133,133,208,1,1b,94,1,1,
,,,,,,,,,,,,,,,,,,,,,,,,,,images/exp1a_trial_109_colour3_distractors19_l.png,l,1,036,001,2021-04-26_19h52.58.632,searchDisc4,2020.2.10,Win32,60,,,space,0.2967,1,1,0.47237,,0,134,134,109,1,1a,109,3,19,
,,,,,,,,,,,,,,,,,,,,,,,,,,images/exp1b_trial_49_colour2_distractors43_r.png,r,2,036,001,2021-04-26_19h52.58.632,searchDisc4,2020.2.10,Win32,60,,,space,0.33334,2,1,3.38737,,0,135,135,163,1,1b,49,2,43,
,,,,,,,,,,,,,,,,,,,,,,,,,,images/exp1b_trial_111_colour3_distractors43_l.png,l,1,036,001,2021-04-26_19h52.58.632,searchDisc4,2020.2.10,Win32,60,,,space,0.247405,1,1,0.989765,,0,136,136,225,1,1b,111,3,43,
,,,,,,,,,,,,,,,,,,,,,,,,,,images/exp2b_trial_93_colour3_distractors43_r.png,r,2,036,001,2021-04-26_19h52.58.632,searchDisc4,2020.2.10,Win32,60,,,space,0.239145,2,1,1.294805,,0,137,137,435,1,2b,93,3,43,
,,,,,,,,,,,,,,,,,,,,,,,,,,images/exp1a_trial_18_colour1_distractors1_l.png,l,1,036,001,2021-04-26_19h52.58.632,searchDisc4,2020.2.10,Win32,60,,,space,0.248825,1,1,0.61362,,0,138,138,18,1,1a,18,1,1,
,,,,,,,,,,,,,,,,,,,,,,,,,,images/exp2b_trial_71_colour3_distractors19_l.png,l,1,036,001,2021-04-26_19h52.58.632,searchDisc4,2020.2.10,Win32,60,,,space,0.2716,1,1,0.477825,,0,139,139,413,1,2b,71,3,19,
,,,,,,,,,,,,,,,,,,,,,,,,,,images/exp1b_trial_30_colour3_distractors1_l.png,l,1,036,001,2021-04-26_19h52.58.632,searchDisc4,2020.2.10,Win32,60,,,space,0.28444,1,1,0.8773,,0,140,140,144,1,1b,30,3,1,
,,,,,,,,,,,,,,,,,,,,,,,,,,images/exp1a_trial_68_colour3_distractors1_l.png,l,1,036,001,2021-04-26_19h52.58.632,searchDisc4,2020.2.10,Win32,60,,,space,0.29931,1,1,0.669105,,0,141,141,68,1,1a,68,3,1,
,,,,,,,,,,,,,,,,,,,,,,,,,,images/exp1a_trial_59_colour1_distractors19_l.png,l,1,036,001,2021-04-26_19h52.58.632,searchDisc4,2020.2.10,Win32,60,,,space,0.31954,1,1,0.576525,,0,142,142,59,1,1a,59,1,19,
,,,,,,,,,,,,,,,,,,,,,,,,,,images/exp2b_trial_89_colour3_distractors4_r.png,r,2,036,001,2021-04-26_19h52.58.632,searchDisc4,2020.2.10,Win32,60,,,space,0.30616,1,0,0.452935,,0,143,143,431,1,2b,89,3,4,
,,,,,,,,,,,,,,,,,,,,,,,,,,images/exp2c_trial_109_colour3_distractors19_l.png,l,1,036,001,2021-04-26_19h52.58.632,searchDisc4,2020.2.10,Win32,60,,,space,0.64932,1,1,0.64641,,0,144,144,565,1,2c,109,3,19,
,,,,,,,,,,,,,,,,,,,,,,,,,,images/exp1b_trial_41_colour1_distractors19_r.png,r,2,036,001,2021-04-26_19h52.58.632,searchDisc4,2020.2.10,Win32,60,,,space,0.303775,2,1,0.638165,,0,145,145,155,1,1b,41,1,19,
,,,,,,,,,,,,,,,,,,,,,,,,,,images/exp2c_trial_4_colour1_distractors31_r.png,r,2,036,001,2021-04-26_19h52.58.632,searchDisc4,2020.2.10,Win32,60,,,space,0.26457,2,1,0.492375,,0,146,146,460,1,2c,4,1,31,
,,,,,,,,,,,,,,,,,,,,,,,,,,images/exp1b_trial_20_colour1_distractors9_l.png,l,1,036,001,2021-04-26_19h52.58.632,searchDisc4,2020.2.10,Win32,60,,,space,0.298425,1,1,0.528435,,0,147,147,134,1,1b,20,1,9,
,,,,,,,,,,,,,,,,,,,,,,,,,,images/exp1a_trial_49_colour2_distractors43_r.png,r,2,036,001,2021-04-26_19h52.58.632,searchDisc4,2020.2.10,Win32,60,,,space,0.30987,2,1,0.49687,,0,148,148,49,1,1a,49,2,43,
,,,,,,,,,,,,,,,,,,,,,,,,,,images/exp1a_trial_99_colour1_distractors43_l.png,l,1,036,001,2021-04-26_19h52.58.632,searchDisc4,2020.2.10,Win32,60,,,space,0.282535,1,1,0.434995,,0,149,149,99,1,1a,99,1,43,
,,,,,,,,,,,,,,,,,,,,,,,,,,images/exp2b_trial_12_colour3_distractors1_r.png,r,2,036,001,2021-04-26_19h52.58.632,searchDisc4,2020.2.10,Win32,60,,,space,0.307105,2,1,0.55668,,0,150,150,354,1,2b,12,3,1,
,,,,,,,,,,,,,,,,,,,,,,,,,,images/exp2c_trial_69_colour3_distractors4_l.png,l,1,036,001,2021-04-26_19h52.58.632,searchDisc4,2020.2.10,Win32,60,,,space,0.296905,1,1,0.493575,,0,151,151,525,1,2c,69,3,4,
,,,,,,,,,,,,,,,,,,,,,,,,,,images/exp2a_trial_110_colour3_distractors31_l.png,l,1,036,001,2021-04-26_19h52.58.632,searchDisc4,2020.2.10,Win32,60,,,space,0.28411,1,1,0.7405,,0,152,152,338,1,2a,110,3,31,
,,,,,,,,,,,,,,,,,,,,,,,,,,images/exp2b_trial_76_colour1_distractors1_r.png,r,2,036,001,2021-04-26_19h52.58.632,searchDisc4,2020.2.10,Win32,60,,,space,0.32594,2,1,0.478185,,0,153,153,418,1,2b,76,1,1,
,,,,,,,,,,,,,,,,,,,,,,,,,,images/exp2a_trial_71_colour3_distractors19_l.png,l,1,036,001,2021-04-26_19h52.58.632,searchDisc4,2020.2.10,Win32,60,,,space,0.30575,1,1,0.525475,,0,154,154,299,1,2a,71,3,19,
,,,,,,,,,,,,,,,,,,,,,,,,,,images/exp1b_trial_85_colour2_distractors19_r.png,r,2,036,001,2021-04-26_19h52.58.632,searchDisc4,2020.2.10,Win32,60,,,space,0.301015,2,1,2.236525,,0,155,155,199,1,1b,85,2,19,
,,,,,,,,,,,,,,,,,,,,,,,,,,images/exp1a_trial_78_colour1_distractors9_r.png,r,2,036,001,2021-04-26_19h52.58.632,searchDisc4,2020.2.10,Win32,60,,,space,0.2194,2,1,0.43439,,0,156,156,78,1,1a,78,1,9,
,,,,,,,,,,,,,,,,,,,,,,,,,,images/exp1b_trial_99_colour1_distractors43_l.png,l,1,036,001,2021-04-26_19h52.58.632,searchDisc4,2020.2.10,Win32,60,,,space,0.24572,1,1,1.00188,,0,157,157,213,1,1b,99,1,43,
,,,,,,,,,,,,,,,,,,,,,,,,,,images/exp2a_trial_73_colour3_distractors43_l.png,l,1,036,001,2021-04-26_19h52.58.632,searchDisc4,2020.2.10,Win32,60,,,space,0.299515,1,1,0.659595,,0,158,158,301,1,2a,73,3,43,
,,,,,,,,,,,,,,,,,,,,,,,,,,images/exp1b_trial_51_colour3_distractors4_r.png,r,2,036,001,2021-04-26_19h52.58.632,searchDisc4,2020.2.10,Win32,60,,,space,0.2918,2,1,0.871495,,0,159,159,165,1,1b,51,3,4,
,,,,,,,,,,,,,,,,,,,,,,,,,,images/exp2a_trial_101_colour2_distractors4_l.png,l,1,036,001,2021-04-26_19h52.58.632,searchDisc4,2020.2.10,Win32,60,,,space,0.262245,1,1,0.541345,,0,160,160,329,1,2a,101,2,4,
,,,,,,,,,,,,,,,,,,,,,,,,,,images/exp1a_trial_110_colour3_distractors31_l.png,l,1,036,001,2021-04-26_19h52.58.632,searchDisc4,2020.2.10,Win32,60,,,space,0.299665,1,1,0.499885,,0,161,161,110,1,1a,110,3,31,
,,,,,,,,,,,,,,,,,,,,,,,,,,images/exp2a_trial_12_colour3_distractors1_r.png,r,2,036,001,2021-04-26_19h52.58.632,searchDisc4,2020.2.10,Win32,60,,,space,0.325035,2,1,0.64081,,0,162,162,240,1,2a,12,3,1,
,,,,,,,,,,,,,,,,,,,,,,,,,,images/exp2c_trial_6_colour2_distractors1_r.png,r,2,036,001,2021-04-26_19h52.58.632,searchDisc4,2020.2.10,Win32,60,,,space,0.273415,2,1,0.460715,,0,163,163,462,1,2c,6,2,1,
,,,,,,,,,,,,,,,,,,,,,,,,,,images/exp2a_trial_105_colour2_distractors43_l.png,l,1,036,001,2021-04-26_19h52.58.632,searchDisc4,2020.2.10,Win32,60,,,space,0.359565,1,1,0.517365,,0,164,164,333,1,2a,105,2,43,
,,,,,,,,,,,,,,,,,,,,,,,,,,images/exp2b_trial_54_colour3_distractors31_r.png,r,2,036,001,2021-04-26_19h52.58.632,searchDisc4,2020.2.10,Win32,60,,,space,0.347465,2,1,1.109335,,0,165,165,396,1,2b,54,3,31,
,,,,,,,,,,,,,,,,,,,,,,,,,,images/exp2a_trial_49_colour2_distractors43_r.png,r,2,036,001,2021-04-26_19h52.58.632,searchDisc4,2020.2.10,Win32,60,,,space,0.297465,2,1,0.670435,,0,166,166,277,1,2a,49,2,43,
,,,,,,,,,,,,,,,,,,,,,,,,,,images/exp1b_trial_79_colour1_distractors19_r.png,r,2,036,001,2021-04-26_19h52.58.632,searchDisc4,2020.2.10,Win32,60,,,space,0.265495,2,1,0.477995,,0,167,167,193,1,1b,79,1,19,
,,,,,,,,,,,,,,,,,,,,,,,,,,images/exp2c_trial_84_colour2_distractors9_r.png,r,2,036,001,2021-04-26_19h52.58.632,searchDisc4,2020.2.10,Win32,60,,,space,0.26759,2,1,0.66105,,0,168,168,540,1,2c,84,2,9,
,,,,,,,,,,,,,,,,,,,,,,,,,,images/exp1b_trial_87_colour2_distractors43_r.png,r,2,036,001,2021-04-26_19h52.58.632,searchDisc4,2020.2.10,Win32,60,,,space,0.224755,2,1,0.667985,,0,169,169,201,1,1b,87,2,43,
,,,,,,,,,,,,,,,,,,,,,,,,,,images/exp2a_trial_45_colour2_distractors4_r.png,r,2,036,001,2021-04-26_19h52.58.632,searchDisc4,2020.2.10,Win32,60,,,space,0.250185,2,1,0.47158,,0,170,170,273,1,2a,45,2,4,
,,,,,,,,,,,,,,,,,,,,,,,,,,images/exp2a_trial_13_colour3_distractors4_r.png,r,2,036,001,2021-04-26_19h52.58.632,searchDisc4,2020.2.10,Win32,60,,,space,0.22414,2,1,0.47495,,0,171,171,241,1,2a,13,3,4,
,,,,,,,,,,,,,,,,,,,,,,,,,,images/exp1a_trial_89_colour3_distractors4_r.png,r,2,036,001,2021-04-26_19h52.58.632,searchDisc4,2020.2.10,Win32,60,,,space,0.2349,2,1,0.49553,,0,172,172,89,1,1a,89,3,4,
,,,,,,,,,,,,,,,,,,,,,,,,,,images/exp1a_trial_88_colour3_distractors1_r.png,r,2,036,001,2021-04-26_19h52.58.632,searchDisc4,2020.2.10,Win32,60,,,space,0.23052,2,1,0.42917,,0,173,173,88,1,1a,88,3,1,
,,,,,,,,,,,,,,,,,,,,,,,,,,images/exp1b_trial_65_colour2_distractors19_l.png,l,1,036,001,2021-04-26_19h52.58.632,searchDisc4,2020.2.10,Win32,60,,,space,0.242925,1,1,0.732335,,0,174,174,179,1,1b,65,2,19,
,,,,,,,,,,,,,,,,,,,,,,,,,,images/exp2c_trial_15_colour3_distractors19_r.png,r,2,036,001,2021-04-26_19h52.58.632,searchDisc4,2020.2.10,Win32,60,,,space,0.2483,2,1,0.597305,,0,175,175,471,1,2c,15,3,19,
,,,,,,,,,,,,,,,,,,,,,,,,,,images/exp1b_trial_21_colour1_distractors19_l.png,l,1,036,001,2021-04-26_19h52.58.632,searchDisc4,2020.2.10,Win32,60,,,space,0.241915,1,1,2.03242,,0,176,176,135,1,1b,21,1,19,
,,,,,,,,,,,,,,,,,,,,,,,,,,images/exp1a_trial_33_colour3_distractors19_l.png,l,1,036,001,2021-04-26_19h52.58.632,searchDisc4,2020.2.10,Win32,60,,,space,0.237765,1,1,0.566575,,0,177,177,33,1,1a,33,3,19,
,,,,,,,,,,,,,,,,,,,,,,,,,,images/exp2b_trial_55_colour3_distractors43_r.png,r,2,036,001,2021-04-26_19h52.58.632,searchDisc4,2020.2.10,Win32,60,,,space,0.282185,2,1,0.66223,,0,178,178,397,1,2b,55,3,43,
,,,,,,,,,,,,,,,,,,,,,,,,,,images/exp1b_trial_102_colour2_distractors9_l.png,l,1,036,001,2021-04-26_19h52.58.632,searchDisc4,2020.2.10,Win32,60,,,space,0.24004,1,1,0.56503,space,0,179,179,216,1,1b,102,2,9,2.478115
,,,,,,,,,,,,,,,,,,,,,,,,,,images/exp2c_trial_17_colour3_distractors43_r.png,r,2,036,001,2021-04-26_19h52.58.632,searchDisc4,2020.2.10,Win32,60,,,space,0.815695,2,1,0.58619,,0,180,180,473,1,2c,17,3,43,
,,,,,,,,,,,,,,,,,,,,,,,,,,images/exp2b_trial_106_colour3_distractors1_l.png,l,1,036,001,2021-04-26_19h52.58.632,searchDisc4,2020.2.10,Win32,60,,,space,0.25363,1,1,0.48026,,0,181,181,448,1,2b,106,3,1,
,,,,,,,,,,,,,,,,,,,,,,,,,,images/exp1b_trial_52_colour3_distractors9_r.png,r,2,036,001,2021-04-26_19h52.58.632,searchDisc4,2020.2.10,Win32,60,,,space,0.2678,2,1,0.506885,,0,182,182,166,1,1b,52,3,9,
,,,,,,,,,,,,,,,,,,,,,,,,,,images/exp2c_trial_101_colour2_distractors4_l.png,l,1,036,001,2021-04-26_19h52.58.632,searchDisc4,2020.2.10,Win32,60,,,space,0.31786,1,1,0.79662,,0,183,183,557,1,2c,101,2,4,
,,,,,,,,,,,,,,,,,,,,,,,,,,images/exp2b_trial_103_colour2_distractors19_l.png,l,1,036,001,2021-04-26_19h52.58.632,searchDisc4,2020.2.10,Win32,60,,,space,0.299965,1,1,0.52378,,0,184,184,445,1,2b,103,2,19,
,,,,,,,,,,,,,,,,,,,,,,,,,,images/exp2b_trial_46_colour2_distractors9_r.png,r,2,036,001,2021-04-26_19h52.58.632,searchDisc4,2020.2.10,Win32,60,,,space,0.32479,2,1,0.46996,,0,185,185,388,1,2b,46,2,9,
,,,,,,,,,,,,,,,,,,,,,,,,,,images/exp1a_trial_16_colour3_distractors31_r.png,r,2,036,001,2021-04-26_19h52.58.632,searchDisc4,2020.2.10,Win32,60,,,space,0.275685,2,1,0.56706,,0,186,186,16,1,1a,16,3,31,
,,,,,,,,,,,,,,,,,,,,,,,,,,images/exp1a_trial_51_colour3_distractors4_r.png,r,2,036,001,2021-04-26_19h52.58.632,searchDisc4,2020.2.10,Win32,60,,,space,0.24486,2,1,0.704495,,0,187,187,51,1,1a,51,3,4,
,,,,,,,,,,,,,,,,,,,,,,,,,,images/exp2a_trial_99_colour1_distractors43_l.png,l,1,036,001,2021-04-26_19h52.58.632,searchDisc4,2020.2.10,Win32,60,,,space,0.262445,1,1,0.652,,0,188,188,327,1,2a,99,1,43,
,,,,,,,,,,,,,,,,,,,,,,,,,,images/exp2a_trial_63_colour2_distractors4_l.png,l,1,036,001,2021-04-26_19h52.58.632,searchDisc4,2020.2.10,Win32,60,,,space,0.27134,2,0,0.52096,,0,189,189,291,1,2a,63,2,4,
,,,,,,,,,,,,,,,,,,,,,,,,,,images/exp2c_trial_31_colour3_distractors4_l.png,l,1,036,001,2021-04-26_19h52.58.632,searchDisc4,2020.2.10,Win32,60,,,space,0.55685,1,1,0.52141,,0,190,190,487,1,2c,31,3,4,
,,,,,,,,,,,,,,,,,,,,,,,,,,images/exp2b_trial_104_colour2_distractors31_l.png,l,1,036,001,2021-04-26_19h52.58.632,searchDisc4,2020.2.10,Win32,60,,,space,0.263515,1,1,0.432875,,0,191,191,446,1,2b,104,2,31,
,,,,,,,,,,,,,,,,,,,,,,,,,,images/exp2b_trial_79_colour1_distractors19_r.png,r,2,036,001,2021-04-26_19h52.58.632,searchDisc4,2020.2.10,Win32,60,,,space,0.26993,2,1,0.45094,,0,192,192,421,1,2b,79,1,19,
,,,,,,,,,,,,,,,,,,,,,,,,,,images/exp2c_trial_72_colour3_distractors31_l.png,l,1,036,001,2021-04-26_19h52.58.632,searchDisc4,2020.2.10,Win32,60,,,space,0.26539,1,1,0.527655,,0,193,193,528,1,2c,72,3,31,
,,,,,,,,,,,,,,,,,,,,,,,,,,images/exp2c_trial_41_colour1_distractors19_r.png,r,2,036,001,2021-04-26_19h52.58.632,searchDisc4,2020.2.10,Win32,60,,,space,0.27576,2,1,0.56573,,0,194,194,497,1,2c,41,1,19,
,,,,,,,,,,,,,,,,,,,,,,,,,,images/exp1a_trial_102_colour2_distractors9_l.png,l,1,036,001,2021-04-26_19h52.58.632,searchDisc4,2020.2.10,Win32,60,,,space,0.26132,1,1,0.972785,,0,195,195,102,1,1a,102,2,9,
,,,,,,,,,,,,,,,,,,,,,,,,,,images/exp2c_trial_12_colour3_distractors1_r.png,r,2,036,001,2021-04-26_19h52.58.632,searchDisc4,2020.2.10,Win32,60,,,space,0.275555,2,1,0.58256,,0,196,196,468,1,2c,12,3,1,
,,,,,,,,,,,,,,,,,,,,,,,,,,images/exp2c_trial_78_colour1_distractors9_r.png,r,2,036,001,2021-04-26_19h52.58.632,searchDisc4,2020.2.10,Win32,60,,,space,0.280945,2,1,0.46236,,0,197,197,534,1,2c,78,1,9,
,,,,,,,,,,,,,,,,,,,,,,,,,,images/exp1a_trial_63_colour2_distractors4_l.png,l,1,036,001,2021-04-26_19h52.58.632,searchDisc4,2020.2.10,Win32,60,,,space,0.273145,1,1,0.85441,,0,198,198,63,1,1a,63,2,4,
,,,,,,,,,,,,,,,,,,,,,,,,,,images/exp1a_trial_91_colour3_distractors19_r.png,r,2,036,001,2021-04-26_19h52.58.632,searchDisc4,2020.2.10,Win32,60,,,space,0.271305,2,1,0.64652,,0,199,199,91,1,1a,91,3,19,
,,,,,,,,,,,,,,,,,,,,,,,,,,images/exp1a_trial_75_colour0_distractors0_l.png,l,1,036,001,2021-04-26_19h52.58.632,searchDisc4,2020.2.10,Win32,60,,,space,0.240445,1,1,0.65067,,0,200,200,75,1,1a,75,0,0,
,,,,,,,,,,,,,,,,,,,,,,,,,,images/exp2b_trial_98_colour1_distractors31_l.png,l,1,036,001,2021-04-26_19h52.58.632,searchDisc4,2020.2.10,Win32,60,,,space,0.28526,1,1,0.45829,,0,201,201,440,1,2b,98,1,31,
,,,,,,,,,,,,,,,,,,,,,,,,,,images/exp2b_trial_38_colour1_distractors1_r.png,r,2,036,001,2021-04-26_19h52.58.632,searchDisc4,2020.2.10,Win32,60,,,space,0.29045,2,1,0.64821,,0,202,202,380,1,2b,38,1,1,
,,,,,,,,,,,,,,,,,,,,,,,,,,images/exp2c_trial_49_colour2_distractors43_r.png,r,2,036,001,2021-04-26_19h52.58.632,searchDisc4,2020.2.10,Win32,60,,,space,0.300435,2,1,0.563025,,0,203,203,505,1,2c,49,2,43,
,,,,,,,,,,,,,,,,,,,,,,,,,,images/exp2b_trial_88_colour3_distractors1_r.png,r,2,036,001,2021-04-26_19h52.58.632,searchDisc4,2020.2.10,Win32,60,,,space,0.26556,2,1,0.50665,,0,204,204,430,1,2b,88,3,1,
,,,,,,,,,,,,,,,,,,,,,,,,,,images/exp2c_trial_35_colour3_distractors43_l.png,l,1,036,001,2021-04-26_19h52.58.632,searchDisc4,2020.2.10,Win32,60,,,space,0.260535,1,1,0.46536,,0,205,205,491,1,2c,35,3,43,
,,,,,,,,,,,,,,,,,,,,,,,,,,images/exp1a_trial_56_colour1_distractors1_l.png,l,1,036,001,2021-04-26_19h52.58.632,searchDisc4,2020.2.10,Win32,60,,,space,0.28284,1,1,0.493845,,0,206,206,56,1,1a,56,1,1,
,,,,,,,,,,,,,,,,,,,,,,,,,,images/exp2c_trial_90_colour3_distractors9_r.png,r,2,036,001,2021-04-26_19h52.58.632,searchDisc4,2020.2.10,Win32,60,,,space,0.336215,2,1,0.518685,,0,207,207,546,1,2c,90,3,9,
,,,,,,,,,,,,,,,,,,,,,,,,,,images/exp1b_trial_12_colour3_distractors1_r.png,r,2,036,001,2021-04-26_19h52.58.632,searchDisc4,2020.2.10,Win32,60,,,space,0.318915,2,1,0.49049,,0,208,208,126,1,1b,12,3,1,
,,,,,,,,,,,,,,,,,,,,,,,,,,images/exp2c_trial_18_colour1_distractors1_l.png,l,1,036,001,2021-04-26_19h52.58.632,searchDisc4,2020.2.10,Win32,60,,,space,0.261675,1,1,0.49596,,0,209,209,474,1,2c,18,1,1,
,,,,,,,,,,,,,,,,,,,,,,,,,,images/exp2c_trial_95_colour1_distractors4_l.png,l,1,036,001,2021-04-26_19h52.58.632,searchDisc4,2020.2.10,Win32,60,,,space,0.27204,1,1,0.5575,,0,210,210,551,1,2c,95,1,4,
,,,,,,,,,,,,,,,,,,,,,,,,,,images/exp2b_trial_100_colour2_distractors1_l.png,l,1,036,001,2021-04-26_19h52.58.632,searchDisc4,2020.2.10,Win32,60,,,space,0.26635,1,1,0.4999,,0,211,211,442,1,2b,100,2,1,
,,,,,,,,,,,,,,,,,,,,,,,,,,images/exp1a_trial_35_colour3_distractors43_l.png,l,1,036,001,2021-04-26_19h52.58.632,searchDisc4,2020.2.10,Win32,60,,,space,0.29056,1,1,0.534935,,0,212,212,35,1,1a,35,3,43,
,,,,,,,,,,,,,,,,,,,,,,,,,,images/exp2a_trial_95_colour1_distractors4_l.png,l,1,036,001,2021-04-26_19h52.58.632,searchDisc4,2020.2.10,Win32,60,,,space,0.266445,1,1,1.118845,,0,213,213,323,1,2a,95,1,4,
,,,,,,,,,,,,,,,,,,,,,,,,,,images/exp2b_trial_6_colour2_distractors1_r.png,r,2,036,001,2021-04-26_19h52.58.632,searchDisc4,2020.2.10,Win32,60,,,space,0.27434,2,1,0.792915,,0,214,214,348,1,2b,6,2,1,
,,,,,,,,,,,,,,,,,,,,,,,,,,images/exp1a_trial_12_colour3_distractors1_r.png,r,2,036,001,2021-04-26_19h52.58.632,searchDisc4,2020.2.10,Win32,60,,,space,0.269295,2,1,0.71962,,0,215,215,12,1,1a,12,3,1,
,,,,,,,,,,,,,,,,,,,,,,,,,,images/exp1a_trial_21_colour1_distractors19_l.png,l,1,036,001,2021-04-26_19h52.58.632,searchDisc4,2020.2.10,Win32,60,,,space,0.245195,1,1,0.4784,,0,216,216,21,1,1a,21,1,19,
,,,,,,,,,,,,,,,,,,,,,,,,,,images/exp2a_trial_51_colour3_distractors4_r.png,r,2,036,001,2021-04-26_19h52.58.632,searchDisc4,2020.2.10,Win32,60,,,space,0.26309,2,1,0.61841,,0,217,217,279,1,2a,51,3,4,
,,,,,,,,,,,,,,,,,,,,,,,,,,images/exp1a_trial_39_colour1_distractors4_r.png,r,2,036,001,2021-04-26_19h52.58.632,searchDisc4,2020.2.10,Win32,60,,,space,0.29939,2,1,0.610165,,0,218,218,39,1,1a,39,1,4,
,,,,,,,,,,,,,,,,,,,,,,,,,,images/exp2a_trial_4_colour1_distractors31_r.png,r,2,036,001,2021-04-26_19h52.58.632,searchDisc4,2020.2.10,Win32,60,,,space,0.284825,2,1,0.797615,,0,219,219,232,1,2a,4,1,31,
,,,,,,,,,,,,,,,,,,,,,,,,,,images/exp2b_trial_112_colour0_distractors0_r.png,r,2,036,001,2021-04-26_19h52.58.632,searchDisc4,2020.2.10,Win32,60,,,space,0.29681,2,1,0.57716,,0,220,220,454,1,2b,112,0,0,
,,,,,,,,,,,,,,,,,,,,,,,,,,images/exp2b_trial_61_colour1_distractors43_l.png,l,1,036,001,2021-04-26_19h52.58.632,searchDisc4,2020.2.10,Win32,60,,,space,0.256285,1,1,0.58739,,0,221,221,403,1,2b,61,1,43,
,,,,,,,,,,,,,,,,,,,,,,,,,,images/exp2c_trial_24_colour2_distractors1_l.png,l,1,036,001,2021-04-26_19h52.58.632,searchDisc4,2020.2.10,Win32,60,,,space,0.27591,2,0,0.64698,,0,222,222,480,1,2c,24,2,1,
,,,,,,,,,,,,,,,,,,,,,,,,,,images/exp2b_trial_40_colour1_distractors9_r.png,r,2,036,001,2021-04-26_19h52.58.632,searchDisc4,2020.2.10,Win32,60,,,space,0.618045,2,1,0.544385,,0,223,223,382,1,2b,40,1,9,
,,,,,,,,,,,,,,,,,,,,,,,,,,images/exp1b_trial_25_colour2_distractors4_l.png,l,1,036,001,2021-04-26_19h52.58.632,searchDisc4,2020.2.10,Win32,60,,,space,0.24736,1,1,0.94429,,0,224,224,139,1,1b,25,2,4,
,,,,,,,,,,,,,,,,,,,,,,,,,,images/exp2c_trial_9_colour2_distractors19_r.png,r,2,036,001,2021-04-26_19h52.58.632,searchDisc4,2020.2.10,Win32,60,,,space,0.24413,2,1,0.7096,,0,225,225,465,1,2c,9,2,19,
,,,,,,,,,,,,,,,,,,,,,,,,,,images/exp2c_trial_56_colour1_distractors1_l.png,l,1,036,001,2021-04-26_19h52.58.632,searchDisc4,2020.2.10,Win32,60,,,space,0.25653,1,1,0.588075,,0,226,226,512,1,2c,56,1,1,
,,,,,,,,,,,,,,,,,,,,,,,,,,images/exp1a_trial_74_colour0_distractors0_r.png,r,2,036,001,2021-04-26_19h52.58.632,searchDisc4,2020.2.10,Win32,60,,,space,0.28451,2,1,0.45275,,0,227,227,74,1,1a,74,0,0,
,,,,,,,,,,,,,,,,,,,,,,,,,,images/exp1b_trial_7_colour2_distractors4_r.png,r,2,036,001,2021-04-26_19h52.58.632,searchDisc4,2020.2.10,Win32,60,,,space,0.28512,2,1,0.72636,,0,228,228,121,1,1b,7,2,4,
,,,,,,,,,,,,,,,,,,,,,,,,,,images/exp1a_trial_55_colour3_distractors43_r.png,r,2,036,001,2021-04-26_19h52.58.632,searchDisc4,2020.2.10,Win32,60,,,space,0.291775,2,1,0.62332,,0,229,229,55,1,1a,55,3,43,
,,,,,,,,,,,,,,,,,,,,,,,,,,images/exp2a_trial_41_colour1_distractors19_r.png,r,2,036,001,2021-04-26_19h52.58.632,searchDisc4,2020.2.10,Win32,60,,,space,0.236235,2,1,0.517245,,0,230,230,269,1,2a,41,1,19,
,,,,,,,,,,,,,,,,,,,,,,,,,,images/exp1a_trial_85_colour2_distractors19_r.png,r,2,036,001,2021-04-26_19h52.58.632,searchDisc4,2020.2.10,Win32,60,,,space,0.293895,2,1,1.096445,,0,231,231,85,1,1a,85,2,19,
,,,,,,,,,,,,,,,,,,,,,,,,,,images/exp2b_trial_39_colour1_distractors4_r.png,r,2,036,001,2021-04-26_19h52.58.632,searchDisc4,2020.2.10,Win32,60,,,space,0.257065,2,1,0.43048,,0,232,232,381,1,2b,39,1,4,
,,,,,,,,,,,,,,,,,,,,,,,,,,images/exp2c_trial_27_colour2_distractors19_l.png,l,1,036,001,2021-04-26_19h52.58.632,searchDisc4,2020.2.10,Win32,60,,,space,0.2758,1,1,0.862925,,0,233,233,483,1,2c,27,2,19,
,,,,,,,,,,,,,,,,,,,,,,,,,,images/exp1b_trial_1_colour1_distractors4_r.png,r,2,036,001,2021-04-26_19h52.58.632,searchDisc4,2020.2.10,Win32,60,,,space,0.165485,2,1,0.674605,,0,234,234,115,1,1b,1,1,4,
,,,,,,,,,,,,,,,,,,,,,,,,,,images/exp1a_trial_48_colour2_distractors31_r.png,r,2,036,001,2021-04-26_19h52.58.632,searchDisc4,2020.2.10,Win32,60,,,space,0.1524,2,1,1.37707,,0,235,235,48,1,1a,48,2,31,
,,,,,,,,,,,,,,,,,,,,,,,,,,images/exp2b_trial_101_colour2_distractors4_l.png,l,1,036,001,2021-04-26_19h52.58.632,searchDisc4,2020.2.10,Win32,60,,,space,0.25027,1,1,0.601265,,0,236,236,443,1,2b,101,2,4,
,,,,,,,,,,,,,,,,,,,,,,,,,,images/exp2b_trial_91_colour3_distractors19_r.png,r,2,036,001,2021-04-26_19h52.58.632,searchDisc4,2020.2.10,Win32,60,,,space,0.2727,2,1,0.475815,,0,237,237,433,1,2b,91,3,19,
,,,,,,,,,,,,,,,,,,,,,,,,,,images/exp2a_trial_31_colour3_distractors4_l.png,l,1,036,001,2021-04-26_19h52.58.632,searchDisc4,2020.2.10,Win32,60,,,space,0.24323,1,1,0.6375,,0,238,238,259,1,2a,31,3,4,
,,,,,,,,,,,,,,,,,,,,,,,,,,images/exp2b_trial_32_colour3_distractors9_l.png,l,1,036,001,2021-04-26_19h52.58.632,searchDisc4,2020.2.10,Win32,60,,,space,0.293165,1,1,0.85507,space,0,239,239,374,1,2b,32,3,9,3.09735
,,,,,,,,,,,,,,,,,,,,,,,,,,images/exp2c_trial_3_colour1_distractors19_r.png,r,2,036,001,2021-04-26_19h52.58.632,searchDisc4,2020.2.10,Win32,60,,,space,0.4802,2,1,0.552115,,0,240,240,459,1,2c,3,1,19,
,,,,,,,,,,,,,,,,,,,,,,,,,,images/exp2a_trial_52_colour3_distractors9_r.png,r,2,036,001,2021-04-26_19h52.58.632,searchDisc4,2020.2.10,Win32,60,,,space,0.225635,2,1,0.443315,,0,241,241,280,1,2a,52,3,9,
,,,,,,,,,,,,,,,,,,,,,,,,,,images/exp1b_trial_43_colour1_distractors43_r.png,r,2,036,001,2021-04-26_19h52.58.632,searchDisc4,2020.2.10,Win32,60,,,space,0.2191,2,1,1.3004,,0,242,242,157,1,1b,43,1,43,
,,,,,,,,,,,,,,,,,,,,,,,,,,images/exp1a_trial_24_colour2_distractors1_l.png,l,1,036,001,2021-04-26_19h52.58.632,searchDisc4,2020.2.10,Win32,60,,,space,0.27499,1,1,0.61844,,0,243,243,24,1,1a,24,2,1,
,,,,,,,,,,,,,,,,,,,,,,,,,,images/exp2a_trial_62_colour2_distractors1_l.png,l,1,036,001,2021-04-26_19h52.58.632,searchDisc4,2020.2.10,Win32,60,,,space,0.26904,1,1,0.720945,,0,244,244,290,1,2a,62,2,1,
,,,,,,,,,,,,,,,,,,,,,,,,,,images/exp2c_trial_102_colour2_distractors9_l.png,l,1,036,001,2021-04-26_19h52.58.632,searchDisc4,2020.2.10,Win32,60,,,space,0.278845,1,1,0.745815,,0,245,245,558,1,2c,102,2,9,
,,,,,,,,,,,,,,,,,,,,,,,,,,images/exp2b_trial_96_colour1_distractors9_l.png,l,1,036,001,2021-04-26_19h52.58.632,searchDisc4,2020.2.10,Win32,60,,,space,0.271075,1,1,0.456205,,0,246,246,438,1,2b,96,1,9,
,,,,,,,,,,,,,,,,,,,,,,,,,,images/exp2a_trial_5_colour1_distractors43_r.png,r,2,036,001,2021-04-26_19h52.58.632,searchDisc4,2020.2.10,Win32,60,,,space,0.335495,2,1,0.94737,,0,247,247,233,1,2a,5,1,43,
,,,,,,,,,,,,,,,,,,,,,,,,,,images/exp2c_trial_75_colour0_distractors0_l.png,l,1,036,001,2021-04-26_19h52.58.632,searchDisc4,2020.2.10,Win32,60,,,space,0.255505,1,1,0.756045,,0,248,248,531,1,2c,75,0,0,
,,,,,,,,,,,,,,,,,,,,,,,,,,images/exp1b_trial_97_colour1_distractors19_l.png,l,1,036,001,2021-04-26_19h52.58.632,searchDisc4,2020.2.10,Win32,60,,,space,0.291835,1,1,0.65898,,0,249,249,211,1,1b,97,1,19,
,,,,,,,,,,,,,,,,,,,,,,,,,,images/exp2b_trial_70_colour3_distractors9_l.png,l,1,036,001,2021-04-26_19h52.58.632,searchDisc4,2020.2.10,Win32,60,,,space,0.25409,1,1,0.82382,,0,250,250,412,1,2b,70,3,9,
,,,,,,,,,,,,,,,,,,,,,,,,,,images/exp2b_trial_10_colour2_distractors31_r.png,r,2,036,001,2021-04-26_19h52.58.632,searchDisc4,2020.2.10,Win32,60,,,space,0.23768,2,1,0.65808,,0,251,251,352,1,2b,10,2,31,
,,,,,,,,,,,,,,,,,,,,,,,,,,images/exp2b_trial_77_colour1_distractors4_r.png,r,2,036,001,2021-04-26_19h52.58.632,searchDisc4,2020.2.10,Win32,60,,,space,0.18949,2,1,0.54521,,0,252,252,419,1,2b,77,1,4,
,,,,,,,,,,,,,,,,,,,,,,,,,,images/exp1b_trial_3_colour1_distractors19_r.png,r,2,036,001,2021-04-26_19h52.58.632,searchDisc4,2020.2.10,Win32,60,,,space,0.33429,2,1,1.02319,,0,253,253,117,1,1b,3,1,19,
,,,,,,,,,,,,,,,,,,,,,,,,,,images/exp1b_trial_57_colour1_distractors4_l.png,l,1,036,001,2021-04-26_19h52.58.632,searchDisc4,2020.2.10,Win32,60,,,space,0.306205,1,1,1.148455,,0,254,254,171,1,1b,57,1,4,
,,,,,,,,,,,,,,,,,,,,,,,,,,images/exp1a_trial_105_colour2_distractors43_l.png,l,1,036,001,2021-04-26_19h52.58.632,searchDisc4,2020.2.10,Win32,60,,,space,0.243815,1,1,0.66864,,0,255,255,105,1,1a,105,2,43,
,,,,,,,,,,,,,,,,,,,,,,,,,,images/exp2c_trial_110_colour3_distractors31_l.png,l,1,036,001,2021-04-26_19h52.58.632,searchDisc4,2020.2.10,Win32,60,,,space,0.231525,1,1,0.781125,,0,256,256,566,1,2c,110,3,31,
,,,,,,,,,,,,,,,,,,,,,,,,,,images/exp1a_trial_111_colour3_distractors43_l.png,l,1,036,001,2021-04-26_19h52.58.632,searchDisc4,2020.2.10,Win32,60,,,space,0.20867,1,1,0.54285,,0,257,257,111,1,1a,111,3,43,
,,,,,,,,,,,,,,,,,,,,,,,,,,images/exp1a_trial_103_colour2_distractors19_l.png,l,1,036,001,2021-04-26_19h52.58.632,searchDisc4,2020.2.10,Win32,60,,,space,0.20027,1,1,1.01373,,0,258,258,103,1,1a,103,2,19,
,,,,,,,,,,,,,,,,,,,,,,,,,,images/exp2a_trial_15_colour3_distractors19_r.png,r,2,036,001,2021-04-26_19h52.58.632,searchDisc4,2020.2.10,Win32,60,,,space,0.187885,2,1,0.59649,,0,259,259,243,1,2a,15,3,19,
,,,,,,,,,,,,,,,,,,,,,,,,,,images/exp2a_trial_46_colour2_distractors9_r.png,r,2,036,001,2021-04-26_19h52.58.632,searchDisc4,2020.2.10,Win32,60,,,space,0.194385,2,1,0.53135,,0,260,260,274,1,2a,46,2,9,
,,,,,,,,,,,,,,,,,,,,,,,,,,images/exp1b_trial_50_colour3_distractors1_r.png,r,2,036,001,2021-04-26_19h52.58.632,searchDisc4,2020.2.10,Win32,60,,,space,0.25353,2,1,0.51427,,0,261,261,164,1,1b,50,3,1,
,,,,,,,,,,,,,,,,,,,,,,,,,,images/exp1a_trial_92_colour3_distractors31_r.png,r,2,036,001,2021-04-26_19h52.58.632,searchDisc4,2020.2.10,Win32,60,,,space,0.30384,2,1,0.495125,,0,262,262,92,1,1a,92,3,31,
,,,,,,,,,,,,,,,,,,,,,,,,,,images/exp2a_trial_93_colour3_distractors43_r.png,r,2,036,001,2021-04-26_19h52.58.632,searchDisc4,2020.2.10,Win32,60,,,space,0.257155,2,1,0.53997,,0,263,263,321,1,2a,93,3,43,
,,,,,,,,,,,,,,,,,,,,,,,,,,images/exp1b_trial_113_colour0_distractors0_l.png,l,1,036,001,2021-04-26_19h52.58.632,searchDisc4,2020.2.10,Win32,60,,,space,0.334855,1,1,0.67659,,0,264,264,227,1,1b,113,0,0,
,,,,,,,,,,,,,,,,,,,,,,,,,,images/exp2a_trial_81_colour1_distractors43_r.png,r,2,036,001,2021-04-26_19h52.58.632,searchDisc4,2020.2.10,Win32,60,,,space,0.213135,2,1,0.76075,,0,265,265,309,1,2a,81,1,43,
,,,,,,,,,,,,,,,,,,,,,,,,,,images/exp1a_trial_65_colour2_distractors19_l.png,l,1,036,001,2021-04-26_19h52.58.632,searchDisc4,2020.2.10,Win32,60,,,space,0.244825,1,1,1.505845,,0,266,266,65,1,1a,65,2,19,
,,,,,,,,,,,,,,,,,,,,,,,,,,images/exp1a_trial_72_colour3_distractors31_l.png,l,1,036,001,2021-04-26_19h52.58.632,searchDisc4,2020.2.10,Win32,60,,,space,0.270375,1,1,0.537865,,0,267,267,72,1,1a,72,3,31,
,,,,,,,,,,,,,,,,,,,,,,,,,,images/exp2a_trial_56_colour1_distractors1_l.png,l,1,036,001,2021-04-26_19h52.58.632,searchDisc4,2020.2.10,Win32,60,,,space,0.2787,1,1,0.5031,,0,268,268,284,1,2a,56,1,1,
,,,,,,,,,,,,,,,,,,,,,,,,,,images/exp1a_trial_34_colour3_distractors31_l.png,l,1,036,001,2021-04-26_19h52.58.632,searchDisc4,2020.2.10,Win32,60,,,space,0.24697,1,1,0.498515,,0,269,269,34,1,1a,34,3,31,
,,,,,,,,,,,,,,,,,,,,,,,,,,images/exp2b_trial_7_colour2_distractors4_r.png,r,2,036,001,2021-04-26_19h52.58.632,searchDisc4,2020.2.10,Win32,60,,,space,0.25126,2,1,0.68643,,0,270,270,349,1,2b,7,2,4,
,,,,,,,,,,,,,,,,,,,,,,,,,,images/exp1b_trial_61_colour1_distractors43_l.png,l,1,036,001,2021-04-26_19h52.58.632,searchDisc4,2020.2.10,Win32,60,,,space,0.29901,1,1,1.39849,,0,271,271,175,1,1b,61,1,43,
,,,,,,,,,,,,,,,,,,,,,,,,,,images/exp2a_trial_97_colour1_distractors19_l.png,l,1,036,001,2021-04-26_19h52.58.632,searchDisc4,2020.2.10,Win32,60,,,space,0.26316,1,1,0.842295,,0,272,272,325,1,2a,97,1,19,
,,,,,,,,,,,,,,,,,,,,,,,,,,images/exp2b_trial_21_colour1_distractors19_l.png,l,1,036,001,2021-04-26_19h52.58.632,searchDisc4,2020.2.10,Win32,60,,,space,0.26781,1,1,0.54972,,0,273,273,363,1,2b,21,1,19,
,,,,,,,,,,,,,,,,,,,,,,,,,,images/exp2c_trial_100_colour2_distractors1_l.png,l,1,036,001,2021-04-26_19h52.58.632,searchDisc4,2020.2.10,Win32,60,,,space,0.31088,1,1,0.589235,,0,274,274,556,1,2c,100,2,1,
,,,,,,,,,,,,,,,,,,,,,,,,,,images/exp2a_trial_18_colour1_distractors1_l.png,l,1,036,001,2021-04-26_19h52.58.632,searchDisc4,2020.2.10,Win32,60,,,space,0.298705,1,1,0.52633,,0,275,275,246,1,2a,18,1,1,
,,,,,,,,,,,,,,,,,,,,,,,,,,images/exp1b_trial_96_colour1_distractors9_l.png,l,1,036,001,2021-04-26_19h52.58.632,searchDisc4,2020.2.10,Win32,60,,,space,0.331715,1,1,1.002005,,0,276,276,210,1,1b,96,1,9,
,,,,,,,,,,,,,,,,,,,,,,,,,,images/exp1b_trial_55_colour3_distractors43_r.png,r,2,036,001,2021-04-26_19h52.58.632,searchDisc4,2020.2.10,Win32,60,,,space,0.29877,2,1,2.386225,,0,277,277,169,1,1b,55,3,43,
,,,,,,,,,,,,,,,,,,,,,,,,,,images/exp1a_trial_97_colour1_distractors19_l.png,l,1,036,001,2021-04-26_19h52.58.632,searchDisc4,2020.2.10,Win32,60,,,space,0.23823,1,1,1.10674,,0,278,278,97,1,1a,97,1,19,
,,,,,,,,,,,,,,,,,,,,,,,,,,images/exp2b_trial_19_colour1_distractors4_l.png,l,1,036,001,2021-04-26_19h52.58.632,searchDisc4,2020.2.10,Win32,60,,,space,0.215665,1,1,0.4689,,0,279,279,361,1,2b,19,1,4,
,,,,,,,,,,,,,,,,,,,,,,,,,,images/exp2a_trial_112_colour0_distractors0_r.png,r,2,036,001,2021-04-26_19h52.58.632,searchDisc4,2020.2.10,Win32,60,,,space,0.22929,2,1,0.970765,,0,280,280,340,1,2a,112,0,0,
,,,,,,,,,,,,,,,,,,,,,,,,,,images/exp1b_trial_84_colour2_distractors9_r.png,r,2,036,001,2021-04-26_19h52.58.632,searchDisc4,2020.2.10,Win32,60,,,space,0.26877,2,1,0.77586,,0,281,281,198,1,1b,84,2,9,
,,,,,,,,,,,,,,,,,,,,,,,,,,images/exp1b_trial_106_colour3_distractors1_l.png,l,1,036,001,2021-04-26_19h52.58.632,searchDisc4,2020.2.10,Win32,60,,,space,0.23995,1,1,1.132385,,0,282,282,220,1,1b,106,3,1,
,,,,,,,,,,,,,,,,,,,,,,,,,,images/exp1a_trial_107_colour3_distractors4_l.png,l,1,036,001,2021-04-26_19h52.58.632,searchDisc4,2020.2.10,Win32,60,,,space,0.32637,1,1,0.690545,,0,283,283,107,1,1a,107,3,4,
,,,,,,,,,,,,,,,,,,,,,,,,,,images/exp1b_trial_77_colour1_distractors4_r.png,r,2,036,001,2021-04-26_19h52.58.632,searchDisc4,2020.2.10,Win32,60,,,space,0.277905,2,1,3.344115,,0,284,284,191,1,1b,77,1,4,
,,,,,,,,,,,,,,,,,,,,,,,,,,images/exp2a_trial_88_colour3_distractors1_r.png,r,2,036,001,2021-04-26_19h52.58.632,searchDisc4,2020.2.10,Win32,60,,,space,0.247415,2,1,0.54192,,0,285,285,316,1,2a,88,3,1,
,,,,,,,,,,,,,,,,,,,,,,,,,,images/exp1a_trial_108_colour3_distractors9_l.png,l,1,036,001,2021-04-26_19h52.58.632,searchDisc4,2020.2.10,Win32,60,,,space,0.29518,1,1,0.62365,,0,286,286,108,1,1a,108,3,9,
,,,,,,,,,,,,,,,,,,,,,,,,,,images/exp2b_trial_9_colour2_distractors19_r.png,r,2,036,001,2021-04-26_19h52.58.632,searchDisc4,2020.2.10,Win32,60,,,space,0.256175,2,1,0.50818,,0,287,287,351,1,2b,9,2,19,
,,,,,,,,,,,,,,,,,,,,,,,,,,images/exp1b_trial_8_colour2_distractors9_r.png,r,2,036,001,2021-04-26_19h52.58.632,searchDisc4,2020.2.10,Win32,60,,,space,0.327865,2,1,0.64929,,0,288,288,122,1,1b,8,2,9,
,,,,,,,,,,,,,,,,,,,,,,,,,,images/exp2a_trial_109_colour3_distractors19_l.png,l,1,036,001,2021-04-26_19h52.58.632,searchDisc4,2020.2.10,Win32,60,,,space,0.280755,1,1,0.497235,,0,289,289,337,1,2a,109,3,19,
,,,,,,,,,,,,,,,,,,,,,,,,,,images/exp2c_trial_46_colour2_distractors9_r.png,r,2,036,001,2021-04-26_19h52.58.632,searchDisc4,2020.2.10,Win32,60,,,space,0.29562,2,1,0.61228,,0,290,290,502,1,2c,46,2,9,
,,,,,,,,,,,,,,,,,,,,,,,,,,images/exp2a_trial_61_colour1_distractors43_l.png,l,1,036,001,2021-04-26_19h52.58.632,searchDisc4,2020.2.10,Win32,60,,,space,0.303895,1,1,1.180775,,0,291,291,289,1,2a,61,1,43,
,,,,,,,,,,,,,,,,,,,,,,,,,,images/exp2c_trial_21_colour1_distractors19_l.png,l,1,036,001,2021-04-26_19h52.58.632,searchDisc4,2020.2.10,Win32,60,,,space,0.291165,1,1,0.477485,,0,292,292,477,1,2c,21,1,19,
,,,,,,,,,,,,,,,,,,,,,,,,,,images/exp2b_trial_67_colour2_distractors43_l.png,l,1,036,001,2021-04-26_19h52.58.632,searchDisc4,2020.2.10,Win32,60,,,space,0.28224,1,1,0.57224,,0,293,293,409,1,2b,67,2,43,
,,,,,,,,,,,,,,,,,,,,,,,,,,images/exp2c_trial_8_colour2_distractors9_r.png,r,2,036,001,2021-04-26_19h52.58.632,searchDisc4,2020.2.10,Win32,60,,,space,0.367715,2,1,0.71739,,0,294,294,464,1,2c,8,2,9,
,,,,,,,,,,,,,,,,,,,,,,,,,,images/exp2b_trial_22_colour1_distractors31_l.png,l,1,036,001,2021-04-26_19h52.58.632,searchDisc4,2020.2.10,Win32,60,,,space,0.291855,1,1,0.50068,,0,295,295,364,1,2b,22,1,31,
,,,,,,,,,,,,,,,,,,,,,,,,,,images/exp2a_trial_14_colour3_distractors9_r.png,r,2,036,001,2021-04-26_19h52.58.632,searchDisc4,2020.2.10,Win32,60,,,space,0.301245,2,1,0.61965,,0,296,296,242,1,2a,14,3,9,
,,,,,,,,,,,,,,,,,,,,,,,,,,images/exp1a_trial_38_colour1_distractors1_r.png,r,2,036,001,2021-04-26_19h52.58.632,searchDisc4,2020.2.10,Win32,60,,,space,0.26956,2,1,0.80569,,0,297,297,38,1,1a,38,1,1,
,,,,,,,,,,,,,,,,,,,,,,,,,,images/exp1a_trial_64_colour2_distractors9_l.png,l,1,036,001,2021-04-26_19h52.58.632,searchDisc4,2020.2.10,Win32,60,,,space,0.311655,2,0,1.130265,,0,298,298,64,1,1a,64,2,9,
,,,,,,,,,,,,,,,,,,,,,,,,,,images/exp1b_trial_39_colour1_distractors4_r.png,r,2,036,001,2021-04-26_19h52.58.632,searchDisc4,2020.2.10,Win32,60,,,space,0.347435,2,1,0.54394,space,0,299,299,153,1,1b,39,1,4,1.52223
,,,,,,,,,,,,,,,,,,,,,,,,,,images/exp2a_trial_102_colour2_distractors9_l.png,l,1,036,001,2021-04-26_19h52.58.632,searchDisc4,2020.2.10,Win32,60,,,space,0.542115,1,1,0.485895,,0,300,300,330,1,2a,102,2,9,
,,,,,,,,,,,,,,,,,,,,,,,,,,images/exp1b_trial_15_colour3_distractors19_r.png,r,2,036,001,2021-04-26_19h52.58.632,searchDisc4,2020.2.10,Win32,60,,,space,0.20902,2,1,0.591475,,0,301,301,129,1,1b,15,3,19,
,,,,,,,,,,,,,,,,,,,,,,,,,,images/exp2c_trial_55_colour3_distractors43_r.png,r,2,036,001,2021-04-26_19h52.58.632,searchDisc4,2020.2.10,Win32,60,,,space,0.228125,2,1,0.466075,,0,302,302,511,1,2c,55,3,43,
,,,,,,,,,,,,,,,,,,,,,,,,,,images/exp2a_trial_84_colour2_distractors9_r.png,r,2,036,001,2021-04-26_19h52.58.632,searchDisc4,2020.2.10,Win32,60,,,space,0.23695,2,1,0.62009,,0,303,303,312,1,2a,84,2,9,
,,,,,,,,,,,,,,,,,,,,,,,,,,images/exp2b_trial_66_colour2_distractors31_l.png,l,1,036,001,2021-04-26_19h52.58.632,searchDisc4,2020.2.10,Win32,60,,,space,0.26433,1,1,0.563195,,0,304,304,408,1,2b,66,2,31,
,,,,,,,,,,,,,,,,,,,,,,,,,,images/exp1b_trial_73_colour3_distractors43_l.png,l,1,036,001,2021-04-26_19h52.58.632,searchDisc4,2020.2.10,Win32,60,,,space,0.26241,1,1,1.648345,,0,305,305,187,1,1b,73,3,43,
,,,,,,,,,,,,,,,,,,,,,,,,,,images/exp2b_trial_53_colour3_distractors19_r.png,r,2,036,001,2021-04-26_19h52.58.632,searchDisc4,2020.2.10,Win32,60,,,space,0.26356,2,1,0.646975,,0,306,306,395,1,2b,53,3,19,
,,,,,,,,,,,,,,,,,,,,,,,,,,images/exp1b_trial_48_colour2_distractors31_r.png,r,2,036,001,2021-04-26_19h52.58.632,searchDisc4,2020.2.10,Win32,60,,,space,0.28978,2,1,0.936045,,0,307,307,162,1,1b,48,2,31,
,,,,,,,,,,,,,,,,,,,,,,,,,,images/exp1a_trial_22_colour1_distractors31_l.png,l,1,036,001,2021-04-26_19h52.58.632,searchDisc4,2020.2.10,Win32,60,,,space,0.270915,1,1,0.51041,,0,308,308,22,1,1a,22,1,31,
,,,,,,,,,,,,,,,,,,,,,,,,,,images/exp1b_trial_70_colour3_distractors9_l.png,l,1,036,001,2021-04-26_19h52.58.632,searchDisc4,2020.2.10,Win32,60,,,space,0.34761,1,1,0.91316,,0,309,309,184,1,1b,70,3,9,
,,,,,,,,,,,,,,,,,,,,,,,,,,images/exp2c_trial_11_colour2_distractors43_r.png,r,2,036,001,2021-04-26_19h52.58.632,searchDisc4,2020.2.10,Win32,60,,,space,0.27789,2,1,0.88162,,0,310,310,467,1,2c,11,2,43,
,,,,,,,,,,,,,,,,,,,,,,,,,,images/exp2b_trial_99_colour1_distractors43_l.png,l,1,036,001,2021-04-26_19h52.58.632,searchDisc4,2020.2.10,Win32,60,,,space,0.31959,1,1,0.589015,,0,311,311,441,1,2b,99,1,43,
,,,,,,,,,,,,,,,,,,,,,,,,,,images/exp2a_trial_108_colour3_distractors9_l.png,l,1,036,001,2021-04-26_19h52.58.632,searchDisc4,2020.2.10,Win32,60,,,space,0.291445,1,1,0.4571,,0,312,312,336,1,2a,108,3,9,
,,,,,,,,,,,,,,,,,,,,,,,,,,images/exp2c_trial_62_colour2_distractors1_l.png,l,1,036,001,2021-04-26_19h52.58.632,searchDisc4,2020.2.10,Win32,60,,,space,0.317495,1,1,0.55957,,0,313,313,518,1,2c,62,2,1,
,,,,,,,,,,,,,,,,,,,,,,,,,,images/exp2c_trial_26_colour2_distractors9_l.png,l,1,036,001,2021-04-26_19h52.58.632,searchDisc4,2020.2.10,Win32,60,,,space,0.340475,1,1,0.71146,,0,314,314,482,1,2c,26,2,9,
,,,,,,,,,,,,,,,,,,,,,,,,,,images/exp1b_trial_67_colour2_distractors43_l.png,l,1,036,001,2021-04-26_19h52.58.632,searchDisc4,2020.2.10,Win32,60,,,space,0.306,1,1,0.996125,,0,315,315,181,1,1b,67,2,43,
,,,,,,,,,,,,,,,,,,,,,,,,,,images/exp1b_trial_54_colour3_distractors31_r.png,r,2,036,001,2021-04-26_19h52.58.632,searchDisc4,2020.2.10,Win32,60,,,space,0.26409,2,1,1.11854,,0,316,316,168,1,1b,54,3,31,
,,,,,,,,,,,,,,,,,,,,,,,,,,images/exp1a_trial_43_colour1_distractors43_r.png,r,2,036,001,2021-04-26_19h52.58.632,searchDisc4,2020.2.10,Win32,60,,,space,0.272115,2,1,0.60743,,0,317,317,43,1,1a,43,1,43,
,,,,,,,,,,,,,,,,,,,,,,,,,,images/exp2b_trial_105_colour2_distractors43_l.png,l,1,036,001,2021-04-26_19h52.58.632,searchDisc4,2020.2.10,Win32,60,,,space,0.28377,1,1,0.509815,,0,318,318,447,1,2b,105,2,43,
,,,,,,,,,,,,,,,,,,,,,,,,,,images/exp1a_trial_81_colour1_distractors43_r.png,r,2,036,001,2021-04-26_19h52.58.632,searchDisc4,2020.2.10,Win32,60,,,space,0.29963,2,1,0.578535,,0,319,319,81,1,1a,81,1,43,
,,,,,,,,,,,,,,,,,,,,,,,,,,images/exp1a_trial_7_colour2_distractors4_r.png,r,2,036,001,2021-04-26_19h52.58.632,searchDisc4,2020.2.10,Win32,60,,,space,0.326985,2,1,0.620225,,0,320,320,7,1,1a,7,2,4,
,,,,,,,,,,,,,,,,,,,,,,,,,,images/exp2a_trial_29_colour2_distractors43_l.png,l,1,036,001,2021-04-26_19h52.58.632,searchDisc4,2020.2.10,Win32,60,,,space,0.298165,1,1,0.582965,,0,321,321,257,1,2a,29,2,43,
,,,,,,,,,,,,,,,,,,,,,,,,,,images/exp2c_trial_28_colour2_distractors31_l.png,l,1,036,001,2021-04-26_19h52.58.632,searchDisc4,2020.2.10,Win32,60,,,space,0.292805,1,1,0.684745,,0,322,322,484,1,2c,28,2,31,
,,,,,,,,,,,,,,,,,,,,,,,,,,images/exp2b_trial_113_colour0_distractors0_l.png,l,1,036,001,2021-04-26_19h52.58.632,searchDisc4,2020.2.10,Win32,60,,,space,0.366535,1,1,0.50406,,0,323,323,455,1,2b,113,0,0,
,,,,,,,,,,,,,,,,,,,,,,,,,,images/exp2c_trial_68_colour3_distractors1_l.png,l,1,036,001,2021-04-26_19h52.58.632,searchDisc4,2020.2.10,Win32,60,,,space,0.33064,1,1,0.547275,,0,324,324,524,1,2c,68,3,1,
,,,,,,,,,,,,,,,,,,,,,,,,,,images/exp2b_trial_17_colour3_distractors43_r.png,r,2,036,001,2021-04-26_19h52.58.632,searchDisc4,2020.2.10,Win32,60,,,space,0.342675,2,1,0.68353,,0,325,325,359,1,2b,17,3,43,
,,,,,,,,,,,,,,,,,,,,,,,,,,images/exp1b_trial_109_colour3_distractors19_l.png,l,1,036,001,2021-04-26_19h52.58.632,searchDisc4,2020.2.10,Win32,60,,,space,0.305785,1,1,2.539485,,0,326,326,223,1,1b,109,3,19,
,,,,,,,,,,,,,,,,,,,,,,,,,,images/exp1a_trial_67_colour2_distractors43_l.png,l,1,036,001,2021-04-26_19h52.58.632,searchDisc4,2020.2.10,Win32,60,,,space,0.21493,1,1,0.61621,,0,327,327,67,1,1a,67,2,43,
,,,,,,,,,,,,,,,,,,,,,,,,,,images/exp1a_trial_37_colour0_distractors0_l.png,l,1,036,001,2021-04-26_19h52.58.632,searchDisc4,2020.2.10,Win32,60,,,space,0.236275,1,1,0.57669,,0,328,328,37,1,1a,37,0,0,
,,,,,,,,,,,,,,,,,,,,,,,,,,images/exp2b_trial_41_colour1_distractors19_r.png,r,2,036,001,2021-04-26_19h52.58.632,searchDisc4,2020.2.10,Win32,60,,,space,0.293195,2,1,0.485235,,0,329,329,383,1,2b,41,1,19,
,,,,,,,,,,,,,,,,,,,,,,,,,,images/exp1b_trial_53_colour3_distractors19_r.png,r,2,036,001,2021-04-26_19h52.58.632,searchDisc4,2020.2.10,Win32,60,,,space,0.2988,2,1,1.55942,,0,330,330,167,1,1b,53,3,19,
,,,,,,,,,,,,,,,,,,,,,,,,,,images/exp2a_trial_32_colour3_distractors9_l.png,l,1,036,001,2021-04-26_19h52.58.632,searchDisc4,2020.2.10,Win32,60,,,space,0.34884,1,1,0.64187,,0,331,331,260,1,2a,32,3,9,
,,,,,,,,,,,,,,,,,,,,,,,,,,images/exp2c_trial_53_colour3_distractors19_r.png,r,2,036,001,2021-04-26_19h52.58.632,searchDisc4,2020.2.10,Win32,60,,,space,0.250395,2,1,0.61879,,0,332,332,509,1,2c,53,3,19,
,,,,,,,,,,,,,,,,,,,,,,,,,,images/exp1b_trial_46_colour2_distractors9_r.png,r,2,036,001,2021-04-26_19h52.58.632,searchDisc4,2020.2.10,Win32,60,,,space,0.29882,2,1,0.934935,,0,333,333,160,1,1b,46,2,9,
,,,,,,,,,,,,,,,,,,,,,,,,,,images/exp1b_trial_16_colour3_distractors31_r.png,r,2,036,001,2021-04-26_19h52.58.632,searchDisc4,2020.2.10,Win32,60,,,space,0.291905,2,1,1.953065,,0,334,334,130,1,1b,16,3,31,
,,,,,,,,,,,,,,,,,,,,,,,,,,images/exp2a_trial_22_colour1_distractors31_l.png,l,1,036,001,2021-04-26_19h52.58.632,searchDisc4,2020.2.10,Win32,60,,,space,0.260575,1,1,0.69355,,0,335,335,250,1,2a,22,1,31,
,,,,,,,,,,,,,,,,,,,,,,,,,,images/exp2c_trial_63_colour2_distractors4_l.png,l,1,036,001,2021-04-26_19h52.58.632,searchDisc4,2020.2.10,Win32,60,,,space,0.25933,1,1,0.538365,,0,336,336,519,1,2c,63,2,4,
,,,,,,,,,,,,,,,,,,,,,,,,,,images/exp2a_trial_103_colour2_distractors19_l.png,l,1,036,001,2021-04-26_19h52.58.632,searchDisc4,2020.2.10,Win32,60,,,space,0.30212,1,1,0.59006,,0,337,337,331,1,2a,103,2,19,
,,,,,,,,,,,,,,,,,,,,,,,,,,images/exp2b_trial_108_colour3_distractors9_l.png,l,1,036,001,2021-04-26_19h52.58.632,searchDisc4,2020.2.10,Win32,60,,,space,0.343035,1,1,0.765545,,0,338,338,450,1,2b,108,3,9,
,,,,,,,,,,,,,,,,,,,,,,,,,,images/exp1b_trial_76_colour1_distractors1_r.png,r,2,036,001,2021-04-26_19h52.58.632,searchDisc4,2020.2.10,Win32,60,,,space,0.29112,2,1,0.68884,,0,339,339,190,1,1b,76,1,1,
,,,,,,,,,,,,,,,,,,,,,,,,,,images/exp2a_trial_30_colour3_distractors1_l.png,l,1,036,001,2021-04-26_19h52.58.632,searchDisc4,2020.2.10,Win32,60,,,space,0.26867,1,1,0.54412,,0,340,340,258,1,2a,30,3,1,
,,,,,,,,,,,,,,,,,,,,,,,,,,images/exp1a_trial_93_colour3_distractors43_r.png,r,2,036,001,2021-04-26_19h52.58.632,searchDisc4,2020.2.10,Win32,60,,,space,0.320765,2,1,0.534185,,0,341,341,93,1,1a,93,3,43,
,,,,,,,,,,,,,,,,,,,,,,,,,,images/exp1b_trial_37_colour0_distractors0_l.png,l,1,036,001,2021-04-26_19h52.58.632,searchDisc4,2020.2.10,Win32,60,,,space,0.32748,1,1,0.507875,,0,342,342,151,1,1b,37,0,0,
,,,,,,,,,,,,,,,,,,,,,,,,,,images/exp2a_trial_76_colour1_distractors1_r.png,r,2,036,001,2021-04-26_19h52.58.632,searchDisc4,2020.2.10,Win32,60,,,space,0.39387,2,1,0.559405,,0,343,343,304,1,2a,76,1,1,
,,,,,,,,,,,,,,,,,,,,,,,,,,images/exp2a_trial_17_colour3_distractors43_r.png,r,2,036,001,2021-04-26_19h52.58.632,searchDisc4,2020.2.10,Win32,60,,,space,0.26024,2,1,0.566195,,0,344,344,245,1,2a,17,3,43,
,,,,,,,,,,,,,,,,,,,,,,,,,,images/exp1b_trial_56_colour1_distractors1_l.png,l,1,036,001,2021-04-26_19h52.58.632,searchDisc4,2020.2.10,Win32,60,,,space,0.32655,1,1,0.75533,,0,345,345,170,1,1b,56,1,1,
,,,,,,,,,,,,,,,,,,,,,,,,,,images/exp1b_trial_24_colour2_distractors1_l.png,l,1,036,001,2021-04-26_19h52.58.632,searchDisc4,2020.2.10,Win32,60,,,space,0.28069,1,1,1.420665,,0,346,346,138,1,1b,24,2,1,
,,,,,,,,,,,,,,,,,,,,,,,,,,images/exp1a_trial_19_colour1_distractors4_l.png,l,1,036,001,2021-04-26_19h52.58.632,searchDisc4,2020.2.10,Win32,60,,,space,0.27944,1,1,0.565255,,0,347,347,19,1,1a,19,1,4,
,,,,,,,,,,,,,,,,,,,,,,,,,,images/exp2c_trial_85_colour2_distractors19_r.png,r,2,036,001,2021-04-26_19h52.58.632,searchDisc4,2020.2.10,Win32,60,,,space,0.248695,2,1,1.03036,,0,348,348,541,1,2c,85,2,19,
,,,,,,,,,,,,,,,,,,,,,,,,,,images/exp2a_trial_50_colour3_distractors1_r.png,r,2,036,001,2021-04-26_19h52.58.632,searchDisc4,2020.2.10,Win32,60,,,space,0.30562,1,0,0.621125,,0,349,349,278,1,2a,50,3,1,
,,,,,,,,,,,,,,,,,,,,,,,,,,images/exp2a_trial_20_colour1_distractors9_l.png,l,1,036,001,2021-04-26_19h52.58.632,searchDisc4,2020.2.10,Win32,60,,,space,0.597435,1,1,0.623175,,0,350,350,248,1,2a,20,1,9,
,,,,,,,,,,,,,,,,,,,,,,,,,,images/exp2a_trial_104_colour2_distractors31_l.png,l,1,036,001,2021-04-26_19h52.58.632,searchDisc4,2020.2.10,Win32,60,,,space,0.231845,1,1,0.549185,,0,351,351,332,1,2a,104,2,31,
,,,,,,,,,,,,,,,,,,,,,,,,,,images/exp2c_trial_86_colour2_distractors31_r.png,r,2,036,001,2021-04-26_19h52.58.632,searchDisc4,2020.2.10,Win32,60,,,space,0.25201,2,1,0.582725,,0,352,352,542,1,2c,86,2,31,
,,,,,,,,,,,,,,,,,,,,,,,,,,images/exp2a_trial_87_colour2_distractors43_r.png,r,2,036,001,2021-04-26_19h52.58.632,searchDisc4,2020.2.10,Win32,60,,,space,0.243325,2,1,0.58896,,0,353,353,315,1,2a,87,2,43,
,,,,,,,,,,,,,,,,,,,,,,,,,,images/exp2b_trial_81_colour1_distractors43_r.png,r,2,036,001,2021-04-26_19h52.58.632,searchDisc4,2020.2.10,Win32,60,,,space,0.25601,2,1,0.714825,,0,354,354,423,1,2b,81,1,43,
,,,,,,,,,,,,,,,,,,,,,,,,,,images/exp1a_trial_15_colour3_distractors19_r.png,r,2,036,001,2021-04-26_19h52.58.632,searchDisc4,2020.2.10,Win32,60,,,space,0.283765,2,1,1.170315,,0,355,355,15,1,1a,15,3,19,
,,,,,,,,,,,,,,,,,,,,,,,,,,images/exp2b_trial_102_colour2_distractors9_l.png,l,1,036,001,2021-04-26_19h52.58.632,searchDisc4,2020.2.10,Win32,60,,,space,0.2463,1,1,0.925315,,0,356,356,444,1,2b,102,2,9,
,,,,,,,,,,,,,,,,,,,,,,,,,,images/exp2c_trial_82_colour2_distractors1_r.png,r,2,036,001,2021-04-26_19h52.58.632,searchDisc4,2020.2.10,Win32,60,,,space,0.198805,2,1,0.498325,,0,357,357,538,1,2c,82,2,1,
,,,,,,,,,,,,,,,,,,,,,,,,,,images/exp1a_trial_13_colour3_distractors4_r.png,r,2,036,001,2021-04-26_19h52.58.632,searchDisc4,2020.2.10,Win32,60,,,space,0.222385,2,1,0.631165,,0,358,358,13,1,1a,13,3,4,
,,,,,,,,,,,,,,,,,,,,,,,,,,images/exp2b_trial_13_colour3_distractors4_r.png,r,2,036,001,2021-04-26_19h52.58.632,searchDisc4,2020.2.10,Win32,60,,,space,0.199005,2,1,0.70823,space,0,359,359,355,1,2b,13,3,4,0.230505
,,,,,,,,,,,,,,,,,,,,,,,,,,images/exp1a_trial_17_colour3_distractors43_r.png,r,2,036,001,2021-04-26_19h52.58.632,searchDisc4,2020.2.10,Win32,60,,,space,0.854685,2,1,0.53352,,0,360,360,17,1,1a,17,3,43,
,,,,,,,,,,,,,,,,,,,,,,,,,,images/exp1b_trial_0_colour1_distractors1_r.png,r,2,036,001,2021-04-26_19h52.58.632,searchDisc4,2020.2.10,Win32,60,,,space,0.27304,2,1,0.62333,,0,361,361,114,1,1b,0,1,1,
,,,,,,,,,,,,,,,,,,,,,,,,,,images/exp1a_trial_44_colour2_distractors1_r.png,r,2,036,001,2021-04-26_19h52.58.632,searchDisc4,2020.2.10,Win32,60,,,space,0.184325,2,1,0.82222,,0,362,362,44,1,1a,44,2,1,
,,,,,,,,,,,,,,,,,,,,,,,,,,images/exp2a_trial_0_colour1_distractors1_r.png,r,2,036,001,2021-04-26_19h52.58.632,searchDisc4,2020.2.10,Win32,60,,,space,0.299565,2,1,0.435555,,0,363,363,228,1,2a,0,1,1,
,,,,,,,,,,,,,,,,,,,,,,,,,,images/exp1a_trial_10_colour2_distractors31_r.png,r,2,036,001,2021-04-26_19h52.58.632,searchDisc4,2020.2.10,Win32,60,,,space,0.338915,2,1,0.75817,,0,364,364,10,1,1a,10,2,31,
,,,,,,,,,,,,,,,,,,,,,,,,,,images/exp1a_trial_52_colour3_distractors9_r.png,r,2,036,001,2021-04-26_19h52.58.632,searchDisc4,2020.2.10,Win32,60,,,space,0.267935,2,1,0.587595,,0,365,365,52,1,1a,52,3,9,
,,,,,,,,,,,,,,,,,,,,,,,,,,images/exp1a_trial_47_colour2_distractors19_r.png,r,2,036,001,2021-04-26_19h52.58.632,searchDisc4,2020.2.10,Win32,60,,,space,0.26303,2,1,0.760475,,0,366,366,47,1,1a,47,2,19,
,,,,,,,,,,,,,,,,,,,,,,,,,,images/exp1a_trial_9_colour2_distractors19_r.png,r,2,036,001,2021-04-26_19h52.58.632,searchDisc4,2020.2.10,Win32,60,,,space,0.209135,2,1,0.87511,,0,367,367,9,1,1a,9,2,19,
,,,,,,,,,,,,,,,,,,,,,,,,,,images/exp2a_trial_27_colour2_distractors19_l.png,l,1,036,001,2021-04-26_19h52.58.632,searchDisc4,2020.2.10,Win32,60,,,space,0.31782,1,1,0.568885,,0,368,368,255,1,2a,27,2,19,
,,,,,,,,,,,,,,,,,,,,,,,,,,images/exp1a_trial_96_colour1_distractors9_l.png,l,1,036,001,2021-04-26_19h52.58.632,searchDisc4,2020.2.10,Win32,60,,,space,0.26887,1,1,0.60393,,0,369,369,96,1,1a,96,1,9,
,,,,,,,,,,,,,,,,,,,,,,,,,,images/exp2c_trial_30_colour3_distractors1_l.png,l,1,036,001,2021-04-26_19h52.58.632,searchDisc4,2020.2.10,Win32,60,,,space,0.25977,1,1,0.5198,,0,370,370,486,1,2c,30,3,1,
,,,,,,,,,,,,,,,,,,,,,,,,,,images/exp2a_trial_78_colour1_distractors9_r.png,r,2,036,001,2021-04-26_19h52.58.632,searchDisc4,2020.2.10,Win32,60,,,space,0.368165,2,1,0.654905,,0,371,371,306,1,2a,78,1,9,
,,,,,,,,,,,,,,,,,,,,,,,,,,images/exp2a_trial_42_colour1_distractors31_r.png,r,2,036,001,2021-04-26_19h52.58.632,searchDisc4,2020.2.10,Win32,60,,,space,0.31091,2,1,1.4783,,0,372,372,270,1,2a,42,1,31,
,,,,,,,,,,,,,,,,,,,,,,,,,,images/exp2c_trial_107_colour3_distractors4_l.png,l,1,036,001,2021-04-26_19h52.58.632,searchDisc4,2020.2.10,Win32,60,,,space,0.284405,1,1,0.59709,,0,373,373,563,1,2c,107,3,4,
,,,,,,,,,,,,,,,,,,,,,,,,,,images/exp1b_trial_83_colour2_distractors4_r.png,r,2,036,001,2021-04-26_19h52.58.632,searchDisc4,2020.2.10,Win32,60,,,space,0.4131,2,1,0.64214,,0,374,374,197,1,1b,83,2,4,
,,,,,,,,,,,,,,,,,,,,,,,,,,images/exp1a_trial_57_colour1_distractors4_l.png,l,1,036,001,2021-04-26_19h52.58.632,searchDisc4,2020.2.10,Win32,60,,,space,0.326645,1,1,0.682845,,0,375,375,57,1,1a,57,1,4,
,,,,,,,,,,,,,,,,,,,,,,,,,,images/exp2b_trial_27_colour2_distractors19_l.png,l,1,036,001,2021-04-26_19h52.58.632,searchDisc4,2020.2.10,Win32,60,,,space,0.3048,1,1,0.732075,,0,376,376,369,1,2b,27,2,19,
,,,,,,,,,,,,,,,,,,,,,,,,,,images/exp1a_trial_90_colour3_distractors9_r.png,r,2,036,001,2021-04-26_19h52.58.632,searchDisc4,2020.2.10,Win32,60,,,space,0.306505,2,1,0.691105,,0,377,377,90,1,1a,90,3,9,
,,,,,,,,,,,,,,,,,,,,,,,,,,images/exp1b_trial_35_colour3_distractors43_l.png,l,1,036,001,2021-04-26_19h52.58.632,searchDisc4,2020.2.10,Win32,60,,,space,0.444635,1,1,0.766625,,0,378,378,149,1,1b,35,3,43,
,,,,,,,,,,,,,,,,,,,,,,,,,,images/exp2a_trial_64_colour2_distractors9_l.png,l,1,036,001,2021-04-26_19h52.58.632,searchDisc4,2020.2.10,Win32,60,,,space,0.23635,1,1,0.54054,,0,379,379,292,1,2a,64,2,9,
,,,,,,,,,,,,,,,,,,,,,,,,,,images/exp2c_trial_2_colour1_distractors9_r.png,r,2,036,001,2021-04-26_19h52.58.632,searchDisc4,2020.2.10,Win32,60,,,space,0.24539,2,1,0.532715,,0,380,380,458,1,2c,2,1,9,
,,,,,,,,,,,,,,,,,,,,,,,,,,images/exp2b_trial_33_colour3_distractors19_l.png,l,1,036,001,2021-04-26_19h52.58.632,searchDisc4,2020.2.10,Win32,60,,,space,0.253705,1,1,0.59818,,0,381,381,375,1,2b,33,3,19,
,,,,,,,,,,,,,,,,,,,,,,,,,,images/exp1b_trial_60_colour1_distractors31_l.png,l,1,036,001,2021-04-26_19h52.58.632,searchDisc4,2020.2.10,Win32,60,,,space,0.26236,1,1,1.20396,,0,382,382,174,1,1b,60,1,31,
,,,,,,,,,,,,,,,,,,,,,,,,,,images/exp2c_trial_65_colour2_distractors19_l.png,l,1,036,001,2021-04-26_19h52.58.632,searchDisc4,2020.2.10,Win32,60,,,space,0.272165,1,1,0.636515,,0,383,383,521,1,2c,65,2,19,
,,,,,,,,,,,,,,,,,,,,,,,,,,images/exp1a_trial_106_colour3_distractors1_l.png,l,1,036,001,2021-04-26_19h52.58.632,searchDisc4,2020.2.10,Win32,60,,,space,0.268665,1,1,0.53902,,0,384,384,106,1,1a,106,3,1,
,,,,,,,,,,,,,,,,,,,,,,,,,,images/exp2c_trial_113_colour0_distractors0_l.png,l,1,036,001,2021-04-26_19h52.58.632,searchDisc4,2020.2.10,Win32,60,,,space,0.341675,1,1,0.510205,,0,385,385,569,1,2c,113,0,0,
,,,,,,,,,,,,,,,,,,,,,,,,,,images/exp2b_trial_3_colour1_distractors19_r.png,r,2,036,001,2021-04-26_19h52.58.632,searchDisc4,2020.2.10,Win32,60,,,space,0.312695,2,1,0.62867,,0,386,386,345,1,2b,3,1,19,
,,,,,,,,,,,,,,,,,,,,,,,,,,images/exp1a_trial_29_colour2_distractors43_l.png,l,1,036,001,2021-04-26_19h52.58.632,searchDisc4,2020.2.10,Win32,60,,,space,0.312705,1,1,1.996585,,0,387,387,29,1,1a,29,2,43,
,,,,,,,,,,,,,,,,,,,,,,,,,,images/exp1a_trial_23_colour1_distractors43_l.png,l,1,036,001,2021-04-26_19h52.58.632,searchDisc4,2020.2.10,Win32,60,,,space,0.29518,1,1,0.5405,,0,388,388,23,1,1a,23,1,43,
,,,,,,,,,,,,,,,,,,,,,,,,,,images/exp1a_trial_104_colour2_distractors31_l.png,l,1,036,001,2021-04-26_19h52.58.632,searchDisc4,2020.2.10,Win32,60,,,space,0.30469,1,1,0.92751,,0,389,389,104,1,1a,104,2,31,
,,,,,,,,,,,,,,,,,,,,,,,,,,images/exp2c_trial_108_colour3_distractors9_l.png,l,1,036,001,2021-04-26_19h52.58.632,searchDisc4,2020.2.10,Win32,60,,,space,0.29881,1,1,0.526045,,0,390,390,564,1,2c,108,3,9,
,,,,,,,,,,,,,,,,,,,,,,,,,,images/exp2a_trial_6_colour2_distractors1_r.png,r,2,036,001,2021-04-26_19h52.58.632,searchDisc4,2020.2.10,Win32,60,,,space,0.25665,2,1,0.667735,,0,391,391,234,1,2a,6,2,1,
,,,,,,,,,,,,,,,,,,,,,,,,,,images/exp1b_trial_2_colour1_distractors9_r.png,r,2,036,001,2021-04-26_19h52.58.632,searchDisc4,2020.2.10,Win32,60,,,space,0.26282,2,1,0.778535,,0,392,392,116,1,1b,2,1,9,
,,,,,,,,,,,,,,,,,,,,,,,,,,images/exp2b_trial_25_colour2_distractors4_l.png,l,1,036,001,2021-04-26_19h52.58.632,searchDisc4,2020.2.10,Win32,60,,,space,0.224645,1,1,0.45986,,0,393,393,367,1,2b,25,2,4,
,,,,,,,,,,,,,,,,,,,,,,,,,,images/exp2b_trial_18_colour1_distractors1_l.png,l,1,036,001,2021-04-26_19h52.58.632,searchDisc4,2020.2.10,Win32,60,,,space,0.2876,1,1,0.621715,,0,394,394,360,1,2b,18,1,1,
,,,,,,,,,,,,,,,,,,,,,,,,,,images/exp2c_trial_22_colour1_distractors31_l.png,l,1,036,001,2021-04-26_19h52.58.632,searchDisc4,2020.2.10,Win32,60,,,space,0.28745,1,1,0.60744,,0,395,395,478,1,2c,22,1,31,
,,,,,,,,,,,,,,,,,,,,,,,,,,images/exp1a_trial_69_colour3_distractors4_l.png,l,1,036,001,2021-04-26_19h52.58.632,searchDisc4,2020.2.10,Win32,60,,,space,0.318935,2,0,1.3469,,0,396,396,69,1,1a,69,3,4,
,,,,,,,,,,,,,,,,,,,,,,,,,,images/exp1a_trial_53_colour3_distractors19_r.png,r,2,036,001,2021-04-26_19h52.58.632,searchDisc4,2020.2.10,Win32,60,,,space,0.52004,2,1,0.710415,,0,397,397,53,1,1a,53,3,19,
,,,,,,,,,,,,,,,,,,,,,,,,,,images/exp2a_trial_8_colour2_distractors9_r.png,r,2,036,001,2021-04-26_19h52.58.632,searchDisc4,2020.2.10,Win32,60,,,space,0.29304,2,1,0.51634,,0,398,398,236,1,2a,8,2,9,
,,,,,,,,,,,,,,,,,,,,,,,,,,images/exp1b_trial_17_colour3_distractors43_r.png,r,2,036,001,2021-04-26_19h52.58.632,searchDisc4,2020.2.10,Win32,60,,,space,0.401965,2,1,1.37848,,0,399,399,131,1,1b,17,3,43,
,,,,,,,,,,,,,,,,,,,,,,,,,,images/exp2c_trial_79_colour1_distractors19_r.png,r,2,036,001,2021-04-26_19h52.58.632,searchDisc4,2020.2.10,Win32,60,,,space,0.352725,2,1,0.579485,,0,400,400,535,1,2c,79,1,19,
,,,,,,,,,,,,,,,,,,,,,,,,,,images/exp1a_trial_36_colour0_distractors0_r.png,r,2,036,001,2021-04-26_19h52.58.632,searchDisc4,2020.2.10,Win32,60,,,space,0.345595,2,1,2.787965,,0,401,401,36,1,1a,36,0,0,
,,,,,,,,,,,,,,,,,,,,,,,,,,images/exp2c_trial_66_colour2_distractors31_l.png,l,1,036,001,2021-04-26_19h52.58.632,searchDisc4,2020.2.10,Win32,60,,,space,0.336945,1,1,0.549115,,0,402,402,522,1,2c,66,2,31,
,,,,,,,,,,,,,,,,,,,,,,,,,,images/exp1b_trial_27_colour2_distractors19_l.png,l,1,036,001,2021-04-26_19h52.58.632,searchDisc4,2020.2.10,Win32,60,,,space,0.38743,1,1,0.703035,,0,403,403,141,1,1b,27,2,19,
,,,,,,,,,,,,,,,,,,,,,,,,,,images/exp2b_trial_94_colour1_distractors1_l.png,l,1,036,001,2021-04-26_19h52.58.632,searchDisc4,2020.2.10,Win32,60,,,space,0.288285,1,1,0.525975,,0,404,404,436,1,2b,94,1,1,
,,,,,,,,,,,,,,,,,,,,,,,,,,images/exp2b_trial_42_colour1_distractors31_r.png,r,2,036,001,2021-04-26_19h52.58.632,searchDisc4,2020.2.10,Win32,60,,,space,0.394195,2,1,0.61206,,0,405,405,384,1,2b,42,1,31,
,,,,,,,,,,,,,,,,,,,,,,,,,,images/exp1b_trial_23_colour1_distractors43_l.png,l,1,036,001,2021-04-26_19h52.58.632,searchDisc4,2020.2.10,Win32,60,,,space,0.32949,1,1,0.825645,,0,406,406,137,1,1b,23,1,43,
,,,,,,,,,,,,,,,,,,,,,,,,,,images/exp2a_trial_65_colour2_distractors19_l.png,l,1,036,001,2021-04-26_19h52.58.632,searchDisc4,2020.2.10,Win32,60,,,space,0.300355,1,1,0.668485,,0,407,407,293,1,2a,65,2,19,
,,,,,,,,,,,,,,,,,,,,,,,,,,images/exp1a_trial_14_colour3_distractors9_r.png,r,2,036,001,2021-04-26_19h52.58.632,searchDisc4,2020.2.10,Win32,60,,,space,0.290275,2,1,1.42979,,0,408,408,14,1,1a,14,3,9,
,,,,,,,,,,,,,,,,,,,,,,,,,,images/exp2b_trial_84_colour2_distractors9_r.png,r,2,036,001,2021-04-26_19h52.58.632,searchDisc4,2020.2.10,Win32,60,,,space,0.26925,2,1,0.586845,,0,409,409,426,1,2b,84,2,9,
,,,,,,,,,,,,,,,,,,,,,,,,,,images/exp1b_trial_92_colour3_distractors31_r.png,r,2,036,001,2021-04-26_19h52.58.632,searchDisc4,2020.2.10,Win32,60,,,space,0.25715,2,1,1.915085,,0,410,410,206,1,1b,92,3,31,
,,,,,,,,,,,,,,,,,,,,,,,,,,images/exp2a_trial_39_colour1_distractors4_r.png,r,2,036,001,2021-04-26_19h52.58.632,searchDisc4,2020.2.10,Win32,60,,,space,0.219025,2,1,0.559235,,0,411,411,267,1,2a,39,1,4,
,,,,,,,,,,,,,,,,,,,,,,,,,,images/exp2b_trial_60_colour1_distractors31_l.png,l,1,036,001,2021-04-26_19h52.58.632,searchDisc4,2020.2.10,Win32,60,,,space,0.24784,1,1,0.544585,,0,412,412,402,1,2b,60,1,31,
,,,,,,,,,,,,,,,,,,,,,,,,,,images/exp2a_trial_16_colour3_distractors31_r.png,r,2,036,001,2021-04-26_19h52.58.632,searchDisc4,2020.2.10,Win32,60,,,space,0.236615,2,1,0.678815,,0,413,413,244,1,2a,16,3,31,
,,,,,,,,,,,,,,,,,,,,,,,,,,images/exp2c_trial_96_colour1_distractors9_l.png,l,1,036,001,2021-04-26_19h52.58.632,searchDisc4,2020.2.10,Win32,60,,,space,0.21967,1,1,0.567265,,0,414,414,552,1,2c,96,1,9,
,,,,,,,,,,,,,,,,,,,,,,,,,,images/exp1a_trial_45_colour2_distractors4_r.png,r,2,036,001,2021-04-26_19h52.58.632,searchDisc4,2020.2.10,Win32,60,,,space,0.2869,2,1,1.106515,,0,415,415,45,1,1a,45,2,4,
,,,,,,,,,,,,,,,,,,,,,,,,,,images/exp1b_trial_103_colour2_distractors19_l.png,l,1,036,001,2021-04-26_19h52.58.632,searchDisc4,2020.2.10,Win32,60,,,space,0.237235,1,1,0.718075,,0,416,416,217,1,1b,103,2,19,
,,,,,,,,,,,,,,,,,,,,,,,,,,images/exp2b_trial_73_colour3_distractors43_l.png,l,1,036,001,2021-04-26_19h52.58.632,searchDisc4,2020.2.10,Win32,60,,,space,0.26392,1,1,0.881205,,0,417,417,415,1,2b,73,3,43,
,,,,,,,,,,,,,,,,,,,,,,,,,,images/exp2c_trial_45_colour2_distractors4_r.png,r,2,036,001,2021-04-26_19h52.58.632,searchDisc4,2020.2.10,Win32,60,,,space,0.268755,2,1,0.669705,,0,418,418,501,1,2c,45,2,4,
,,,,,,,,,,,,,,,,,,,,,,,,,,images/exp2a_trial_92_colour3_distractors31_r.png,r,2,036,001,2021-04-26_19h52.58.632,searchDisc4,2020.2.10,Win32,60,,,space,0.32165,2,1,0.547935,space,0,419,419,320,1,2a,92,3,31,4.810995
,,,,,,,,,,,,,,,,,,,,,,,,,,images/exp1b_trial_81_colour1_distractors43_r.png,r,2,036,001,2021-04-26_19h52.58.632,searchDisc4,2020.2.10,Win32,60,,,space,0.59629,2,1,0.733275,,0,420,420,195,1,1b,81,1,43,
,,,,,,,,,,,,,,,,,,,,,,,,,,images/exp2a_trial_23_colour1_distractors43_l.png,l,1,036,001,2021-04-26_19h52.58.632,searchDisc4,2020.2.10,Win32,60,,,space,0.256925,1,1,0.707875,,0,421,421,251,1,2a,23,1,43,
,,,,,,,,,,,,,,,,,,,,,,,,,,images/exp2b_trial_2_colour1_distractors9_r.png,r,2,036,001,2021-04-26_19h52.58.632,searchDisc4,2020.2.10,Win32,60,,,space,0.223135,2,1,0.669495,,0,422,422,344,1,2b,2,1,9,
,,,,,,,,,,,,,,,,,,,,,,,,,,images/exp2b_trial_30_colour3_distractors1_l.png,l,1,036,001,2021-04-26_19h52.58.632,searchDisc4,2020.2.10,Win32,60,,,space,0.26398,1,1,0.75656,,0,423,423,372,1,2b,30,3,1,
,,,,,,,,,,,,,,,,,,,,,,,,,,images/exp2b_trial_107_colour3_distractors4_l.png,l,1,036,001,2021-04-26_19h52.58.632,searchDisc4,2020.2.10,Win32,60,,,space,0.285325,1,1,0.50883,,0,424,424,449,1,2b,107,3,4,
,,,,,,,,,,,,,,,,,,,,,,,,,,images/exp1b_trial_100_colour2_distractors1_l.png,l,1,036,001,2021-04-26_19h52.58.632,searchDisc4,2020.2.10,Win32,60,,,space,0.338345,1,1,0.513965,,0,425,425,214,1,1b,100,2,1,
,,,,,,,,,,,,,,,,,,,,,,,,,,images/exp2c_trial_71_colour3_distractors19_l.png,l,1,036,001,2021-04-26_19h52.58.632,searchDisc4,2020.2.10,Win32,60,,,space,0.34092,1,1,0.515585,,0,426,426,527,1,2c,71,3,19,
,,,,,,,,,,,,,,,,,,,,,,,,,,images/exp2c_trial_1_colour1_distractors4_r.png,r,2,036,001,2021-04-26_19h52.58.632,searchDisc4,2020.2.10,Win32,60,,,space,0.487325,2,1,0.552175,,0,427,427,457,1,2c,1,1,4,
,,,,,,,,,,,,,,,,,,,,,,,,,,images/exp1b_trial_82_colour2_distractors1_r.png,r,2,036,001,2021-04-26_19h52.58.632,searchDisc4,2020.2.10,Win32,60,,,space,0.303745,2,1,0.78535,,0,428,428,196,1,1b,82,2,1,
,,,,,,,,,,,,,,,,,,,,,,,,,,images/exp1b_trial_59_colour1_distractors19_l.png,l,1,036,001,2021-04-26_19h52.58.632,searchDisc4,2020.2.10,Win32,60,,,space,0.297955,1,1,0.666935,,0,429,429,173,1,1b,59,1,19,
,,,,,,,,,,,,,,,,,,,,,,,,,,images/exp2c_trial_23_colour1_distractors43_l.png,l,1,036,001,2021-04-26_19h52.58.632,searchDisc4,2020.2.10,Win32,60,,,space,0.305565,1,1,0.57234,,0,430,430,479,1,2c,23,1,43,
,,,,,,,,,,,,,,,,,,,,,,,,,,images/exp2b_trial_52_colour3_distractors9_r.png,r,2,036,001,2021-04-26_19h52.58.632,searchDisc4,2020.2.10,Win32,60,,,space,0.31785,2,1,1.181465,,0,431,431,394,1,2b,52,3,9,
,,,,,,,,,,,,,,,,,,,,,,,,,,images/exp1a_trial_100_colour2_distractors1_l.png,l,1,036,001,2021-04-26_19h52.58.632,searchDisc4,2020.2.10,Win32,60,,,space,0.33351,1,1,0.65199,,0,432,432,100,1,1a,100,2,1,
,,,,,,,,,,,,,,,,,,,,,,,,,,images/exp2a_trial_54_colour3_distractors31_r.png,r,2,036,001,2021-04-26_19h52.58.632,searchDisc4,2020.2.10,Win32,60,,,space,0.30132,2,1,0.539035,,0,433,433,282,1,2a,54,3,31,
,,,,,,,,,,,,,,,,,,,,,,,,,,images/exp2b_trial_72_colour3_distractors31_l.png,l,1,036,001,2021-04-26_19h52.58.632,searchDisc4,2020.2.10,Win32,60,,,space,0.307275,1,1,0.79293,,0,434,434,414,1,2b,72,3,31,
,,,,,,,,,,,,,,,,,,,,,,,,,,images/exp1a_trial_0_colour1_distractors1_r.png,r,2,036,001,2021-04-26_19h52.58.632,searchDisc4,2020.2.10,Win32,60,,,space,0.2918,2,1,1.64068,,0,435,435,0,1,1a,0,1,1,
,,,,,,,,,,,,,,,,,,,,,,,,,,images/exp1a_trial_42_colour1_distractors31_r.png,r,2,036,001,2021-04-26_19h52.58.632,searchDisc4,2020.2.10,Win32,60,,,space,0.248295,2,1,0.773965,,0,436,436,42,1,1a,42,1,31,
,,,,,,,,,,,,,,,,,,,,,,,,,,images/exp1b_trial_44_colour2_distractors1_r.png,r,2,036,001,2021-04-26_19h52.58.632,searchDisc4,2020.2.10,Win32,60,,,space,0.295685,2,1,0.503045,,0,437,437,158,1,1b,44,2,1,
,,,,,,,,,,,,,,,,,,,,,,,,,,images/exp1b_trial_78_colour1_distractors9_r.png,r,2,036,001,2021-04-26_19h52.58.632,searchDisc4,2020.2.10,Win32,60,,,space,0.303455,2,1,0.669575,,0,438,438,192,1,1b,78,1,9,
,,,,,,,,,,,,,,,,,,,,,,,,,,images/exp2c_trial_81_colour1_distractors43_r.png,r,2,036,001,2021-04-26_19h52.58.632,searchDisc4,2020.2.10,Win32,60,,,space,0.33284,2,1,0.490075,,0,439,439,537,1,2c,81,1,43,
,,,,,,,,,,,,,,,,,,,,,,,,,,images/exp2a_trial_90_colour3_distractors9_r.png,r,2,036,001,2021-04-26_19h52.58.632,searchDisc4,2020.2.10,Win32,60,,,space,0.346125,2,1,0.48434,,0,440,440,318,1,2a,90,3,9,
,,,,,,,,,,,,,,,,,,,,,,,,,,images/exp1a_trial_54_colour3_distractors31_r.png,r,2,036,001,2021-04-26_19h52.58.632,searchDisc4,2020.2.10,Win32,60,,,space,0.38169,2,1,0.514245,,0,441,441,54,1,1a,54,3,31,
,,,,,,,,,,,,,,,,,,,,,,,,,,images/exp1b_trial_4_colour1_distractors31_r.png,r,2,036,001,2021-04-26_19h52.58.632,searchDisc4,2020.2.10,Win32,60,,,space,0.3516,2,1,0.61069,,0,442,442,118,1,1b,4,1,31,
,,,,,,,,,,,,,,,,,,,,,,,,,,images/exp2a_trial_86_colour2_distractors31_r.png,r,2,036,001,2021-04-26_19h52.58.632,searchDisc4,2020.2.10,Win32,60,,,space,0.32572,2,1,0.456325,,0,443,443,314,1,2a,86,2,31,
,,,,,,,,,,,,,,,,,,,,,,,,,,images/exp1a_trial_1_colour1_distractors4_r.png,r,2,036,001,2021-04-26_19h52.58.632,searchDisc4,2020.2.10,Win32,60,,,space,0.34859,2,1,0.537665,,0,444,444,1,1,1a,1,1,4,
,,,,,,,,,,,,,,,,,,,,,,,,,,images/exp1b_trial_89_colour3_distractors4_r.png,r,2,036,001,2021-04-26_19h52.58.632,searchDisc4,2020.2.10,Win32,60,,,space,0.27796,2,1,3.842175,,0,445,445,203,1,1b,89,3,4,
,,,,,,,,,,,,,,,,,,,,,,,,,,images/exp1a_trial_50_colour3_distractors1_r.png,r,2,036,001,2021-04-26_19h52.58.632,searchDisc4,2020.2.10,Win32,60,,,space,0.197565,2,1,0.744355,,0,446,446,50,1,1a,50,3,1,
,,,,,,,,,,,,,,,,,,,,,,,,,,images/exp1a_trial_61_colour1_distractors43_l.png,l,1,036,001,2021-04-26_19h52.58.632,searchDisc4,2020.2.10,Win32,60,,,space,0.24308,1,1,0.8864,,0,447,447,61,1,1a,61,1,43,
,,,,,,,,,,,,,,,,,,,,,,,,,,images/exp2c_trial_87_colour2_distractors43_r.png,r,2,036,001,2021-04-26_19h52.58.632,searchDisc4,2020.2.10,Win32,60,,,space,0.23547,2,1,0.929325,,0,448,448,543,1,2c,87,2,43,
,,,,,,,,,,,,,,,,,,,,,,,,,,images/exp2a_trial_58_colour1_distractors9_l.png,l,1,036,001,2021-04-26_19h52.58.632,searchDisc4,2020.2.10,Win32,60,,,space,0.220855,1,1,0.745355,,0,449,449,286,1,2a,58,1,9,
,,,,,,,,,,,,,,,,,,,,,,,,,,images/exp2c_trial_92_colour3_distractors31_r.png,r,2,036,001,2021-04-26_19h52.58.632,searchDisc4,2020.2.10,Win32,60,,,space,0.25263,2,1,0.68658,,0,450,450,548,1,2c,92,3,31,
,,,,,,,,,,,,,,,,,,,,,,,,,,images/exp2c_trial_67_colour2_distractors43_l.png,l,1,036,001,2021-04-26_19h52.58.632,searchDisc4,2020.2.10,Win32,60,,,space,0.19459,1,1,0.92536,,0,451,451,523,1,2c,67,2,43,
,,,,,,,,,,,,,,,,,,,,,,,,,,images/exp1a_trial_20_colour1_distractors9_l.png,l,1,036,001,2021-04-26_19h52.58.632,searchDisc4,2020.2.10,Win32,60,,,space,0.26576,1,1,0.58688,,0,452,452,20,1,1a,20,1,9,
,,,,,,,,,,,,,,,,,,,,,,,,,,images/exp1b_trial_22_colour1_distractors31_l.png,l,1,036,001,2021-04-26_19h52.58.632,searchDisc4,2020.2.10,Win32,60,,,space,0.28304,1,1,1.085665,,0,453,453,136,1,1b,22,1,31,
,,,,,,,,,,,,,,,,,,,,,,,,,,images/exp1b_trial_63_colour2_distractors4_l.png,l,1,036,001,2021-04-26_19h52.58.632,searchDisc4,2020.2.10,Win32,60,,,space,0.251245,1,1,0.934455,,0,454,454,177,1,1b,63,2,4,
,,,,,,,,,,,,,,,,,,,,,,,,,,images/exp2a_trial_91_colour3_distractors19_r.png,r,2,036,001,2021-04-26_19h52.58.632,searchDisc4,2020.2.10,Win32,60,,,space,0.268885,2,1,0.460435,,0,455,455,319,1,2a,91,3,19,
,,,,,,,,,,,,,,,,,,,,,,,,,,images/exp2a_trial_10_colour2_distractors31_r.png,r,2,036,001,2021-04-26_19h52.58.632,searchDisc4,2020.2.10,Win32,60,,,space,0.26281,2,1,0.49829,,0,456,456,238,1,2a,10,2,31,
,,,,,,,,,,,,,,,,,,,,,,,,,,images/exp2b_trial_44_colour2_distractors1_r.png,r,2,036,001,2021-04-26_19h52.58.632,searchDisc4,2020.2.10,Win32,60,,,space,0.264345,2,1,0.434795,,0,457,457,386,1,2b,44,2,1,
,,,,,,,,,,,,,,,,,,,,,,,,,,images/exp2c_trial_0_colour1_distractors1_r.png,r,2,036,001,2021-04-26_19h52.58.632,searchDisc4,2020.2.10,Win32,60,,,space,0.28493,2,1,0.397535,,0,458,458,456,1,2c,0,1,1,
,,,,,,,,,,,,,,,,,,,,,,,,,,images/exp2c_trial_37_colour0_distractors0_l.png,l,1,036,001,2021-04-26_19h52.58.632,searchDisc4,2020.2.10,Win32,60,,,space,0.33239,1,1,0.39015,,0,459,459,493,1,2c,37,0,0,
,,,,,,,,,,,,,,,,,,,,,,,,,,images/exp2c_trial_5_colour1_distractors43_r.png,r,2,036,001,2021-04-26_19h52.58.632,searchDisc4,2020.2.10,Win32,60,,,space,0.327075,2,1,0.51542,,0,460,460,461,1,2c,5,1,43,
,,,,,,,,,,,,,,,,,,,,,,,,,,images/exp2b_trial_47_colour2_distractors19_r.png,r,2,036,001,2021-04-26_19h52.58.632,searchDisc4,2020.2.10,Win32,60,,,space,0.296995,2,1,0.465435,,0,461,461,389,1,2b,47,2,19,
,,,,,,,,,,,,,,,,,,,,,,,,,,images/exp2c_trial_58_colour1_distractors9_l.png,l,1,036,001,2021-04-26_19h52.58.632,searchDisc4,2020.2.10,Win32,60,,,space,0.255515,1,1,0.433935,,0,462,462,514,1,2c,58,1,9,
,,,,,,,,,,,,,,,,,,,,,,,,,,images/exp1a_trial_112_colour0_distractors0_r.png,r,2,036,001,2021-04-26_19h52.58.632,searchDisc4,2020.2.10,Win32,60,,,space,0.289885,2,1,0.55431,,0,463,463,112,1,1a,112,0,0,
,,,,,,,,,,,,,,,,,,,,,,,,,,images/exp1b_trial_19_colour1_distractors4_l.png,l,1,036,001,2021-04-26_19h52.58.632,searchDisc4,2020.2.10,Win32,60,,,space,0.26605,1,1,0.56419,,0,464,464,133,1,1b,19,1,4,
,,,,,,,,,,,,,,,,,,,,,,,,,,images/exp1b_trial_107_colour3_distractors4_l.png,l,1,036,001,2021-04-26_19h52.58.632,searchDisc4,2020.2.10,Win32,60,,,space,0.280805,2,0,0.863425,,0,465,465,221,1,1b,107,3,4,
,,,,,,,,,,,,,,,,,,,,,,,,,,images/exp1b_trial_10_colour2_distractors31_r.png,r,2,036,001,2021-04-26_19h52.58.632,searchDisc4,2020.2.10,Win32,60,,,space,0.518755,2,1,0.63237,,0,466,466,124,1,1b,10,2,31,
,,,,,,,,,,,,,,,,,,,,,,,,,,images/exp1b_trial_101_colour2_distractors4_l.png,l,1,036,001,2021-04-26_19h52.58.632,searchDisc4,2020.2.10,Win32,60,,,space,0.265175,1,1,0.4851,,0,467,467,215,1,1b,101,2,4,
,,,,,,,,,,,,,,,,,,,,,,,,,,images/exp2c_trial_91_colour3_distractors19_r.png,r,2,036,001,2021-04-26_19h52.58.632,searchDisc4,2020.2.10,Win32,60,,,space,0.263675,2,1,0.67464,,0,468,468,547,1,2c,91,3,19,
,,,,,,,,,,,,,,,,,,,,,,,,,,images/exp2c_trial_13_colour3_distractors4_r.png,r,2,036,001,2021-04-26_19h52.58.632,searchDisc4,2020.2.10,Win32,60,,,space,0.2691,2,1,0.4554,,0,469,469,469,1,2c,13,3,4,
,,,,,,,,,,,,,,,,,,,,,,,,,,images/exp2b_trial_109_colour3_distractors19_l.png,l,1,036,001,2021-04-26_19h52.58.632,searchDisc4,2020.2.10,Win32,60,,,space,0.27788,1,1,0.52519,,0,470,470,451,1,2b,109,3,19,
,,,,,,,,,,,,,,,,,,,,,,,,,,images/exp2c_trial_32_colour3_distractors9_l.png,l,1,036,001,2021-04-26_19h52.58.632,searchDisc4,2020.2.10,Win32,60,,,space,0.264095,1,1,0.592265,,0,471,471,488,1,2c,32,3,9,
,,,,,,,,,,,,,,,,,,,,,,,,,,images/exp2a_trial_11_colour2_distractors43_r.png,r,2,036,001,2021-04-26_19h52.58.632,searchDisc4,2020.2.10,Win32,60,,,space,0.309575,2,1,0.64151,,0,472,472,239,1,2a,11,2,43,
,,,,,,,,,,,,,,,,,,,,,,,,,,images/exp1b_trial_42_colour1_distractors31_r.png,r,2,036,001,2021-04-26_19h52.58.632,searchDisc4,2020.2.10,Win32,60,,,space,0.24329,2,1,0.52891,,0,473,473,156,1,1b,42,1,31,
,,,,,,,,,,,,,,,,,,,,,,,,,,images/exp2c_trial_33_colour3_distractors19_l.png,l,1,036,001,2021-04-26_19h52.58.632,searchDisc4,2020.2.10,Win32,60,,,space,0.25313,1,1,0.45537,,0,474,474,489,1,2c,33,3,19,
,,,,,,,,,,,,,,,,,,,,,,,,,,images/exp1b_trial_47_colour2_distractors19_r.png,r,2,036,001,2021-04-26_19h52.58.632,searchDisc4,2020.2.10,Win32,60,,,space,0.26509,2,1,0.75592,,0,475,475,161,1,1b,47,2,19,
,,,,,,,,,,,,,,,,,,,,,,,,,,images/exp2b_trial_78_colour1_distractors9_r.png,r,2,036,001,2021-04-26_19h52.58.632,searchDisc4,2020.2.10,Win32,60,,,space,0.27714,2,1,0.484555,,0,476,476,420,1,2b,78,1,9,
