X Scale,Y Scale,key_resp_10.keys,key_resp_10.rt,key_resp_11.keys,key_resp_11.rt,key_resp_12.keys,key_resp_12.rt,key_resp_13.keys,key_resp_13.rt,key_resp_5.keys,key_resp_5.rt,key_resp_8.keys,key_resp_8.rt,key_resp_6.keys,key_resp_6.rt,key_resp_7.keys,key_resp_7.rt,key_resp_4.keys,key_resp_4.corr,key_resp_4.rt,trials_2.thisRepN,trials_2.thisTrialN,trials_2.thisN,trials_2.thisIndex,trials_2.ran,ImageFile,targ_side,correctAnswer,participant,session,date,expName,psychopyVersion,OS,frameRate,key_resp_3.keys,key_resp_3.rt,key_resp_9.keys,key_resp_9.rt,key_resp_2.keys,key_resp_2.corr,key_resp_2.rt,key_resp.keys,trials.thisRepN,trials.thisTrialN,trials.thisN,trials.thisIndex,trials.ran,exp,trial,colour,distNo,key_resp.rt
36.5,36.8,space,1.116,space,6.252,space,1.231,space,0.414,space,0.76,space,0.793,space,1,space,0.566,1,1,0.649,0,0,0,15,1,Practice arrays/exp1a_trial_32_colour3_distractors9_l.png,l,1,037,001,2021-04-26_22h15.38.453,searchDisc4,2020.2.10,MacIntel,60,,,,,,,,,,,,,,,,,,
,,,,,,,,,,,,,,,,space,0.562,2,1,0.515,0,1,1,3,1,Practice arrays/exp1a_trial_7_colour2_distractors4_r.png,r,2,037,001,2021-04-26_22h15.38.453,searchDisc4,2020.2.10,MacIntel,60,,,,,,,,,,,,,,,,,,
,,,,,,,,,,,,,,,,space,0.58,1,1,0.51,0,2,2,9,1,Practice arrays/exp1a_trial_19_colour1_distractors4_l.png,l,1,037,001,2021-04-26_22h15.38.453,searchDisc4,2020.2.10,MacIntel,60,,,,,,,,,,,,,,,,,,
,,,,,,,,,,,,,,,,space,0.409,2,1,0.55,0,3,3,8,1,Practice arrays/exp1a_trial_16_colour3_distractors31_r.png,r,2,037,001,2021-04-26_22h15.38.453,searchDisc4,2020.2.10,MacIntel,60,,,,,,,,,,,,,,,,,,
,,,,,,,,,,,,,,,,space,0.52,2,1,0.831,0,4,4,5,1,Practice arrays/exp1a_trial_10_colour2_distractors31_r.png,r,2,037,001,2021-04-26_22h15.38.453,searchDisc4,2020.2.10,MacIntel,60,,,,,,,,,,,,,,,,,,
,,,,,,,,,,,,,,,,space,0.041,1,1,0.73,0,5,5,10,1,Practice arrays/exp1a_trial_20_colour1_distractors9_l.png,l,1,037,001,2021-04-26_22h15.38.453,searchDisc4,2020.2.10,MacIntel,60,,,,,,,,,,,,,,,,,,
,,,,,,,,,,,,,,,,space,0.561,2,1,0.672,0,6,6,6,1,Practice arrays/exp1a_trial_12_colour3_distractors1_r.png,r,2,037,001,2021-04-26_22h15.38.453,searchDisc4,2020.2.10,MacIntel,60,,,,,,,,,,,,,,,,,,
,,,,,,,,,,,,,,,,space,0.441,2,1,0.805,0,7,7,2,1,Practice arrays/exp1a_trial_5_colour1_distractors43_r.png,r,2,037,001,2021-04-26_22h15.38.453,searchDisc4,2020.2.10,MacIntel,60,,,,,,,,,,,,,,,,,,
,,,,,,,,,,,,,,,,space,0.182,2,1,0.592,0,8,8,0,1,Practice arrays/exp1a_trial_0_colour1_distractors1_r.png,r,2,037,001,2021-04-26_22h15.38.453,searchDisc4,2020.2.10,MacIntel,60,,,,,,,,,,,,,,,,,,
,,,,,,,,,,,,,,,,space,0.305,1,1,0.531,0,9,9,19,1,Practice arrays/exp1a_trial_37_colour0_distractors0_l.png,l,1,037,001,2021-04-26_22h15.38.453,searchDisc4,2020.2.10,MacIntel,60,,,,,,,,,,,,,,,,,,
,,,,,,,,,,,,,,,,space,0.579,1,1,0.57,0,10,10,17,1,Practice arrays/exp1a_trial_35_colour3_distractors43_l.png,l,1,037,001,2021-04-26_22h15.38.453,searchDisc4,2020.2.10,MacIntel,60,,,,,,,,,,,,,,,,,,
,,,,,,,,,,,,,,,,space,0.3,2,1,0.81,0,11,11,1,1,Practice arrays/exp1a_trial_3_colour1_distractors19_r.png,r,2,037,001,2021-04-26_22h15.38.453,searchDisc4,2020.2.10,MacIntel,60,,,,,,,,,,,,,,,,,,
,,,,,,,,,,,,,,,,space,3.76,1,1,0.572,0,12,12,13,1,Practice arrays/exp1a_trial_28_colour2_distractors31_l.png,l,1,037,001,2021-04-26_22h15.38.453,searchDisc4,2020.2.10,MacIntel,60,,,,,,,,,,,,,,,,,,
,,,,,,,,,,,,,,,,space,0.539,2,1,0.55,0,13,13,7,1,Practice arrays/exp1a_trial_13_colour3_distractors4_r.png,r,2,037,001,2021-04-26_22h15.38.453,searchDisc4,2020.2.10,MacIntel,60,,,,,,,,,,,,,,,,,,
,,,,,,,,,,,,,,,,space,0.362,2,1,0.552,0,14,14,18,1,Practice arrays/exp1a_trial_36_colour0_distractors0_r.png,r,2,037,001,2021-04-26_22h15.38.453,searchDisc4,2020.2.10,MacIntel,60,,,,,,,,,,,,,,,,,,
,,,,,,,,,,,,,,,,space,0.444,1,1,0.673,0,15,15,16,1,Practice arrays/exp1a_trial_33_colour3_distractors19_l.png,l,1,037,001,2021-04-26_22h15.38.453,searchDisc4,2020.2.10,MacIntel,60,,,,,,,,,,,,,,,,,,
,,,,,,,,,,,,,,,,space,0.384,2,1,0.512,0,16,16,4,1,Practice arrays/exp1a_trial_8_colour2_distractors9_r.png,r,2,037,001,2021-04-26_22h15.38.453,searchDisc4,2020.2.10,MacIntel,60,,,,,,,,,,,,,,,,,,
,,,,,,,,,,,,,,,,space,0.36,1,1,0.629,0,17,17,11,1,Practice arrays/exp1a_trial_21_colour1_distractors19_l.png,l,1,037,001,2021-04-26_22h15.38.453,searchDisc4,2020.2.10,MacIntel,60,,,,,,,,,,,,,,,,,,
,,,,,,,,,,,,,,,,space,0.003,1,1,0.91,0,18,18,12,1,Practice arrays/exp1a_trial_25_colour2_distractors4_l.png,l,1,037,001,2021-04-26_22h15.38.453,searchDisc4,2020.2.10,MacIntel,60,,,,,,,,,,,,,,,,,,
,,,,,,,,,,,,,,,,space,1.401,1,1,0.53,0,19,19,14,1,Practice arrays/exp1a_trial_29_colour2_distractors43_l.png,l,1,037,001,2021-04-26_22h15.38.453,searchDisc4,2020.2.10,MacIntel,60,,,,,,,,,,,,,,,,,,
,,,,,,,,,,,,,,,,,,,,,,,,,,images/exp2a_trial_101_colour2_distractors4_l.png,l,1,037,001,2021-04-26_22h15.38.453,searchDisc4,2020.2.10,MacIntel,60,space,6.527,space,0.616,1,1,0.611,,0,0,0,329,1,2a,101,2,4,
,,,,,,,,,,,,,,,,,,,,,,,,,,images/exp1b_trial_41_colour1_distractors19_r.png,r,2,037,001,2021-04-26_22h15.38.453,searchDisc4,2020.2.10,MacIntel,60,,,space,0.68,2,1,0.634,,0,1,1,155,1,1b,41,1,19,
,,,,,,,,,,,,,,,,,,,,,,,,,,images/exp2a_trial_105_colour2_distractors43_l.png,l,1,037,001,2021-04-26_22h15.38.453,searchDisc4,2020.2.10,MacIntel,60,,,space,0.419,1,1,0.528,,0,2,2,333,1,2a,105,2,43,
,,,,,,,,,,,,,,,,,,,,,,,,,,images/exp2a_trial_77_colour1_distractors4_r.png,r,2,037,001,2021-04-26_22h15.38.453,searchDisc4,2020.2.10,MacIntel,60,,,space,0.417,2,1,0.51,,0,3,3,305,1,2a,77,1,4,
,,,,,,,,,,,,,,,,,,,,,,,,,,images/exp2b_trial_70_colour3_distractors9_l.png,l,1,037,001,2021-04-26_22h15.38.453,searchDisc4,2020.2.10,MacIntel,60,,,space,0.379,1,1,0.632,,0,4,4,412,1,2b,70,3,9,
,,,,,,,,,,,,,,,,,,,,,,,,,,images/exp2c_trial_2_colour1_distractors9_r.png,r,2,037,001,2021-04-26_22h15.38.453,searchDisc4,2020.2.10,MacIntel,60,,,space,0.48,2,1,0.511,,0,5,5,458,1,2c,2,1,9,
,,,,,,,,,,,,,,,,,,,,,,,,,,images/exp2b_trial_31_colour3_distractors4_l.png,l,1,037,001,2021-04-26_22h15.38.453,searchDisc4,2020.2.10,MacIntel,60,,,space,0.422,1,1,0.553,,0,6,6,373,1,2b,31,3,4,
,,,,,,,,,,,,,,,,,,,,,,,,,,images/exp2a_trial_45_colour2_distractors4_r.png,r,2,037,001,2021-04-26_22h15.38.453,searchDisc4,2020.2.10,MacIntel,60,,,space,0.362,2,1,0.512,,0,7,7,273,1,2a,45,2,4,
,,,,,,,,,,,,,,,,,,,,,,,,,,images/exp1a_trial_70_colour3_distractors9_l.png,l,1,037,001,2021-04-26_22h15.38.453,searchDisc4,2020.2.10,MacIntel,60,,,space,0.378,1,1,0.515,,0,8,8,70,1,1a,70,3,9,
,,,,,,,,,,,,,,,,,,,,,,,,,,images/exp2c_trial_85_colour2_distractors19_r.png,r,2,037,001,2021-04-26_22h15.38.453,searchDisc4,2020.2.10,MacIntel,60,,,space,0.38,2,1,0.592,,0,9,9,541,1,2c,85,2,19,
,,,,,,,,,,,,,,,,,,,,,,,,,,images/exp1a_trial_15_colour3_distractors19_r.png,r,2,037,001,2021-04-26_22h15.38.453,searchDisc4,2020.2.10,MacIntel,60,,,space,0.358,2,1,0.631,,0,10,10,15,1,1a,15,3,19,
,,,,,,,,,,,,,,,,,,,,,,,,,,images/exp2a_trial_51_colour3_distractors4_r.png,r,2,037,001,2021-04-26_22h15.38.453,searchDisc4,2020.2.10,MacIntel,60,,,space,0.323,2,1,0.569,,0,11,11,279,1,2a,51,3,4,
,,,,,,,,,,,,,,,,,,,,,,,,,,images/exp1a_trial_45_colour2_distractors4_r.png,r,2,037,001,2021-04-26_22h15.38.453,searchDisc4,2020.2.10,MacIntel,60,,,space,0.359,2,1,0.573,,0,12,12,45,1,1a,45,2,4,
,,,,,,,,,,,,,,,,,,,,,,,,,,images/exp1b_trial_83_colour2_distractors4_r.png,r,2,037,001,2021-04-26_22h15.38.453,searchDisc4,2020.2.10,MacIntel,60,,,space,0.32,2,1,0.633,,0,13,13,197,1,1b,83,2,4,
,,,,,,,,,,,,,,,,,,,,,,,,,,images/exp2b_trial_84_colour2_distractors9_r.png,r,2,037,001,2021-04-26_22h15.38.453,searchDisc4,2020.2.10,MacIntel,60,,,space,0.339,2,1,0.732,,0,14,14,426,1,2b,84,2,9,
,,,,,,,,,,,,,,,,,,,,,,,,,,images/exp1b_trial_104_colour2_distractors31_l.png,l,1,037,001,2021-04-26_22h15.38.453,searchDisc4,2020.2.10,MacIntel,60,,,space,0.302,1,1,0.711,,0,15,15,218,1,1b,104,2,31,
,,,,,,,,,,,,,,,,,,,,,,,,,,images/exp2c_trial_26_colour2_distractors9_l.png,l,1,037,001,2021-04-26_22h15.38.453,searchDisc4,2020.2.10,MacIntel,60,,,space,0.359,1,1,0.492,,0,16,16,482,1,2c,26,2,9,
,,,,,,,,,,,,,,,,,,,,,,,,,,images/exp1b_trial_60_colour1_distractors31_l.png,l,1,037,001,2021-04-26_22h15.38.453,searchDisc4,2020.2.10,MacIntel,60,,,space,0.339,1,1,0.689,,0,17,17,174,1,1b,60,1,31,
,,,,,,,,,,,,,,,,,,,,,,,,,,images/exp2b_trial_9_colour2_distractors19_r.png,r,2,037,001,2021-04-26_22h15.38.453,searchDisc4,2020.2.10,MacIntel,60,,,space,0.357,2,1,0.593,,0,18,18,351,1,2b,9,2,19,
,,,,,,,,,,,,,,,,,,,,,,,,,,images/exp2b_trial_48_colour2_distractors31_r.png,r,2,037,001,2021-04-26_22h15.38.453,searchDisc4,2020.2.10,MacIntel,60,,,space,0.38,2,1,0.573,,0,19,19,390,1,2b,48,2,31,
,,,,,,,,,,,,,,,,,,,,,,,,,,images/exp2c_trial_86_colour2_distractors31_r.png,r,2,037,001,2021-04-26_22h15.38.453,searchDisc4,2020.2.10,MacIntel,60,,,space,0.321,2,1,0.592,,0,20,20,542,1,2c,86,2,31,
,,,,,,,,,,,,,,,,,,,,,,,,,,images/exp1b_trial_68_colour3_distractors1_l.png,l,1,037,001,2021-04-26_22h15.38.453,searchDisc4,2020.2.10,MacIntel,60,,,space,0.337,1,1,0.732,,0,21,21,182,1,1b,68,3,1,
,,,,,,,,,,,,,,,,,,,,,,,,,,images/exp1b_trial_57_colour1_distractors4_l.png,l,1,037,001,2021-04-26_22h15.38.453,searchDisc4,2020.2.10,MacIntel,60,,,space,0.319,1,1,0.571,,0,22,22,171,1,1b,57,1,4,
,,,,,,,,,,,,,,,,,,,,,,,,,,images/exp1b_trial_10_colour2_distractors31_r.png,r,2,037,001,2021-04-26_22h15.38.453,searchDisc4,2020.2.10,MacIntel,60,,,space,0.276,2,1,0.551,,0,23,23,124,1,1b,10,2,31,
,,,,,,,,,,,,,,,,,,,,,,,,,,images/exp2c_trial_47_colour2_distractors19_r.png,r,2,037,001,2021-04-26_22h15.38.453,searchDisc4,2020.2.10,MacIntel,60,,,space,0.318,2,1,0.651,,0,24,24,503,1,2c,47,2,19,
,,,,,,,,,,,,,,,,,,,,,,,,,,images/exp2a_trial_27_colour2_distractors19_l.png,l,1,037,001,2021-04-26_22h15.38.453,searchDisc4,2020.2.10,MacIntel,60,,,space,0.257,1,1,0.55,,0,25,25,255,1,2a,27,2,19,
,,,,,,,,,,,,,,,,,,,,,,,,,,images/exp2b_trial_108_colour3_distractors9_l.png,l,1,037,001,2021-04-26_22h15.38.453,searchDisc4,2020.2.10,MacIntel,60,,,space,0.279,1,1,0.511,,0,26,26,450,1,2b,108,3,9,
,,,,,,,,,,,,,,,,,,,,,,,,,,images/exp2c_trial_56_colour1_distractors1_l.png,l,1,037,001,2021-04-26_22h15.38.453,searchDisc4,2020.2.10,MacIntel,60,,,space,0.317,1,1,0.53,,0,27,27,512,1,2c,56,1,1,
,,,,,,,,,,,,,,,,,,,,,,,,,,images/exp1b_trial_7_colour2_distractors4_r.png,r,2,037,001,2021-04-26_22h15.38.453,searchDisc4,2020.2.10,MacIntel,60,,,space,0.338,2,1,0.712,,0,28,28,121,1,1b,7,2,4,
,,,,,,,,,,,,,,,,,,,,,,,,,,images/exp1a_trial_8_colour2_distractors9_r.png,r,2,037,001,2021-04-26_22h15.38.453,searchDisc4,2020.2.10,MacIntel,60,,,space,0.318,2,1,0.59,,0,29,29,8,1,1a,8,2,9,
,,,,,,,,,,,,,,,,,,,,,,,,,,images/exp1b_trial_108_colour3_distractors9_l.png,l,1,037,001,2021-04-26_22h15.38.453,searchDisc4,2020.2.10,MacIntel,60,,,space,0.319,1,1,0.81,,0,30,30,222,1,1b,108,3,9,
,,,,,,,,,,,,,,,,,,,,,,,,,,images/exp1b_trial_76_colour1_distractors1_r.png,r,2,037,001,2021-04-26_22h15.38.453,searchDisc4,2020.2.10,MacIntel,60,,,space,0.538,1,0,0.53,,0,31,31,190,1,1b,76,1,1,
,,,,,,,,,,,,,,,,,,,,,,,,,,images/exp1b_trial_80_colour1_distractors31_r.png,r,2,037,001,2021-04-26_22h15.38.453,searchDisc4,2020.2.10,MacIntel,60,,,space,0.46,2,1,0.651,,0,32,32,194,1,1b,80,1,31,
,,,,,,,,,,,,,,,,,,,,,,,,,,images/exp2b_trial_77_colour1_distractors4_r.png,r,2,037,001,2021-04-26_22h15.38.453,searchDisc4,2020.2.10,MacIntel,60,,,space,0.319,2,1,0.635,,0,33,33,419,1,2b,77,1,4,
,,,,,,,,,,,,,,,,,,,,,,,,,,images/exp2a_trial_38_colour1_distractors1_r.png,r,2,037,001,2021-04-26_22h15.38.453,searchDisc4,2020.2.10,MacIntel,60,,,space,0.278,2,1,0.513,,0,34,34,266,1,2a,38,1,1,
,,,,,,,,,,,,,,,,,,,,,,,,,,images/exp2c_trial_6_colour2_distractors1_r.png,r,2,037,001,2021-04-26_22h15.38.453,searchDisc4,2020.2.10,MacIntel,60,,,space,0.263,2,1,0.491,,0,35,35,462,1,2c,6,2,1,
,,,,,,,,,,,,,,,,,,,,,,,,,,images/exp2a_trial_98_colour1_distractors31_l.png,l,1,037,001,2021-04-26_22h15.38.453,searchDisc4,2020.2.10,MacIntel,60,,,space,0.257,1,1,0.529,,0,36,36,326,1,2a,98,1,31,
,,,,,,,,,,,,,,,,,,,,,,,,,,images/exp1a_trial_51_colour3_distractors4_r.png,r,2,037,001,2021-04-26_22h15.38.453,searchDisc4,2020.2.10,MacIntel,60,,,space,0.323,2,1,0.611,,0,37,37,51,1,1a,51,3,4,
,,,,,,,,,,,,,,,,,,,,,,,,,,images/exp1a_trial_24_colour2_distractors1_l.png,l,1,037,001,2021-04-26_22h15.38.453,searchDisc4,2020.2.10,MacIntel,60,,,space,0.258,1,1,0.511,,0,38,38,24,1,1a,24,2,1,
,,,,,,,,,,,,,,,,,,,,,,,,,,images/exp2c_trial_29_colour2_distractors43_l.png,l,1,037,001,2021-04-26_22h15.38.453,searchDisc4,2020.2.10,MacIntel,60,,,space,0.297,1,1,0.51,,0,39,39,485,1,2c,29,2,43,
,,,,,,,,,,,,,,,,,,,,,,,,,,images/exp1a_trial_44_colour2_distractors1_r.png,r,2,037,001,2021-04-26_22h15.38.453,searchDisc4,2020.2.10,MacIntel,60,,,space,0.279,2,1,0.593,,0,40,40,44,1,1a,44,2,1,
,,,,,,,,,,,,,,,,,,,,,,,,,,images/exp1a_trial_37_colour0_distractors0_l.png,l,1,037,001,2021-04-26_22h15.38.453,searchDisc4,2020.2.10,MacIntel,60,,,space,0.299,1,1,0.552,,0,41,41,37,1,1a,37,0,0,
,,,,,,,,,,,,,,,,,,,,,,,,,,images/exp2a_trial_111_colour3_distractors43_l.png,l,1,037,001,2021-04-26_22h15.38.453,searchDisc4,2020.2.10,MacIntel,60,,,space,0.319,1,1,0.566,,0,42,42,339,1,2a,111,3,43,
,,,,,,,,,,,,,,,,,,,,,,,,,,images/exp1b_trial_52_colour3_distractors9_r.png,r,2,037,001,2021-04-26_22h15.38.453,searchDisc4,2020.2.10,MacIntel,60,,,space,0.239,2,1,0.633,,0,43,43,166,1,1b,52,3,9,
,,,,,,,,,,,,,,,,,,,,,,,,,,images/exp1b_trial_45_colour2_distractors4_r.png,r,2,037,001,2021-04-26_22h15.38.453,searchDisc4,2020.2.10,MacIntel,60,,,space,0.278,2,1,0.489,,0,44,44,159,1,1b,45,2,4,
,,,,,,,,,,,,,,,,,,,,,,,,,,images/exp2b_trial_85_colour2_distractors19_r.png,r,2,037,001,2021-04-26_22h15.38.453,searchDisc4,2020.2.10,MacIntel,60,,,space,0.218,2,1,0.47,,0,45,45,427,1,2b,85,2,19,
,,,,,,,,,,,,,,,,,,,,,,,,,,images/exp1b_trial_79_colour1_distractors19_r.png,r,2,037,001,2021-04-26_22h15.38.453,searchDisc4,2020.2.10,MacIntel,60,,,space,0.178,2,1,0.532,,0,46,46,193,1,1b,79,1,19,
,,,,,,,,,,,,,,,,,,,,,,,,,,images/exp2c_trial_50_colour3_distractors1_r.png,r,2,037,001,2021-04-26_22h15.38.453,searchDisc4,2020.2.10,MacIntel,60,,,space,0.218,2,1,0.514,,0,47,47,506,1,2c,50,3,1,
,,,,,,,,,,,,,,,,,,,,,,,,,,images/exp2a_trial_36_colour0_distractors0_r.png,r,2,037,001,2021-04-26_22h15.38.453,searchDisc4,2020.2.10,MacIntel,60,,,space,0.238,2,1,0.451,,0,48,48,264,1,2a,36,0,0,
,,,,,,,,,,,,,,,,,,,,,,,,,,images/exp1a_trial_73_colour3_distractors43_l.png,l,1,037,001,2021-04-26_22h15.38.453,searchDisc4,2020.2.10,MacIntel,60,,,space,0.219,1,1,0.508,,0,49,49,73,1,1a,73,3,43,
,,,,,,,,,,,,,,,,,,,,,,,,,,images/exp1a_trial_29_colour2_distractors43_l.png,l,1,037,001,2021-04-26_22h15.38.453,searchDisc4,2020.2.10,MacIntel,60,,,space,0.222,2,0,0.609,,0,50,50,29,1,1a,29,2,43,
,,,,,,,,,,,,,,,,,,,,,,,,,,images/exp2b_trial_109_colour3_distractors19_l.png,l,1,037,001,2021-04-26_22h15.38.453,searchDisc4,2020.2.10,MacIntel,60,,,space,0.384,1,1,0.551,,0,51,51,451,1,2b,109,3,19,
,,,,,,,,,,,,,,,,,,,,,,,,,,images/exp2c_trial_63_colour2_distractors4_l.png,l,1,037,001,2021-04-26_22h15.38.453,searchDisc4,2020.2.10,MacIntel,60,,,space,0.201,1,1,0.593,,0,52,52,519,1,2c,63,2,4,
,,,,,,,,,,,,,,,,,,,,,,,,,,images/exp1b_trial_101_colour2_distractors4_l.png,l,1,037,001,2021-04-26_22h15.38.453,searchDisc4,2020.2.10,MacIntel,60,,,space,0.241,1,1,0.494,,0,53,53,215,1,1b,101,2,4,
,,,,,,,,,,,,,,,,,,,,,,,,,,images/exp2c_trial_41_colour1_distractors19_r.png,r,2,037,001,2021-04-26_22h15.38.453,searchDisc4,2020.2.10,MacIntel,60,,,space,0.243,2,1,0.573,,0,54,54,497,1,2c,41,1,19,
,,,,,,,,,,,,,,,,,,,,,,,,,,images/exp1b_trial_46_colour2_distractors9_r.png,r,2,037,001,2021-04-26_22h15.38.453,searchDisc4,2020.2.10,MacIntel,60,,,space,0.219,2,1,0.571,,0,55,55,160,1,1b,46,2,9,
,,,,,,,,,,,,,,,,,,,,,,,,,,images/exp2b_trial_67_colour2_distractors43_l.png,l,1,037,001,2021-04-26_22h15.38.453,searchDisc4,2020.2.10,MacIntel,60,,,space,0.218,1,1,0.572,,0,56,56,409,1,2b,67,2,43,
,,,,,,,,,,,,,,,,,,,,,,,,,,images/exp1b_trial_13_colour3_distractors4_r.png,r,2,037,001,2021-04-26_22h15.38.453,searchDisc4,2020.2.10,MacIntel,60,,,space,0.203,2,1,0.612,,0,57,57,127,1,1b,13,3,4,
,,,,,,,,,,,,,,,,,,,,,,,,,,images/exp2c_trial_35_colour3_distractors43_l.png,l,1,037,001,2021-04-26_22h15.38.453,searchDisc4,2020.2.10,MacIntel,60,,,space,0.178,1,1,0.552,,0,58,58,491,1,2c,35,3,43,
,,,,,,,,,,,,,,,,,,,,,,,,,,images/exp2a_trial_60_colour1_distractors31_l.png,l,1,037,001,2021-04-26_22h15.38.453,searchDisc4,2020.2.10,MacIntel,60,,,space,0.259,1,1,0.591,space,0,59,59,288,1,2a,60,1,31,0.213
,,,,,,,,,,,,,,,,,,,,,,,,,,images/exp1a_trial_59_colour1_distractors19_l.png,l,1,037,001,2021-04-26_22h15.38.453,searchDisc4,2020.2.10,MacIntel,60,,,space,0.682,1,1,0.569,,0,60,60,59,1,1a,59,1,19,
,,,,,,,,,,,,,,,,,,,,,,,,,,images/exp2b_trial_2_colour1_distractors9_r.png,r,2,037,001,2021-04-26_22h15.38.453,searchDisc4,2020.2.10,MacIntel,60,,,space,0.237,2,1,0.572,,0,61,61,344,1,2b,2,1,9,
,,,,,,,,,,,,,,,,,,,,,,,,,,images/exp2b_trial_80_colour1_distractors31_r.png,r,2,037,001,2021-04-26_22h15.38.453,searchDisc4,2020.2.10,MacIntel,60,,,space,0.22,2,1,0.551,,0,62,62,422,1,2b,80,1,31,
,,,,,,,,,,,,,,,,,,,,,,,,,,images/exp2a_trial_7_colour2_distractors4_r.png,r,2,037,001,2021-04-26_22h15.38.453,searchDisc4,2020.2.10,MacIntel,60,,,space,0.258,2,1,0.491,,0,63,63,235,1,2a,7,2,4,
,,,,,,,,,,,,,,,,,,,,,,,,,,images/exp1b_trial_89_colour3_distractors4_r.png,r,2,037,001,2021-04-26_22h15.38.453,searchDisc4,2020.2.10,MacIntel,60,,,space,0.218,2,1,0.811,,0,64,64,203,1,1b,89,3,4,
,,,,,,,,,,,,,,,,,,,,,,,,,,images/exp2c_trial_25_colour2_distractors4_l.png,l,1,037,001,2021-04-26_22h15.38.453,searchDisc4,2020.2.10,MacIntel,60,,,space,0.243,1,1,0.551,,0,65,65,481,1,2c,25,2,4,
,,,,,,,,,,,,,,,,,,,,,,,,,,images/exp1b_trial_84_colour2_distractors9_r.png,r,2,037,001,2021-04-26_22h15.38.453,searchDisc4,2020.2.10,MacIntel,60,,,space,0.279,1,0,0.735,,0,66,66,198,1,1b,84,2,9,
,,,,,,,,,,,,,,,,,,,,,,,,,,images/exp2a_trial_15_colour3_distractors19_r.png,r,2,037,001,2021-04-26_22h15.38.453,searchDisc4,2020.2.10,MacIntel,60,,,space,0.359,2,1,0.569,,0,67,67,243,1,2a,15,3,19,
,,,,,,,,,,,,,,,,,,,,,,,,,,images/exp1b_trial_73_colour3_distractors43_l.png,l,1,037,001,2021-04-26_22h15.38.453,searchDisc4,2020.2.10,MacIntel,60,,,space,0.218,1,1,1.632,,0,68,68,187,1,1b,73,3,43,
,,,,,,,,,,,,,,,,,,,,,,,,,,images/exp1b_trial_66_colour2_distractors31_l.png,l,1,037,001,2021-04-26_22h15.38.453,searchDisc4,2020.2.10,MacIntel,60,,,space,0.257,1,1,0.653,,0,69,69,180,1,1b,66,2,31,
,,,,,,,,,,,,,,,,,,,,,,,,,,images/exp1a_trial_85_colour2_distractors19_r.png,r,2,037,001,2021-04-26_22h15.38.453,searchDisc4,2020.2.10,MacIntel,60,,,space,0.298,2,1,0.73,,0,70,70,85,1,1a,85,2,19,
,,,,,,,,,,,,,,,,,,,,,,,,,,images/exp2b_trial_0_colour1_distractors1_r.png,r,2,037,001,2021-04-26_22h15.38.453,searchDisc4,2020.2.10,MacIntel,60,,,space,0.279,2,1,0.512,,0,71,71,342,1,2b,0,1,1,
,,,,,,,,,,,,,,,,,,,,,,,,,,images/exp2a_trial_42_colour1_distractors31_r.png,r,2,037,001,2021-04-26_22h15.38.453,searchDisc4,2020.2.10,MacIntel,60,,,space,0.26,2,1,0.549,,0,72,72,270,1,2a,42,1,31,
,,,,,,,,,,,,,,,,,,,,,,,,,,images/exp1a_trial_33_colour3_distractors19_l.png,l,1,037,001,2021-04-26_22h15.38.453,searchDisc4,2020.2.10,MacIntel,60,,,space,0.639,1,1,0.713,,0,73,73,33,1,1a,33,3,19,
,,,,,,,,,,,,,,,,,,,,,,,,,,images/exp2c_trial_40_colour1_distractors9_r.png,r,2,037,001,2021-04-26_22h15.38.453,searchDisc4,2020.2.10,MacIntel,60,,,space,0.282,2,1,0.61,,0,74,74,496,1,2c,40,1,9,
,,,,,,,,,,,,,,,,,,,,,,,,,,images/exp2b_trial_92_colour3_distractors31_r.png,r,2,037,001,2021-04-26_22h15.38.453,searchDisc4,2020.2.10,MacIntel,60,,,space,0.259,2,1,0.74,,0,75,75,434,1,2b,92,3,31,
,,,,,,,,,,,,,,,,,,,,,,,,,,images/exp2a_trial_59_colour1_distractors19_l.png,l,1,037,001,2021-04-26_22h15.38.453,searchDisc4,2020.2.10,MacIntel,60,,,space,0.22,1,1,0.651,,0,76,76,287,1,2a,59,1,19,
,,,,,,,,,,,,,,,,,,,,,,,,,,images/exp1b_trial_24_colour2_distractors1_l.png,l,1,037,001,2021-04-26_22h15.38.453,searchDisc4,2020.2.10,MacIntel,60,,,space,0.258,1,1,0.59,,0,77,77,138,1,1b,24,2,1,
,,,,,,,,,,,,,,,,,,,,,,,,,,images/exp2a_trial_90_colour3_distractors9_r.png,r,2,037,001,2021-04-26_22h15.38.453,searchDisc4,2020.2.10,MacIntel,60,,,space,0.279,2,1,0.674,,0,78,78,318,1,2a,90,3,9,
,,,,,,,,,,,,,,,,,,,,,,,,,,images/exp2b_trial_41_colour1_distractors19_r.png,r,2,037,001,2021-04-26_22h15.38.453,searchDisc4,2020.2.10,MacIntel,60,,,space,0.222,2,1,0.551,,0,79,79,383,1,2b,41,1,19,
,,,,,,,,,,,,,,,,,,,,,,,,,,images/exp1b_trial_103_colour2_distractors19_l.png,l,1,037,001,2021-04-26_22h15.38.453,searchDisc4,2020.2.10,MacIntel,60,,,space,0.238,1,1,0.632,,0,80,80,217,1,1b,103,2,19,
,,,,,,,,,,,,,,,,,,,,,,,,,,images/exp1a_trial_92_colour3_distractors31_r.png,r,2,037,001,2021-04-26_22h15.38.453,searchDisc4,2020.2.10,MacIntel,60,,,space,0.239,2,1,0.552,,0,81,81,92,1,1a,92,3,31,
,,,,,,,,,,,,,,,,,,,,,,,,,,images/exp2b_trial_27_colour2_distractors19_l.png,l,1,037,001,2021-04-26_22h15.38.453,searchDisc4,2020.2.10,MacIntel,60,,,space,0.259,1,1,0.591,,0,82,82,369,1,2b,27,2,19,
,,,,,,,,,,,,,,,,,,,,,,,,,,images/exp2c_trial_81_colour1_distractors43_r.png,r,2,037,001,2021-04-26_22h15.38.453,searchDisc4,2020.2.10,MacIntel,60,,,space,0.26,2,1,0.571,,0,83,83,537,1,2c,81,1,43,
,,,,,,,,,,,,,,,,,,,,,,,,,,images/exp2b_trial_47_colour2_distractors19_r.png,r,2,037,001,2021-04-26_22h15.38.453,searchDisc4,2020.2.10,MacIntel,60,,,space,0.239,2,1,0.534,,0,84,84,389,1,2b,47,2,19,
,,,,,,,,,,,,,,,,,,,,,,,,,,images/exp2c_trial_87_colour2_distractors43_r.png,r,2,037,001,2021-04-26_22h15.38.453,searchDisc4,2020.2.10,MacIntel,60,,,space,0.282,2,1,0.531,,0,85,85,543,1,2c,87,2,43,
,,,,,,,,,,,,,,,,,,,,,,,,,,images/exp1b_trial_91_colour3_distractors19_r.png,r,2,037,001,2021-04-26_22h15.38.453,searchDisc4,2020.2.10,MacIntel,60,,,space,0.237,2,1,1.171,,0,86,86,205,1,1b,91,3,19,
,,,,,,,,,,,,,,,,,,,,,,,,,,images/exp1a_trial_84_colour2_distractors9_r.png,r,2,037,001,2021-04-26_22h15.38.453,searchDisc4,2020.2.10,MacIntel,60,,,space,0.257,2,1,0.632,,0,87,87,84,1,1a,84,2,9,
,,,,,,,,,,,,,,,,,,,,,,,,,,images/exp2c_trial_66_colour2_distractors31_l.png,l,1,037,001,2021-04-26_22h15.38.453,searchDisc4,2020.2.10,MacIntel,60,,,space,0.258,1,1,0.597,,0,88,88,522,1,2c,66,2,31,
,,,,,,,,,,,,,,,,,,,,,,,,,,images/exp1b_trial_4_colour1_distractors31_r.png,r,2,037,001,2021-04-26_22h15.38.453,searchDisc4,2020.2.10,MacIntel,60,,,space,0.26,2,1,0.591,,0,89,89,118,1,1b,4,1,31,
,,,,,,,,,,,,,,,,,,,,,,,,,,images/exp1a_trial_50_colour3_distractors1_r.png,r,2,037,001,2021-04-26_22h15.38.453,searchDisc4,2020.2.10,MacIntel,60,,,space,0.258,2,1,0.552,,0,90,90,50,1,1a,50,3,1,
,,,,,,,,,,,,,,,,,,,,,,,,,,images/exp1a_trial_88_colour3_distractors1_r.png,r,2,037,001,2021-04-26_22h15.38.453,searchDisc4,2020.2.10,MacIntel,60,,,space,0.22,1,0,0.632,,0,91,91,88,1,1a,88,3,1,
,,,,,,,,,,,,,,,,,,,,,,,,,,images/exp2c_trial_13_colour3_distractors4_r.png,r,2,037,001,2021-04-26_22h15.38.453,searchDisc4,2020.2.10,MacIntel,60,,,space,0.337,2,1,0.552,,0,92,92,469,1,2c,13,3,4,
,,,,,,,,,,,,,,,,,,,,,,,,,,images/exp1b_trial_77_colour1_distractors4_r.png,r,2,037,001,2021-04-26_22h15.38.453,searchDisc4,2020.2.10,MacIntel,60,,,space,0.242,2,1,0.513,,0,93,93,191,1,1b,77,1,4,
,,,,,,,,,,,,,,,,,,,,,,,,,,images/exp1a_trial_87_colour2_distractors43_r.png,r,2,037,001,2021-04-26_22h15.38.453,searchDisc4,2020.2.10,MacIntel,60,,,space,0.258,2,1,0.851,,0,94,94,87,1,1a,87,2,43,
,,,,,,,,,,,,,,,,,,,,,,,,,,images/exp1b_trial_8_colour2_distractors9_r.png,r,2,037,001,2021-04-26_22h15.38.453,searchDisc4,2020.2.10,MacIntel,60,,,space,0.24,2,1,0.609,,0,95,95,122,1,1b,8,2,9,
,,,,,,,,,,,,,,,,,,,,,,,,,,images/exp2c_trial_27_colour2_distractors19_l.png,l,1,037,001,2021-04-26_22h15.38.453,searchDisc4,2020.2.10,MacIntel,60,,,space,0.239,1,1,0.57,,0,96,96,483,1,2c,27,2,19,
,,,,,,,,,,,,,,,,,,,,,,,,,,images/exp2b_trial_111_colour3_distractors43_l.png,l,1,037,001,2021-04-26_22h15.38.453,searchDisc4,2020.2.10,MacIntel,60,,,space,0.258,1,1,0.593,,0,97,97,453,1,2b,111,3,43,
,,,,,,,,,,,,,,,,,,,,,,,,,,images/exp2b_trial_105_colour2_distractors43_l.png,l,1,037,001,2021-04-26_22h15.38.453,searchDisc4,2020.2.10,MacIntel,60,,,space,0.278,1,1,0.672,,0,98,98,447,1,2b,105,2,43,
,,,,,,,,,,,,,,,,,,,,,,,,,,images/exp1a_trial_71_colour3_distractors19_l.png,l,1,037,001,2021-04-26_22h15.38.453,searchDisc4,2020.2.10,MacIntel,60,,,space,0.243,1,1,0.733,,0,99,99,71,1,1a,71,3,19,
,,,,,,,,,,,,,,,,,,,,,,,,,,images/exp2c_trial_17_colour3_distractors43_r.png,r,2,037,001,2021-04-26_22h15.38.453,searchDisc4,2020.2.10,MacIntel,60,,,space,0.278,2,1,0.592,,0,100,100,473,1,2c,17,3,43,
,,,,,,,,,,,,,,,,,,,,,,,,,,images/exp1a_trial_111_colour3_distractors43_l.png,l,1,037,001,2021-04-26_22h15.38.453,searchDisc4,2020.2.10,MacIntel,60,,,space,0.239,1,1,0.588,,0,101,101,111,1,1a,111,3,43,
,,,,,,,,,,,,,,,,,,,,,,,,,,images/exp2b_trial_24_colour2_distractors1_l.png,l,1,037,001,2021-04-26_22h15.38.453,searchDisc4,2020.2.10,MacIntel,60,,,space,0.278,1,1,0.532,,0,102,102,366,1,2b,24,2,1,
,,,,,,,,,,,,,,,,,,,,,,,,,,images/exp1b_trial_61_colour1_distractors43_l.png,l,1,037,001,2021-04-26_22h15.38.453,searchDisc4,2020.2.10,MacIntel,60,,,space,0.239,1,1,0.91,,0,103,103,175,1,1b,61,1,43,
,,,,,,,,,,,,,,,,,,,,,,,,,,images/exp1b_trial_12_colour3_distractors1_r.png,r,2,037,001,2021-04-26_22h15.38.453,searchDisc4,2020.2.10,MacIntel,60,,,space,0.238,2,1,0.673,,0,104,104,126,1,1b,12,3,1,
,,,,,,,,,,,,,,,,,,,,,,,,,,images/exp1a_trial_30_colour3_distractors1_l.png,l,1,037,001,2021-04-26_22h15.38.453,searchDisc4,2020.2.10,MacIntel,60,,,space,0.221,1,1,0.572,,0,105,105,30,1,1a,30,3,1,
,,,,,,,,,,,,,,,,,,,,,,,,,,images/exp1b_trial_85_colour2_distractors19_r.png,r,2,037,001,2021-04-26_22h15.38.453,searchDisc4,2020.2.10,MacIntel,60,,,space,0.223,2,1,0.995,,0,106,106,199,1,1b,85,2,19,
,,,,,,,,,,,,,,,,,,,,,,,,,,images/exp1a_trial_95_colour1_distractors4_l.png,l,1,037,001,2021-04-26_22h15.38.453,searchDisc4,2020.2.10,MacIntel,60,,,space,0.201,1,1,0.651,,0,107,107,95,1,1a,95,1,4,
,,,,,,,,,,,,,,,,,,,,,,,,,,images/exp1a_trial_76_colour1_distractors1_r.png,r,2,037,001,2021-04-26_22h15.38.453,searchDisc4,2020.2.10,MacIntel,60,,,space,0.238,2,1,0.65,,0,108,108,76,1,1a,76,1,1,
,,,,,,,,,,,,,,,,,,,,,,,,,,images/exp2a_trial_68_colour3_distractors1_l.png,l,1,037,001,2021-04-26_22h15.38.453,searchDisc4,2020.2.10,MacIntel,60,,,space,0.238,1,1,0.571,,0,109,109,296,1,2a,68,3,1,
,,,,,,,,,,,,,,,,,,,,,,,,,,images/exp2b_trial_100_colour2_distractors1_l.png,l,1,037,001,2021-04-26_22h15.38.453,searchDisc4,2020.2.10,MacIntel,60,,,space,0.239,1,1,0.51,,0,110,110,442,1,2b,100,2,1,
,,,,,,,,,,,,,,,,,,,,,,,,,,images/exp1a_trial_23_colour1_distractors43_l.png,l,1,037,001,2021-04-26_22h15.38.453,searchDisc4,2020.2.10,MacIntel,60,,,space,0.264,1,1,0.588,,0,111,111,23,1,1a,23,1,43,
,,,,,,,,,,,,,,,,,,,,,,,,,,images/exp1b_trial_32_colour3_distractors9_l.png,l,1,037,001,2021-04-26_22h15.38.453,searchDisc4,2020.2.10,MacIntel,60,,,space,0.238,1,1,2.356,,0,112,112,146,1,1b,32,3,9,
,,,,,,,,,,,,,,,,,,,,,,,,,,images/exp2a_trial_52_colour3_distractors9_r.png,r,2,037,001,2021-04-26_22h15.38.453,searchDisc4,2020.2.10,MacIntel,60,,,space,0.26,2,1,0.532,,0,113,113,280,1,2a,52,3,9,
,,,,,,,,,,,,,,,,,,,,,,,,,,images/exp2b_trial_88_colour3_distractors1_r.png,r,2,037,001,2021-04-26_22h15.38.453,searchDisc4,2020.2.10,MacIntel,60,,,space,0.223,2,1,0.591,,0,114,114,430,1,2b,88,3,1,
,,,,,,,,,,,,,,,,,,,,,,,,,,images/exp2a_trial_84_colour2_distractors9_r.png,r,2,037,001,2021-04-26_22h15.38.453,searchDisc4,2020.2.10,MacIntel,60,,,space,0.218,2,1,0.45,,0,115,115,312,1,2a,84,2,9,
,,,,,,,,,,,,,,,,,,,,,,,,,,images/exp1b_trial_39_colour1_distractors4_r.png,r,2,037,001,2021-04-26_22h15.38.453,searchDisc4,2020.2.10,MacIntel,60,,,space,0.239,2,1,0.534,,0,116,116,153,1,1b,39,1,4,
,,,,,,,,,,,,,,,,,,,,,,,,,,images/exp2b_trial_45_colour2_distractors4_r.png,r,2,037,001,2021-04-26_22h15.38.453,searchDisc4,2020.2.10,MacIntel,60,,,space,0.218,2,1,0.533,,0,117,117,387,1,2b,45,2,4,
,,,,,,,,,,,,,,,,,,,,,,,,,,images/exp1a_trial_25_colour2_distractors4_l.png,l,1,037,001,2021-04-26_22h15.38.453,searchDisc4,2020.2.10,MacIntel,60,,,space,0.183,1,1,0.47,,0,118,118,25,1,1a,25,2,4,
,,,,,,,,,,,,,,,,,,,,,,,,,,images/exp1a_trial_7_colour2_distractors4_r.png,r,2,037,001,2021-04-26_22h15.38.453,searchDisc4,2020.2.10,MacIntel,60,,,space,0.239,2,1,0.534,space,0,119,119,7,1,1a,7,2,4,0.234
,,,,,,,,,,,,,,,,,,,,,,,,,,images/exp2a_trial_48_colour2_distractors31_r.png,r,2,037,001,2021-04-26_22h15.38.453,searchDisc4,2020.2.10,MacIntel,60,,,space,0.599,2,1,0.531,,0,120,120,276,1,2a,48,2,31,
,,,,,,,,,,,,,,,,,,,,,,,,,,images/exp2c_trial_113_colour0_distractors0_l.png,l,1,037,001,2021-04-26_22h15.38.453,searchDisc4,2020.2.10,MacIntel,60,,,space,0.238,1,1,0.454,,0,121,121,569,1,2c,113,0,0,
,,,,,,,,,,,,,,,,,,,,,,,,,,images/exp2c_trial_74_colour0_distractors0_r.png,r,2,037,001,2021-04-26_22h15.38.453,searchDisc4,2020.2.10,MacIntel,60,,,space,0.22,2,1,0.772,,0,122,122,530,1,2c,74,0,0,
,,,,,,,,,,,,,,,,,,,,,,,,,,images/exp1a_trial_67_colour2_distractors43_l.png,l,1,037,001,2021-04-26_22h15.38.453,searchDisc4,2020.2.10,MacIntel,60,,,space,0.218,1,1,0.509,,0,123,123,67,1,1a,67,2,43,
,,,,,,,,,,,,,,,,,,,,,,,,,,images/exp2c_trial_92_colour3_distractors31_r.png,r,2,037,001,2021-04-26_22h15.38.453,searchDisc4,2020.2.10,MacIntel,60,,,space,0.237,2,1,0.51,,0,124,124,548,1,2c,92,3,31,
,,,,,,,,,,,,,,,,,,,,,,,,,,images/exp1b_trial_56_colour1_distractors1_l.png,l,1,037,001,2021-04-26_22h15.38.453,searchDisc4,2020.2.10,MacIntel,60,,,space,0.221,2,0,0.532,,0,125,125,170,1,1b,56,1,1,
,,,,,,,,,,,,,,,,,,,,,,,,,,images/exp2c_trial_103_colour2_distractors19_l.png,l,1,037,001,2021-04-26_22h15.38.453,searchDisc4,2020.2.10,MacIntel,60,,,space,0.299,1,1,0.55,,0,126,126,559,1,2c,103,2,19,
,,,,,,,,,,,,,,,,,,,,,,,,,,images/exp2a_trial_78_colour1_distractors9_r.png,r,2,037,001,2021-04-26_22h15.38.453,searchDisc4,2020.2.10,MacIntel,60,,,space,0.218,2,1,0.555,,0,127,127,306,1,2a,78,1,9,
,,,,,,,,,,,,,,,,,,,,,,,,,,images/exp2b_trial_113_colour0_distractors0_l.png,l,1,037,001,2021-04-26_22h15.38.453,searchDisc4,2020.2.10,MacIntel,60,,,space,0.221,1,1,0.475,,0,128,128,455,1,2b,113,0,0,
,,,,,,,,,,,,,,,,,,,,,,,,,,images/exp2c_trial_49_colour2_distractors43_r.png,r,2,037,001,2021-04-26_22h15.38.453,searchDisc4,2020.2.10,MacIntel,60,,,space,0.242,2,1,0.552,,0,129,129,505,1,2c,49,2,43,
,,,,,,,,,,,,,,,,,,,,,,,,,,images/exp1b_trial_44_colour2_distractors1_r.png,r,2,037,001,2021-04-26_22h15.38.453,searchDisc4,2020.2.10,MacIntel,60,,,space,0.202,2,1,0.591,,0,130,130,158,1,1b,44,2,1,
,,,,,,,,,,,,,,,,,,,,,,,,,,images/exp1a_trial_11_colour2_distractors43_r.png,r,2,037,001,2021-04-26_22h15.38.453,searchDisc4,2020.2.10,MacIntel,60,,,space,0.218,2,1,0.63,,0,131,131,11,1,1a,11,2,43,
,,,,,,,,,,,,,,,,,,,,,,,,,,images/exp2c_trial_36_colour0_distractors0_r.png,r,2,037,001,2021-04-26_22h15.38.453,searchDisc4,2020.2.10,MacIntel,60,,,space,0.202,2,1,0.511,,0,132,132,492,1,2c,36,0,0,
,,,,,,,,,,,,,,,,,,,,,,,,,,images/exp1b_trial_36_colour0_distractors0_r.png,r,2,037,001,2021-04-26_22h15.38.453,searchDisc4,2020.2.10,MacIntel,60,,,space,0.219,2,1,0.45,,0,133,133,150,1,1b,36,0,0,
,,,,,,,,,,,,,,,,,,,,,,,,,,images/exp2a_trial_110_colour3_distractors31_l.png,l,1,037,001,2021-04-26_22h15.38.453,searchDisc4,2020.2.10,MacIntel,60,,,space,0.179,1,1,0.466,,0,134,134,338,1,2a,110,3,31,
,,,,,,,,,,,,,,,,,,,,,,,,,,images/exp2a_trial_1_colour1_distractors4_r.png,r,2,037,001,2021-04-26_22h15.38.453,searchDisc4,2020.2.10,MacIntel,60,,,space,0.184,2,1,0.534,,0,135,135,229,1,2a,1,1,4,
,,,,,,,,,,,,,,,,,,,,,,,,,,images/exp1a_trial_13_colour3_distractors4_r.png,r,2,037,001,2021-04-26_22h15.38.453,searchDisc4,2020.2.10,MacIntel,60,,,space,0.197,2,1,0.532,,0,136,136,13,1,1a,13,3,4,
,,,,,,,,,,,,,,,,,,,,,,,,,,images/exp2a_trial_70_colour3_distractors9_l.png,l,1,037,001,2021-04-26_22h15.38.453,searchDisc4,2020.2.10,MacIntel,60,,,space,0.199,1,1,0.472,,0,137,137,298,1,2a,70,3,9,
,,,,,,,,,,,,,,,,,,,,,,,,,,images/exp2b_trial_26_colour2_distractors9_l.png,l,1,037,001,2021-04-26_22h15.38.453,searchDisc4,2020.2.10,MacIntel,60,,,space,0.199,1,1,0.609,,0,138,138,368,1,2b,26,2,9,
,,,,,,,,,,,,,,,,,,,,,,,,,,images/exp2a_trial_97_colour1_distractors19_l.png,l,1,037,001,2021-04-26_22h15.38.453,searchDisc4,2020.2.10,MacIntel,60,,,space,0.198,1,1,0.51,,0,139,139,325,1,2a,97,1,19,
,,,,,,,,,,,,,,,,,,,,,,,,,,images/exp1b_trial_19_colour1_distractors4_l.png,l,1,037,001,2021-04-26_22h15.38.453,searchDisc4,2020.2.10,MacIntel,60,,,space,0.178,1,1,0.632,,0,140,140,133,1,1b,19,1,4,
,,,,,,,,,,,,,,,,,,,,,,,,,,images/exp1a_trial_109_colour3_distractors19_l.png,l,1,037,001,2021-04-26_22h15.38.453,searchDisc4,2020.2.10,MacIntel,60,,,space,0.179,1,1,0.609,,0,141,141,109,1,1a,109,3,19,
,,,,,,,,,,,,,,,,,,,,,,,,,,images/exp2a_trial_109_colour3_distractors19_l.png,l,1,037,001,2021-04-26_22h15.38.453,searchDisc4,2020.2.10,MacIntel,60,,,space,0.202,1,1,0.543,,0,142,142,337,1,2a,109,3,19,
,,,,,,,,,,,,,,,,,,,,,,,,,,images/exp2a_trial_8_colour2_distractors9_r.png,r,2,037,001,2021-04-26_22h15.38.453,searchDisc4,2020.2.10,MacIntel,60,,,space,0.241,2,1,0.549,,0,143,143,236,1,2a,8,2,9,
,,,,,,,,,,,,,,,,,,,,,,,,,,images/exp2a_trial_2_colour1_distractors9_r.png,r,2,037,001,2021-04-26_22h15.38.453,searchDisc4,2020.2.10,MacIntel,60,,,space,0.2,2,1,0.535,,0,144,144,230,1,2a,2,1,9,
,,,,,,,,,,,,,,,,,,,,,,,,,,images/exp1a_trial_18_colour1_distractors1_l.png,l,1,037,001,2021-04-26_22h15.38.453,searchDisc4,2020.2.10,MacIntel,60,,,space,0.219,1,1,0.55,,0,145,145,18,1,1a,18,1,1,
,,,,,,,,,,,,,,,,,,,,,,,,,,images/exp2a_trial_19_colour1_distractors4_l.png,l,1,037,001,2021-04-26_22h15.38.453,searchDisc4,2020.2.10,MacIntel,60,,,space,0.279,1,1,0.53,,0,146,146,247,1,2a,19,1,4,
,,,,,,,,,,,,,,,,,,,,,,,,,,images/exp1a_trial_41_colour1_distractors19_r.png,r,2,037,001,2021-04-26_22h15.38.453,searchDisc4,2020.2.10,MacIntel,60,,,space,0.3,2,1,0.509,,0,147,147,41,1,1a,41,1,19,
,,,,,,,,,,,,,,,,,,,,,,,,,,images/exp2c_trial_48_colour2_distractors31_r.png,r,2,037,001,2021-04-26_22h15.38.453,searchDisc4,2020.2.10,MacIntel,60,,,space,0.237,2,1,0.474,,0,148,148,504,1,2c,48,2,31,
,,,,,,,,,,,,,,,,,,,,,,,,,,images/exp1a_trial_62_colour2_distractors1_l.png,l,1,037,001,2021-04-26_22h15.38.453,searchDisc4,2020.2.10,MacIntel,60,,,space,0.241,1,1,0.512,,0,149,149,62,1,1a,62,2,1,
,,,,,,,,,,,,,,,,,,,,,,,,,,images/exp2b_trial_89_colour3_distractors4_r.png,r,2,037,001,2021-04-26_22h15.38.453,searchDisc4,2020.2.10,MacIntel,60,,,space,0.239,2,1,0.593,,0,150,150,431,1,2b,89,3,4,
,,,,,,,,,,,,,,,,,,,,,,,,,,images/exp2c_trial_34_colour3_distractors31_l.png,l,1,037,001,2021-04-26_22h15.38.453,searchDisc4,2020.2.10,MacIntel,60,,,space,0.263,1,1,0.515,,0,151,151,490,1,2c,34,3,31,
,,,,,,,,,,,,,,,,,,,,,,,,,,images/exp1a_trial_64_colour2_distractors9_l.png,l,1,037,001,2021-04-26_22h15.38.453,searchDisc4,2020.2.10,MacIntel,60,,,space,0.26,1,1,0.611,,0,152,152,64,1,1a,64,2,9,
,,,,,,,,,,,,,,,,,,,,,,,,,,images/exp2c_trial_30_colour3_distractors1_l.png,l,1,037,001,2021-04-26_22h15.38.453,searchDisc4,2020.2.10,MacIntel,60,,,space,0.22,1,1,0.551,,0,153,153,486,1,2c,30,3,1,
,,,,,,,,,,,,,,,,,,,,,,,,,,images/exp2c_trial_111_colour3_distractors43_l.png,l,1,037,001,2021-04-26_22h15.38.453,searchDisc4,2020.2.10,MacIntel,60,,,space,0.2,1,1,0.574,,0,154,154,567,1,2c,111,3,43,
,,,,,,,,,,,,,,,,,,,,,,,,,,images/exp1a_trial_56_colour1_distractors1_l.png,l,1,037,001,2021-04-26_22h15.38.453,searchDisc4,2020.2.10,MacIntel,60,,,space,0.24,1,1,0.596,,0,155,155,56,1,1a,56,1,1,
,,,,,,,,,,,,,,,,,,,,,,,,,,images/exp2c_trial_59_colour1_distractors19_l.png,l,1,037,001,2021-04-26_22h15.38.453,searchDisc4,2020.2.10,MacIntel,60,,,space,0.258,1,1,0.513,,0,156,156,515,1,2c,59,1,19,
,,,,,,,,,,,,,,,,,,,,,,,,,,images/exp2b_trial_51_colour3_distractors4_r.png,r,2,037,001,2021-04-26_22h15.38.453,searchDisc4,2020.2.10,MacIntel,60,,,space,0.206,2,1,0.653,,0,157,157,393,1,2b,51,3,4,
,,,,,,,,,,,,,,,,,,,,,,,,,,images/exp2a_trial_89_colour3_distractors4_r.png,r,2,037,001,2021-04-26_22h15.38.453,searchDisc4,2020.2.10,MacIntel,60,,,space,0.218,2,1,0.514,,0,158,158,317,1,2a,89,3,4,
,,,,,,,,,,,,,,,,,,,,,,,,,,images/exp1a_trial_40_colour1_distractors9_r.png,r,2,037,001,2021-04-26_22h15.38.453,searchDisc4,2020.2.10,MacIntel,60,,,space,0.241,2,1,0.571,,0,159,159,40,1,1a,40,1,9,
,,,,,,,,,,,,,,,,,,,,,,,,,,images/exp2a_trial_107_colour3_distractors4_l.png,l,1,037,001,2021-04-26_22h15.38.453,searchDisc4,2020.2.10,MacIntel,60,,,space,0.199,1,1,0.572,,0,160,160,335,1,2a,107,3,4,
,,,,,,,,,,,,,,,,,,,,,,,,,,images/exp2b_trial_42_colour1_distractors31_r.png,r,2,037,001,2021-04-26_22h15.38.453,searchDisc4,2020.2.10,MacIntel,60,,,space,0.218,1,0,0.592,,0,161,161,384,1,2b,42,1,31,
,,,,,,,,,,,,,,,,,,,,,,,,,,images/exp2a_trial_113_colour0_distractors0_l.png,l,1,037,001,2021-04-26_22h15.38.453,searchDisc4,2020.2.10,MacIntel,60,,,space,0.319,1,1,0.53,,0,162,162,341,1,2a,113,0,0,
,,,,,,,,,,,,,,,,,,,,,,,,,,images/exp1a_trial_42_colour1_distractors31_r.png,r,2,037,001,2021-04-26_22h15.38.453,searchDisc4,2020.2.10,MacIntel,60,,,space,0.177,2,1,0.628,,0,163,163,42,1,1a,42,1,31,
,,,,,,,,,,,,,,,,,,,,,,,,,,images/exp2b_trial_72_colour3_distractors31_l.png,l,1,037,001,2021-04-26_22h15.38.453,searchDisc4,2020.2.10,MacIntel,60,,,space,0.179,1,1,0.691,,0,164,164,414,1,2b,72,3,31,
,,,,,,,,,,,,,,,,,,,,,,,,,,images/exp2b_trial_78_colour1_distractors9_r.png,r,2,037,001,2021-04-26_22h15.38.453,searchDisc4,2020.2.10,MacIntel,60,,,space,0.259,2,1,0.891,,0,165,165,420,1,2b,78,1,9,
,,,,,,,,,,,,,,,,,,,,,,,,,,images/exp2a_trial_96_colour1_distractors9_l.png,l,1,037,001,2021-04-26_22h15.38.453,searchDisc4,2020.2.10,MacIntel,60,,,space,0.298,1,1,0.512,,0,166,166,324,1,2a,96,1,9,
,,,,,,,,,,,,,,,,,,,,,,,,,,images/exp1b_trial_53_colour3_distractors19_r.png,r,2,037,001,2021-04-26_22h15.38.453,searchDisc4,2020.2.10,MacIntel,60,,,space,0.378,2,1,0.934,,0,167,167,167,1,1b,53,3,19,
,,,,,,,,,,,,,,,,,,,,,,,,,,images/exp1a_trial_90_colour3_distractors9_r.png,r,2,037,001,2021-04-26_22h15.38.453,searchDisc4,2020.2.10,MacIntel,60,,,space,0.283,2,1,0.731,,0,168,168,90,1,1a,90,3,9,
,,,,,,,,,,,,,,,,,,,,,,,,,,images/exp1b_trial_2_colour1_distractors9_r.png,r,2,037,001,2021-04-26_22h15.38.453,searchDisc4,2020.2.10,MacIntel,60,,,space,0.263,2,1,0.612,,0,169,169,116,1,1b,2,1,9,
,,,,,,,,,,,,,,,,,,,,,,,,,,images/exp2b_trial_63_colour2_distractors4_l.png,l,1,037,001,2021-04-26_22h15.38.453,searchDisc4,2020.2.10,MacIntel,60,,,space,0.279,1,1,0.551,,0,170,170,405,1,2b,63,2,4,
,,,,,,,,,,,,,,,,,,,,,,,,,,images/exp2c_trial_69_colour3_distractors4_l.png,l,1,037,001,2021-04-26_22h15.38.453,searchDisc4,2020.2.10,MacIntel,60,,,space,0.279,1,1,0.551,,0,171,171,525,1,2c,69,3,4,
,,,,,,,,,,,,,,,,,,,,,,,,,,images/exp2a_trial_14_colour3_distractors9_r.png,r,2,037,001,2021-04-26_22h15.38.453,searchDisc4,2020.2.10,MacIntel,60,,,space,0.278,2,1,0.571,,0,172,172,242,1,2a,14,3,9,
,,,,,,,,,,,,,,,,,,,,,,,,,,images/exp2b_trial_53_colour3_distractors19_r.png,r,2,037,001,2021-04-26_22h15.38.453,searchDisc4,2020.2.10,MacIntel,60,,,space,0.279,2,1,0.574,,0,173,173,395,1,2b,53,3,19,
,,,,,,,,,,,,,,,,,,,,,,,,,,images/exp2b_trial_68_colour3_distractors1_l.png,l,1,037,001,2021-04-26_22h15.38.453,searchDisc4,2020.2.10,MacIntel,60,,,space,0.259,1,1,0.653,,0,174,174,410,1,2b,68,3,1,
,,,,,,,,,,,,,,,,,,,,,,,,,,images/exp2b_trial_112_colour0_distractors0_r.png,r,2,037,001,2021-04-26_22h15.38.453,searchDisc4,2020.2.10,MacIntel,60,,,space,0.258,2,1,0.692,,0,175,175,454,1,2b,112,0,0,
,,,,,,,,,,,,,,,,,,,,,,,,,,images/exp2a_trial_95_colour1_distractors4_l.png,l,1,037,001,2021-04-26_22h15.38.453,searchDisc4,2020.2.10,MacIntel,60,,,space,0.24,1,1,0.712,,0,176,176,323,1,2a,95,1,4,
,,,,,,,,,,,,,,,,,,,,,,,,,,images/exp1a_trial_72_colour3_distractors31_l.png,l,1,037,001,2021-04-26_22h15.38.453,searchDisc4,2020.2.10,MacIntel,60,,,space,0.26,1,1,0.55,,0,177,177,72,1,1a,72,3,31,
,,,,,,,,,,,,,,,,,,,,,,,,,,images/exp2a_trial_87_colour2_distractors43_r.png,r,2,037,001,2021-04-26_22h15.38.453,searchDisc4,2020.2.10,MacIntel,60,,,space,0.24,2,1,0.628,,0,178,178,315,1,2a,87,2,43,
,,,,,,,,,,,,,,,,,,,,,,,,,,images/exp1b_trial_70_colour3_distractors9_l.png,l,1,037,001,2021-04-26_22h15.38.453,searchDisc4,2020.2.10,MacIntel,60,,,space,0.259,1,1,0.832,space,0,179,179,184,1,1b,70,3,9,0.238
,,,,,,,,,,,,,,,,,,,,,,,,,,images/exp2b_trial_55_colour3_distractors43_r.png,r,2,037,001,2021-04-26_22h15.38.453,searchDisc4,2020.2.10,MacIntel,60,,,space,0.521,2,1,0.54,,0,180,180,397,1,2b,55,3,43,
,,,,,,,,,,,,,,,,,,,,,,,,,,images/exp2b_trial_34_colour3_distractors31_l.png,l,1,037,001,2021-04-26_22h15.38.453,searchDisc4,2020.2.10,MacIntel,60,,,space,0.252,1,1,0.531,,0,181,181,376,1,2b,34,3,31,
,,,,,,,,,,,,,,,,,,,,,,,,,,images/exp2a_trial_18_colour1_distractors1_l.png,l,1,037,001,2021-04-26_22h15.38.453,searchDisc4,2020.2.10,MacIntel,60,,,space,0.22,1,1,0.512,,0,182,182,246,1,2a,18,1,1,
,,,,,,,,,,,,,,,,,,,,,,,,,,images/exp2a_trial_17_colour3_distractors43_r.png,r,2,037,001,2021-04-26_22h15.38.453,searchDisc4,2020.2.10,MacIntel,60,,,space,0.219,2,1,0.565,,0,183,183,245,1,2a,17,3,43,
,,,,,,,,,,,,,,,,,,,,,,,,,,images/exp2a_trial_80_colour1_distractors31_r.png,r,2,037,001,2021-04-26_22h15.38.453,searchDisc4,2020.2.10,MacIntel,60,,,space,0.218,2,1,0.529,,0,184,184,308,1,2a,80,1,31,
,,,,,,,,,,,,,,,,,,,,,,,,,,images/exp2b_trial_5_colour1_distractors43_r.png,r,2,037,001,2021-04-26_22h15.38.453,searchDisc4,2020.2.10,MacIntel,60,,,space,0.179,2,1,0.529,,0,185,185,347,1,2b,5,1,43,
,,,,,,,,,,,,,,,,,,,,,,,,,,images/exp2c_trial_19_colour1_distractors4_l.png,l,1,037,001,2021-04-26_22h15.38.453,searchDisc4,2020.2.10,MacIntel,60,,,space,0.158,1,1,0.492,,0,186,186,475,1,2c,19,1,4,
,,,,,,,,,,,,,,,,,,,,,,,,,,images/exp1b_trial_16_colour3_distractors31_r.png,r,2,037,001,2021-04-26_22h15.38.453,searchDisc4,2020.2.10,MacIntel,60,,,space,0.098,2,1,0.809,,0,187,187,130,1,1b,16,3,31,
,,,,,,,,,,,,,,,,,,,,,,,,,,images/exp2b_trial_21_colour1_distractors19_l.png,l,1,037,001,2021-04-26_22h15.38.453,searchDisc4,2020.2.10,MacIntel,60,,,space,0.146,1,1,0.57,,0,188,188,363,1,2b,21,1,19,
,,,,,,,,,,,,,,,,,,,,,,,,,,images/exp1a_trial_103_colour2_distractors19_l.png,l,1,037,001,2021-04-26_22h15.38.453,searchDisc4,2020.2.10,MacIntel,60,,,space,0.259,1,1,0.771,,0,189,189,103,1,1a,103,2,19,
,,,,,,,,,,,,,,,,,,,,,,,,,,images/exp2b_trial_13_colour3_distractors4_r.png,r,2,037,001,2021-04-26_22h15.38.453,searchDisc4,2020.2.10,MacIntel,60,,,space,0.298,2,1,0.55,,0,190,190,355,1,2b,13,3,4,
,,,,,,,,,,,,,,,,,,,,,,,,,,images/exp2a_trial_28_colour2_distractors31_l.png,l,1,037,001,2021-04-26_22h15.38.453,searchDisc4,2020.2.10,MacIntel,60,,,space,0.262,1,1,0.527,,0,191,191,256,1,2a,28,2,31,
,,,,,,,,,,,,,,,,,,,,,,,,,,images/exp2a_trial_64_colour2_distractors9_l.png,l,1,037,001,2021-04-26_22h15.38.453,searchDisc4,2020.2.10,MacIntel,60,,,space,0.26,1,1,0.569,,0,192,192,292,1,2a,64,2,9,
,,,,,,,,,,,,,,,,,,,,,,,,,,images/exp1a_trial_106_colour3_distractors1_l.png,l,1,037,001,2021-04-26_22h15.38.453,searchDisc4,2020.2.10,MacIntel,60,,,space,0.28,1,1,0.45,,0,193,193,106,1,1a,106,3,1,
,,,,,,,,,,,,,,,,,,,,,,,,,,images/exp2a_trial_102_colour2_distractors9_l.png,l,1,037,001,2021-04-26_22h15.38.453,searchDisc4,2020.2.10,MacIntel,60,,,space,0.28,1,1,0.532,,0,194,194,330,1,2a,102,2,9,
,,,,,,,,,,,,,,,,,,,,,,,,,,images/exp1b_trial_28_colour2_distractors31_l.png,l,1,037,001,2021-04-26_22h15.38.453,searchDisc4,2020.2.10,MacIntel,60,,,space,0.279,1,1,0.57,,0,195,195,142,1,1b,28,2,31,
,,,,,,,,,,,,,,,,,,,,,,,,,,images/exp1a_trial_82_colour2_distractors1_r.png,r,2,037,001,2021-04-26_22h15.38.453,searchDisc4,2020.2.10,MacIntel,60,,,space,0.278,2,1,0.512,,0,196,196,82,1,1a,82,2,1,
,,,,,,,,,,,,,,,,,,,,,,,,,,images/exp2c_trial_14_colour3_distractors9_r.png,r,2,037,001,2021-04-26_22h15.38.453,searchDisc4,2020.2.10,MacIntel,60,,,space,0.259,1,0,0.55,,0,197,197,470,1,2c,14,3,9,
,,,,,,,,,,,,,,,,,,,,,,,,,,images/exp2b_trial_110_colour3_distractors31_l.png,l,1,037,001,2021-04-26_22h15.38.453,searchDisc4,2020.2.10,MacIntel,60,,,space,0.47,1,1,0.627,,0,198,198,452,1,2b,110,3,31,
,,,,,,,,,,,,,,,,,,,,,,,,,,images/exp2c_trial_102_colour2_distractors9_l.png,l,1,037,001,2021-04-26_22h15.38.453,searchDisc4,2020.2.10,MacIntel,60,,,space,0.239,1,1,0.572,,0,199,199,558,1,2c,102,2,9,
,,,,,,,,,,,,,,,,,,,,,,,,,,images/exp1a_trial_100_colour2_distractors1_l.png,l,1,037,001,2021-04-26_22h15.38.453,searchDisc4,2020.2.10,MacIntel,60,,,space,0.258,1,1,0.468,,0,200,200,100,1,1a,100,2,1,
,,,,,,,,,,,,,,,,,,,,,,,,,,images/exp1a_trial_49_colour2_distractors43_r.png,r,2,037,001,2021-04-26_22h15.38.453,searchDisc4,2020.2.10,MacIntel,60,,,space,0.337,2,1,0.554,,0,201,201,49,1,1a,49,2,43,
,,,,,,,,,,,,,,,,,,,,,,,,,,images/exp2c_trial_88_colour3_distractors1_r.png,r,2,037,001,2021-04-26_22h15.38.453,searchDisc4,2020.2.10,MacIntel,60,,,space,0.258,2,1,0.513,,0,202,202,544,1,2c,88,3,1,
,,,,,,,,,,,,,,,,,,,,,,,,,,images/exp2a_trial_75_colour0_distractors0_l.png,l,1,037,001,2021-04-26_22h15.38.453,searchDisc4,2020.2.10,MacIntel,60,,,space,0.277,1,1,0.511,,0,203,203,303,1,2a,75,0,0,
,,,,,,,,,,,,,,,,,,,,,,,,,,images/exp2b_trial_10_colour2_distractors31_r.png,r,2,037,001,2021-04-26_22h15.38.453,searchDisc4,2020.2.10,MacIntel,60,,,space,0.26,2,1,0.613,,0,204,204,352,1,2b,10,2,31,
,,,,,,,,,,,,,,,,,,,,,,,,,,images/exp2b_trial_52_colour3_distractors9_r.png,r,2,037,001,2021-04-26_22h15.38.453,searchDisc4,2020.2.10,MacIntel,60,,,space,0.298,2,1,0.795,,0,205,205,394,1,2b,52,3,9,
,,,,,,,,,,,,,,,,,,,,,,,,,,images/exp1b_trial_58_colour1_distractors9_l.png,l,1,037,001,2021-04-26_22h15.38.453,searchDisc4,2020.2.10,MacIntel,60,,,space,0.283,1,1,0.551,,0,206,206,172,1,1b,58,1,9,
,,,,,,,,,,,,,,,,,,,,,,,,,,images/exp1b_trial_81_colour1_distractors43_r.png,r,2,037,001,2021-04-26_22h15.38.453,searchDisc4,2020.2.10,MacIntel,60,,,space,0.259,2,1,0.734,,0,207,207,195,1,1b,81,1,43,
,,,,,,,,,,,,,,,,,,,,,,,,,,images/exp2a_trial_63_colour2_distractors4_l.png,l,1,037,001,2021-04-26_22h15.38.453,searchDisc4,2020.2.10,MacIntel,60,,,space,0.298,1,1,0.57,,0,208,208,291,1,2a,63,2,4,
,,,,,,,,,,,,,,,,,,,,,,,,,,images/exp2a_trial_103_colour2_distractors19_l.png,l,1,037,001,2021-04-26_22h15.38.453,searchDisc4,2020.2.10,MacIntel,60,,,space,0.32,1,1,0.549,,0,209,209,331,1,2a,103,2,19,
,,,,,,,,,,,,,,,,,,,,,,,,,,images/exp1b_trial_72_colour3_distractors31_l.png,l,1,037,001,2021-04-26_22h15.38.453,searchDisc4,2020.2.10,MacIntel,60,,,space,0.319,1,1,0.651,,0,210,210,186,1,1b,72,3,31,
,,,,,,,,,,,,,,,,,,,,,,,,,,images/exp1b_trial_90_colour3_distractors9_r.png,r,2,037,001,2021-04-26_22h15.38.453,searchDisc4,2020.2.10,MacIntel,60,,,space,0.302,2,1,0.567,,0,211,211,204,1,1b,90,3,9,
,,,,,,,,,,,,,,,,,,,,,,,,,,images/exp2b_trial_58_colour1_distractors9_l.png,l,1,037,001,2021-04-26_22h15.38.453,searchDisc4,2020.2.10,MacIntel,60,,,space,0.239,1,1,0.552,,0,212,212,400,1,2b,58,1,9,
,,,,,,,,,,,,,,,,,,,,,,,,,,images/exp2a_trial_46_colour2_distractors9_r.png,r,2,037,001,2021-04-26_22h15.38.453,searchDisc4,2020.2.10,MacIntel,60,,,space,0.239,2,1,0.589,,0,213,213,274,1,2a,46,2,9,
,,,,,,,,,,,,,,,,,,,,,,,,,,images/exp1a_trial_74_colour0_distractors0_r.png,r,2,037,001,2021-04-26_22h15.38.453,searchDisc4,2020.2.10,MacIntel,60,,,space,0.478,2,1,0.594,,0,214,214,74,1,1a,74,0,0,
,,,,,,,,,,,,,,,,,,,,,,,,,,images/exp1b_trial_30_colour3_distractors1_l.png,l,1,037,001,2021-04-26_22h15.38.453,searchDisc4,2020.2.10,MacIntel,60,,,space,0.282,1,1,0.512,,0,215,215,144,1,1b,30,3,1,
,,,,,,,,,,,,,,,,,,,,,,,,,,images/exp1a_trial_46_colour2_distractors9_r.png,r,2,037,001,2021-04-26_22h15.38.453,searchDisc4,2020.2.10,MacIntel,60,,,space,0.458,2,1,0.551,,0,216,216,46,1,1a,46,2,9,
,,,,,,,,,,,,,,,,,,,,,,,,,,images/exp1a_trial_34_colour3_distractors31_l.png,l,1,037,001,2021-04-26_22h15.38.453,searchDisc4,2020.2.10,MacIntel,60,,,space,0.339,1,1,0.49,,0,217,217,34,1,1a,34,3,31,
,,,,,,,,,,,,,,,,,,,,,,,,,,images/exp2b_trial_73_colour3_distractors43_l.png,l,1,037,001,2021-04-26_22h15.38.453,searchDisc4,2020.2.10,MacIntel,60,,,space,0.363,1,1,0.652,,0,218,218,415,1,2b,73,3,43,
,,,,,,,,,,,,,,,,,,,,,,,,,,images/exp1a_trial_6_colour2_distractors1_r.png,r,2,037,001,2021-04-26_22h15.38.453,searchDisc4,2020.2.10,MacIntel,60,,,space,0.384,2,1,0.514,,0,219,219,6,1,1a,6,2,1,
,,,,,,,,,,,,,,,,,,,,,,,,,,images/exp2a_trial_74_colour0_distractors0_r.png,r,2,037,001,2021-04-26_22h15.38.453,searchDisc4,2020.2.10,MacIntel,60,,,space,0.317,2,1,0.473,,0,220,220,302,1,2a,74,0,0,
,,,,,,,,,,,,,,,,,,,,,,,,,,images/exp2b_trial_16_colour3_distractors31_r.png,r,2,037,001,2021-04-26_22h15.38.453,searchDisc4,2020.2.10,MacIntel,60,,,space,0.32,2,1,0.592,,0,221,221,358,1,2b,16,3,31,
,,,,,,,,,,,,,,,,,,,,,,,,,,images/exp2a_trial_86_colour2_distractors31_r.png,r,2,037,001,2021-04-26_22h15.38.453,searchDisc4,2020.2.10,MacIntel,60,,,space,0.299,2,1,0.49,,0,222,222,314,1,2a,86,2,31,
,,,,,,,,,,,,,,,,,,,,,,,,,,images/exp2c_trial_21_colour1_distractors19_l.png,l,1,037,001,2021-04-26_22h15.38.453,searchDisc4,2020.2.10,MacIntel,60,,,space,0.259,1,1,0.551,,0,223,223,477,1,2c,21,1,19,
,,,,,,,,,,,,,,,,,,,,,,,,,,images/exp1a_trial_89_colour3_distractors4_r.png,r,2,037,001,2021-04-26_22h15.38.453,searchDisc4,2020.2.10,MacIntel,60,,,space,0.301,2,1,0.753,,0,224,224,89,1,1a,89,3,4,
,,,,,,,,,,,,,,,,,,,,,,,,,,images/exp2b_trial_102_colour2_distractors9_l.png,l,1,037,001,2021-04-26_22h15.38.453,searchDisc4,2020.2.10,MacIntel,60,,,space,0.279,1,1,0.589,,0,225,225,444,1,2b,102,2,9,
,,,,,,,,,,,,,,,,,,,,,,,,,,images/exp2c_trial_39_colour1_distractors4_r.png,r,2,037,001,2021-04-26_22h15.38.453,searchDisc4,2020.2.10,MacIntel,60,,,space,0.297,2,1,0.532,,0,226,226,495,1,2c,39,1,4,
,,,,,,,,,,,,,,,,,,,,,,,,,,images/exp2a_trial_39_colour1_distractors4_r.png,r,2,037,001,2021-04-26_22h15.38.453,searchDisc4,2020.2.10,MacIntel,60,,,space,0.258,2,1,0.591,,0,227,227,267,1,2a,39,1,4,
,,,,,,,,,,,,,,,,,,,,,,,,,,images/exp1b_trial_97_colour1_distractors19_l.png,l,1,037,001,2021-04-26_22h15.38.453,searchDisc4,2020.2.10,MacIntel,60,,,space,0.278,1,1,0.61,,0,228,228,211,1,1b,97,1,19,
,,,,,,,,,,,,,,,,,,,,,,,,,,images/exp1a_trial_63_colour2_distractors4_l.png,l,1,037,001,2021-04-26_22h15.38.453,searchDisc4,2020.2.10,MacIntel,60,,,space,0.357,1,1,0.689,,0,229,229,63,1,1a,63,2,4,
,,,,,,,,,,,,,,,,,,,,,,,,,,images/exp2b_trial_33_colour3_distractors19_l.png,l,1,037,001,2021-04-26_22h15.38.453,searchDisc4,2020.2.10,MacIntel,60,,,space,0.281,1,1,0.557,,0,230,230,375,1,2b,33,3,19,
,,,,,,,,,,,,,,,,,,,,,,,,,,images/exp2c_trial_89_colour3_distractors4_r.png,r,2,037,001,2021-04-26_22h15.38.453,searchDisc4,2020.2.10,MacIntel,60,,,space,0.321,2,1,0.594,,0,231,231,545,1,2c,89,3,4,
,,,,,,,,,,,,,,,,,,,,,,,,,,images/exp2c_trial_68_colour3_distractors1_l.png,l,1,037,001,2021-04-26_22h15.38.453,searchDisc4,2020.2.10,MacIntel,60,,,space,0.3,1,1,0.53,,0,232,232,524,1,2c,68,3,1,
,,,,,,,,,,,,,,,,,,,,,,,,,,images/exp1b_trial_111_colour3_distractors43_l.png,l,1,037,001,2021-04-26_22h15.38.453,searchDisc4,2020.2.10,MacIntel,60,,,space,0.519,1,1,1.81,,0,233,233,225,1,1b,111,3,43,
,,,,,,,,,,,,,,,,,,,,,,,,,,images/exp2b_trial_38_colour1_distractors1_r.png,r,2,037,001,2021-04-26_22h15.38.453,searchDisc4,2020.2.10,MacIntel,60,,,space,0.285,2,1,0.512,,0,234,234,380,1,2b,38,1,1,
,,,,,,,,,,,,,,,,,,,,,,,,,,images/exp1b_trial_17_colour3_distractors43_r.png,r,2,037,001,2021-04-26_22h15.38.453,searchDisc4,2020.2.10,MacIntel,60,,,space,0.262,1,0,0.653,,0,235,235,131,1,1b,17,3,43,
,,,,,,,,,,,,,,,,,,,,,,,,,,images/exp2c_trial_52_colour3_distractors9_r.png,r,2,037,001,2021-04-26_22h15.38.453,searchDisc4,2020.2.10,MacIntel,60,,,space,5.341,2,1,0.611,,0,236,236,508,1,2c,52,3,9,
,,,,,,,,,,,,,,,,,,,,,,,,,,images/exp2a_trial_41_colour1_distractors19_r.png,r,2,037,001,2021-04-26_22h15.38.453,searchDisc4,2020.2.10,MacIntel,60,,,space,0.26,2,1,0.631,,0,237,237,269,1,2a,41,1,19,
,,,,,,,,,,,,,,,,,,,,,,,,,,images/exp2a_trial_29_colour2_distractors43_l.png,l,1,037,001,2021-04-26_22h15.38.453,searchDisc4,2020.2.10,MacIntel,60,,,space,0.28,1,1,0.548,,0,238,238,257,1,2a,29,2,43,
,,,,,,,,,,,,,,,,,,,,,,,,,,images/exp2b_trial_65_colour2_distractors19_l.png,l,1,037,001,2021-04-26_22h15.38.453,searchDisc4,2020.2.10,MacIntel,60,,,space,0.299,1,1,0.751,space,0,239,239,407,1,2b,65,2,19,17.694
,,,,,,,,,,,,,,,,,,,,,,,,,,images/exp2b_trial_74_colour0_distractors0_r.png,r,2,037,001,2021-04-26_22h15.38.453,searchDisc4,2020.2.10,MacIntel,60,,,space,0.64,2,1,0.53,,0,240,240,416,1,2b,74,0,0,
,,,,,,,,,,,,,,,,,,,,,,,,,,images/exp1a_trial_61_colour1_distractors43_l.png,l,1,037,001,2021-04-26_22h15.38.453,searchDisc4,2020.2.10,MacIntel,60,,,space,0.4,1,1,0.59,,0,241,241,61,1,1a,61,1,43,
,,,,,,,,,,,,,,,,,,,,,,,,,,images/exp2c_trial_53_colour3_distractors19_r.png,r,2,037,001,2021-04-26_22h15.38.453,searchDisc4,2020.2.10,MacIntel,60,,,space,0.278,2,1,0.61,,0,242,242,509,1,2c,53,3,19,
,,,,,,,,,,,,,,,,,,,,,,,,,,images/exp1a_trial_94_colour1_distractors1_l.png,l,1,037,001,2021-04-26_22h15.38.453,searchDisc4,2020.2.10,MacIntel,60,,,space,0.399,1,1,0.611,,0,243,243,94,1,1a,94,1,1,
,,,,,,,,,,,,,,,,,,,,,,,,,,images/exp1a_trial_28_colour2_distractors31_l.png,l,1,037,001,2021-04-26_22h15.38.453,searchDisc4,2020.2.10,MacIntel,60,,,space,0.319,1,1,0.69,,0,244,244,28,1,1a,28,2,31,
,,,,,,,,,,,,,,,,,,,,,,,,,,images/exp2c_trial_12_colour3_distractors1_r.png,r,2,037,001,2021-04-26_22h15.38.453,searchDisc4,2020.2.10,MacIntel,60,,,space,0.298,2,1,0.512,,0,245,245,468,1,2c,12,3,1,
,,,,,,,,,,,,,,,,,,,,,,,,,,images/exp2a_trial_23_colour1_distractors43_l.png,l,1,037,001,2021-04-26_22h15.38.453,searchDisc4,2020.2.10,MacIntel,60,,,space,0.299,1,1,0.631,,0,246,246,251,1,2a,23,1,43,
,,,,,,,,,,,,,,,,,,,,,,,,,,images/exp1b_trial_64_colour2_distractors9_l.png,l,1,037,001,2021-04-26_22h15.38.453,searchDisc4,2020.2.10,MacIntel,60,,,space,0.258,1,1,0.57,,0,247,247,178,1,1b,64,2,9,
,,,,,,,,,,,,,,,,,,,,,,,,,,images/exp1a_trial_91_colour3_distractors19_r.png,r,2,037,001,2021-04-26_22h15.38.453,searchDisc4,2020.2.10,MacIntel,60,,,space,0.259,2,1,0.849,,0,248,248,91,1,1a,91,3,19,
,,,,,,,,,,,,,,,,,,,,,,,,,,images/exp1b_trial_62_colour2_distractors1_l.png,l,1,037,001,2021-04-26_22h15.38.453,searchDisc4,2020.2.10,MacIntel,60,,,space,0.278,1,1,0.714,,0,249,249,176,1,1b,62,2,1,
,,,,,,,,,,,,,,,,,,,,,,,,,,images/exp1b_trial_109_colour3_distractors19_l.png,l,1,037,001,2021-04-26_22h15.38.453,searchDisc4,2020.2.10,MacIntel,60,,,space,0.263,1,1,1.311,,0,250,250,223,1,1b,109,3,19,
,,,,,,,,,,,,,,,,,,,,,,,,,,images/exp2c_trial_80_colour1_distractors31_r.png,r,2,037,001,2021-04-26_22h15.38.453,searchDisc4,2020.2.10,MacIntel,60,,,space,0.3,2,1,0.57,,0,251,251,536,1,2c,80,1,31,
,,,,,,,,,,,,,,,,,,,,,,,,,,images/exp2b_trial_4_colour1_distractors31_r.png,r,2,037,001,2021-04-26_22h15.38.453,searchDisc4,2020.2.10,MacIntel,60,,,space,0.299,2,1,0.652,,0,252,252,346,1,2b,4,1,31,
,,,,,,,,,,,,,,,,,,,,,,,,,,images/exp2c_trial_72_colour3_distractors31_l.png,l,1,037,001,2021-04-26_22h15.38.453,searchDisc4,2020.2.10,MacIntel,60,,,space,0.297,1,1,0.632,,0,253,253,528,1,2c,72,3,31,
,,,,,,,,,,,,,,,,,,,,,,,,,,images/exp2a_trial_30_colour3_distractors1_l.png,l,1,037,001,2021-04-26_22h15.38.453,searchDisc4,2020.2.10,MacIntel,60,,,space,0.278,1,1,0.512,,0,254,254,258,1,2a,30,3,1,
,,,,,,,,,,,,,,,,,,,,,,,,,,images/exp2c_trial_16_colour3_distractors31_r.png,r,2,037,001,2021-04-26_22h15.38.453,searchDisc4,2020.2.10,MacIntel,60,,,space,0.28,2,1,0.53,,0,255,255,472,1,2c,16,3,31,
,,,,,,,,,,,,,,,,,,,,,,,,,,images/exp1a_trial_31_colour3_distractors4_l.png,l,1,037,001,2021-04-26_22h15.38.453,searchDisc4,2020.2.10,MacIntel,60,,,space,0.259,1,1,0.791,,0,256,256,31,1,1a,31,3,4,
,,,,,,,,,,,,,,,,,,,,,,,,,,images/exp2c_trial_109_colour3_distractors19_l.png,l,1,037,001,2021-04-26_22h15.38.453,searchDisc4,2020.2.10,MacIntel,60,,,space,0.259,1,1,0.571,,0,257,257,565,1,2c,109,3,19,
,,,,,,,,,,,,,,,,,,,,,,,,,,images/exp1a_trial_2_colour1_distractors9_r.png,r,2,037,001,2021-04-26_22h15.38.453,searchDisc4,2020.2.10,MacIntel,60,,,space,0.298,2,1,0.571,,0,258,258,2,1,1a,2,1,9,
,,,,,,,,,,,,,,,,,,,,,,,,,,images/exp2b_trial_50_colour3_distractors1_r.png,r,2,037,001,2021-04-26_22h15.38.453,searchDisc4,2020.2.10,MacIntel,60,,,space,0.319,2,1,0.571,,0,259,259,392,1,2b,50,3,1,
,,,,,,,,,,,,,,,,,,,,,,,,,,images/exp1b_trial_113_colour0_distractors0_l.png,l,1,037,001,2021-04-26_22h15.38.453,searchDisc4,2020.2.10,MacIntel,60,,,space,0.219,1,1,0.531,,0,260,260,227,1,1b,113,0,0,
,,,,,,,,,,,,,,,,,,,,,,,,,,images/exp2c_trial_15_colour3_distractors19_r.png,r,2,037,001,2021-04-26_22h15.38.453,searchDisc4,2020.2.10,MacIntel,60,,,space,0.279,2,1,0.653,,0,261,261,471,1,2c,15,3,19,
,,,,,,,,,,,,,,,,,,,,,,,,,,images/exp2b_trial_75_colour0_distractors0_l.png,l,1,037,001,2021-04-26_22h15.38.453,searchDisc4,2020.2.10,MacIntel,60,,,space,0.259,1,1,0.51,,0,262,262,417,1,2b,75,0,0,
,,,,,,,,,,,,,,,,,,,,,,,,,,images/exp2c_trial_106_colour3_distractors1_l.png,l,1,037,001,2021-04-26_22h15.38.453,searchDisc4,2020.2.10,MacIntel,60,,,space,0.279,1,1,0.59,,0,263,263,562,1,2c,106,3,1,
,,,,,,,,,,,,,,,,,,,,,,,,,,images/exp2a_trial_112_colour0_distractors0_r.png,r,2,037,001,2021-04-26_22h15.38.453,searchDisc4,2020.2.10,MacIntel,60,,,space,0.267,2,1,0.531,,0,264,264,340,1,2a,112,0,0,
,,,,,,,,,,,,,,,,,,,,,,,,,,images/exp2a_trial_32_colour3_distractors9_l.png,l,1,037,001,2021-04-26_22h15.38.453,searchDisc4,2020.2.10,MacIntel,60,,,space,0.286,1,1,0.691,,0,265,265,260,1,2a,32,3,9,
,,,,,,,,,,,,,,,,,,,,,,,,,,images/exp2b_trial_87_colour2_distractors43_r.png,r,2,037,001,2021-04-26_22h15.38.453,searchDisc4,2020.2.10,MacIntel,60,,,space,0.359,2,1,0.65,,0,266,266,429,1,2b,87,2,43,
,,,,,,,,,,,,,,,,,,,,,,,,,,images/exp1a_trial_52_colour3_distractors9_r.png,r,2,037,001,2021-04-26_22h15.38.453,searchDisc4,2020.2.10,MacIntel,60,,,space,0.278,2,1,0.85,,0,267,267,52,1,1a,52,3,9,
,,,,,,,,,,,,,,,,,,,,,,,,,,images/exp1a_trial_16_colour3_distractors31_r.png,r,2,037,001,2021-04-26_22h15.38.453,searchDisc4,2020.2.10,MacIntel,60,,,space,0.266,1,0,0.631,,0,268,268,16,1,1a,16,3,31,
,,,,,,,,,,,,,,,,,,,,,,,,,,images/exp2b_trial_91_colour3_distractors19_r.png,r,2,037,001,2021-04-26_22h15.38.453,searchDisc4,2020.2.10,MacIntel,60,,,space,3.099,2,1,0.657,,0,269,269,433,1,2b,91,3,19,
,,,,,,,,,,,,,,,,,,,,,,,,,,images/exp2c_trial_32_colour3_distractors9_l.png,l,1,037,001,2021-04-26_22h15.38.453,searchDisc4,2020.2.10,MacIntel,60,,,space,0.42,1,1,0.591,,0,270,270,488,1,2c,32,3,9,
,,,,,,,,,,,,,,,,,,,,,,,,,,images/exp2a_trial_108_colour3_distractors9_l.png,l,1,037,001,2021-04-26_22h15.38.453,searchDisc4,2020.2.10,MacIntel,60,,,space,0.299,1,1,0.628,,0,271,271,336,1,2a,108,3,9,
,,,,,,,,,,,,,,,,,,,,,,,,,,images/exp2c_trial_62_colour2_distractors1_l.png,l,1,037,001,2021-04-26_22h15.38.453,searchDisc4,2020.2.10,MacIntel,60,,,space,0.259,1,1,0.571,,0,272,272,518,1,2c,62,2,1,
,,,,,,,,,,,,,,,,,,,,,,,,,,images/exp2a_trial_71_colour3_distractors19_l.png,l,1,037,001,2021-04-26_22h15.38.453,searchDisc4,2020.2.10,MacIntel,60,,,space,0.338,1,1,0.566,,0,273,273,299,1,2a,71,3,19,
,,,,,,,,,,,,,,,,,,,,,,,,,,images/exp2a_trial_62_colour2_distractors1_l.png,l,1,037,001,2021-04-26_22h15.38.453,searchDisc4,2020.2.10,MacIntel,60,,,space,0.344,1,1,0.492,,0,274,274,290,1,2a,62,2,1,
,,,,,,,,,,,,,,,,,,,,,,,,,,images/exp2c_trial_5_colour1_distractors43_r.png,r,2,037,001,2021-04-26_22h15.38.453,searchDisc4,2020.2.10,MacIntel,60,,,space,0.318,2,1,0.594,,0,275,275,461,1,2c,5,1,43,
,,,,,,,,,,,,,,,,,,,,,,,,,,images/exp2c_trial_54_colour3_distractors31_r.png,r,2,037,001,2021-04-26_22h15.38.453,searchDisc4,2020.2.10,MacIntel,60,,,space,0.543,2,1,0.512,,0,276,276,510,1,2c,54,3,31,
,,,,,,,,,,,,,,,,,,,,,,,,,,images/exp2a_trial_81_colour1_distractors43_r.png,r,2,037,001,2021-04-26_22h15.38.453,searchDisc4,2020.2.10,MacIntel,60,,,space,0.282,2,1,0.671,,0,277,277,309,1,2a,81,1,43,
,,,,,,,,,,,,,,,,,,,,,,,,,,images/exp2b_trial_36_colour0_distractors0_r.png,r,2,037,001,2021-04-26_22h15.38.453,searchDisc4,2020.2.10,MacIntel,60,,,space,0.342,2,1,0.453,,0,278,278,378,1,2b,36,0,0,
,,,,,,,,,,,,,,,,,,,,,,,,,,images/exp1a_trial_55_colour3_distractors43_r.png,r,2,037,001,2021-04-26_22h15.38.453,searchDisc4,2020.2.10,MacIntel,60,,,space,0.278,2,1,0.608,,0,279,279,55,1,1a,55,3,43,
,,,,,,,,,,,,,,,,,,,,,,,,,,images/exp2a_trial_5_colour1_distractors43_r.png,r,2,037,001,2021-04-26_22h15.38.453,searchDisc4,2020.2.10,MacIntel,60,,,space,0.258,2,1,0.75,,0,280,280,233,1,2a,5,1,43,
,,,,,,,,,,,,,,,,,,,,,,,,,,images/exp2c_trial_78_colour1_distractors9_r.png,r,2,037,001,2021-04-26_22h15.38.453,searchDisc4,2020.2.10,MacIntel,60,,,space,0.281,2,1,0.533,,0,281,281,534,1,2c,78,1,9,
,,,,,,,,,,,,,,,,,,,,,,,,,,images/exp2c_trial_83_colour2_distractors4_r.png,r,2,037,001,2021-04-26_22h15.38.453,searchDisc4,2020.2.10,MacIntel,60,,,space,0.26,2,1,0.492,,0,282,282,539,1,2c,83,2,4,
,,,,,,,,,,,,,,,,,,,,,,,,,,images/exp2c_trial_108_colour3_distractors9_l.png,l,1,037,001,2021-04-26_22h15.38.453,searchDisc4,2020.2.10,MacIntel,60,,,space,0.259,1,1,0.632,,0,283,283,564,1,2c,108,3,9,
,,,,,,,,,,,,,,,,,,,,,,,,,,images/exp1a_trial_36_colour0_distractors0_r.png,r,2,037,001,2021-04-26_22h15.38.453,searchDisc4,2020.2.10,MacIntel,60,,,space,0.303,2,1,0.632,,0,284,284,36,1,1a,36,0,0,
,,,,,,,,,,,,,,,,,,,,,,,,,,images/exp2c_trial_84_colour2_distractors9_r.png,r,2,037,001,2021-04-26_22h15.38.453,searchDisc4,2020.2.10,MacIntel,60,,,space,0.318,2,1,0.616,,0,285,285,540,1,2c,84,2,9,
,,,,,,,,,,,,,,,,,,,,,,,,,,images/exp2c_trial_28_colour2_distractors31_l.png,l,1,037,001,2021-04-26_22h15.38.453,searchDisc4,2020.2.10,MacIntel,60,,,space,0.401,1,1,0.753,,0,286,286,484,1,2c,28,2,31,
,,,,,,,,,,,,,,,,,,,,,,,,,,images/exp1b_trial_6_colour2_distractors1_r.png,r,2,037,001,2021-04-26_22h15.38.453,searchDisc4,2020.2.10,MacIntel,60,,,space,0.379,2,1,0.593,,0,287,287,120,1,1b,6,2,1,
,,,,,,,,,,,,,,,,,,,,,,,,,,images/exp1b_trial_55_colour3_distractors43_r.png,r,2,037,001,2021-04-26_22h15.38.453,searchDisc4,2020.2.10,MacIntel,60,,,space,0.558,2,1,2.856,,0,288,288,169,1,1b,55,3,43,
,,,,,,,,,,,,,,,,,,,,,,,,,,images/exp2a_trial_82_colour2_distractors1_r.png,r,2,037,001,2021-04-26_22h15.38.453,searchDisc4,2020.2.10,MacIntel,60,,,space,0.339,2,1,0.553,,0,289,289,310,1,2a,82,2,1,
,,,,,,,,,,,,,,,,,,,,,,,,,,images/exp1b_trial_74_colour0_distractors0_r.png,r,2,037,001,2021-04-26_22h15.38.453,searchDisc4,2020.2.10,MacIntel,60,,,space,0.338,2,1,0.453,,0,290,290,188,1,1b,74,0,0,
,,,,,,,,,,,,,,,,,,,,,,,,,,images/exp2c_trial_96_colour1_distractors9_l.png,l,1,037,001,2021-04-26_22h15.38.453,searchDisc4,2020.2.10,MacIntel,60,,,space,0.281,1,1,0.532,,0,291,291,552,1,2c,96,1,9,
,,,,,,,,,,,,,,,,,,,,,,,,,,images/exp2a_trial_22_colour1_distractors31_l.png,l,1,037,001,2021-04-26_22h15.38.453,searchDisc4,2020.2.10,MacIntel,60,,,space,0.318,1,1,0.491,,0,292,292,250,1,2a,22,1,31,
,,,,,,,,,,,,,,,,,,,,,,,,,,images/exp1b_trial_95_colour1_distractors4_l.png,l,1,037,001,2021-04-26_22h15.38.453,searchDisc4,2020.2.10,MacIntel,60,,,space,0.26,1,1,0.531,,0,293,293,209,1,1b,95,1,4,
,,,,,,,,,,,,,,,,,,,,,,,,,,images/exp2c_trial_18_colour1_distractors1_l.png,l,1,037,001,2021-04-26_22h15.38.453,searchDisc4,2020.2.10,MacIntel,60,,,space,0.3,1,1,0.511,,0,294,294,474,1,2c,18,1,1,
,,,,,,,,,,,,,,,,,,,,,,,,,,images/exp2c_trial_94_colour1_distractors1_l.png,l,1,037,001,2021-04-26_22h15.38.453,searchDisc4,2020.2.10,MacIntel,60,,,space,0.399,1,1,0.512,,0,295,295,550,1,2c,94,1,1,
,,,,,,,,,,,,,,,,,,,,,,,,,,images/exp2b_trial_6_colour2_distractors1_r.png,r,2,037,001,2021-04-26_22h15.38.453,searchDisc4,2020.2.10,MacIntel,60,,,space,0.34,2,1,0.535,,0,296,296,348,1,2b,6,2,1,
,,,,,,,,,,,,,,,,,,,,,,,,,,images/exp2b_trial_97_colour1_distractors19_l.png,l,1,037,001,2021-04-26_22h15.38.453,searchDisc4,2020.2.10,MacIntel,60,,,space,0.345,1,1,0.532,,0,297,297,439,1,2b,97,1,19,
,,,,,,,,,,,,,,,,,,,,,,,,,,images/exp2b_trial_76_colour1_distractors1_r.png,r,2,037,001,2021-04-26_22h15.38.453,searchDisc4,2020.2.10,MacIntel,60,,,space,0.359,2,1,0.531,,0,298,298,418,1,2b,76,1,1,
,,,,,,,,,,,,,,,,,,,,,,,,,,images/exp2b_trial_19_colour1_distractors4_l.png,l,1,037,001,2021-04-26_22h15.38.453,searchDisc4,2020.2.10,MacIntel,60,,,space,0.258,1,1,0.511,space,0,299,299,361,1,2b,19,1,4,0.296
,,,,,,,,,,,,,,,,,,,,,,,,,,images/exp2b_trial_49_colour2_distractors43_r.png,r,2,037,001,2021-04-26_22h15.38.453,searchDisc4,2020.2.10,MacIntel,60,,,space,0.679,2,1,0.612,,0,300,300,391,1,2b,49,2,43,
,,,,,,,,,,,,,,,,,,,,,,,,,,images/exp1a_trial_14_colour3_distractors9_r.png,r,2,037,001,2021-04-26_22h15.38.453,searchDisc4,2020.2.10,MacIntel,60,,,space,0.258,2,1,0.589,,0,301,301,14,1,1a,14,3,9,
,,,,,,,,,,,,,,,,,,,,,,,,,,images/exp2b_trial_106_colour3_distractors1_l.png,l,1,037,001,2021-04-26_22h15.38.453,searchDisc4,2020.2.10,MacIntel,60,,,space,0.224,1,1,0.57,,0,302,302,448,1,2b,106,3,1,
,,,,,,,,,,,,,,,,,,,,,,,,,,images/exp1a_trial_21_colour1_distractors19_l.png,l,1,037,001,2021-04-26_22h15.38.453,searchDisc4,2020.2.10,MacIntel,60,,,space,0.36,1,1,0.569,,0,303,303,21,1,1a,21,1,19,
,,,,,,,,,,,,,,,,,,,,,,,,,,images/exp2b_trial_1_colour1_distractors4_r.png,r,2,037,001,2021-04-26_22h15.38.453,searchDisc4,2020.2.10,MacIntel,60,,,space,0.278,2,1,0.611,,0,304,304,343,1,2b,1,1,4,
,,,,,,,,,,,,,,,,,,,,,,,,,,images/exp2c_trial_99_colour1_distractors43_l.png,l,1,037,001,2021-04-26_22h15.38.453,searchDisc4,2020.2.10,MacIntel,60,,,space,0.339,1,1,0.554,,0,305,305,555,1,2c,99,1,43,
,,,,,,,,,,,,,,,,,,,,,,,,,,images/exp2a_trial_12_colour3_distractors1_r.png,r,2,037,001,2021-04-26_22h15.38.453,searchDisc4,2020.2.10,MacIntel,60,,,space,0.283,2,1,0.572,,0,306,306,240,1,2a,12,3,1,
,,,,,,,,,,,,,,,,,,,,,,,,,,images/exp2c_trial_79_colour1_distractors19_r.png,r,2,037,001,2021-04-26_22h15.38.453,searchDisc4,2020.2.10,MacIntel,60,,,space,0.239,2,1,0.551,,0,307,307,535,1,2c,79,1,19,
,,,,,,,,,,,,,,,,,,,,,,,,,,images/exp2c_trial_65_colour2_distractors19_l.png,l,1,037,001,2021-04-26_22h15.38.453,searchDisc4,2020.2.10,MacIntel,60,,,space,0.279,1,1,0.593,,0,308,308,521,1,2c,65,2,19,
,,,,,,,,,,,,,,,,,,,,,,,,,,images/exp2c_trial_57_colour1_distractors4_l.png,l,1,037,001,2021-04-26_22h15.38.453,searchDisc4,2020.2.10,MacIntel,60,,,space,0.321,1,1,0.473,,0,309,309,513,1,2c,57,1,4,
,,,,,,,,,,,,,,,,,,,,,,,,,,images/exp2a_trial_69_colour3_distractors4_l.png,l,1,037,001,2021-04-26_22h15.38.453,searchDisc4,2020.2.10,MacIntel,60,,,space,0.241,1,1,0.712,,0,310,310,297,1,2a,69,3,4,
,,,,,,,,,,,,,,,,,,,,,,,,,,images/exp1b_trial_48_colour2_distractors31_r.png,r,2,037,001,2021-04-26_22h15.38.453,searchDisc4,2020.2.10,MacIntel,60,,,space,0.238,2,1,0.571,,0,311,311,162,1,1b,48,2,31,
,,,,,,,,,,,,,,,,,,,,,,,,,,images/exp2b_trial_96_colour1_distractors9_l.png,l,1,037,001,2021-04-26_22h15.38.453,searchDisc4,2020.2.10,MacIntel,60,,,space,0.26,1,1,0.573,,0,312,312,438,1,2b,96,1,9,
,,,,,,,,,,,,,,,,,,,,,,,,,,images/exp1a_trial_96_colour1_distractors9_l.png,l,1,037,001,2021-04-26_22h15.38.453,searchDisc4,2020.2.10,MacIntel,60,,,space,0.239,1,1,0.587,,0,313,313,96,1,1a,96,1,9,
,,,,,,,,,,,,,,,,,,,,,,,,,,images/exp1b_trial_35_colour3_distractors43_l.png,l,1,037,001,2021-04-26_22h15.38.453,searchDisc4,2020.2.10,MacIntel,60,,,space,0.263,1,1,1.271,,0,314,314,149,1,1b,35,3,43,
,,,,,,,,,,,,,,,,,,,,,,,,,,images/exp1a_trial_54_colour3_distractors31_r.png,r,2,037,001,2021-04-26_22h15.38.453,searchDisc4,2020.2.10,MacIntel,60,,,space,0.282,2,1,0.651,,0,315,315,54,1,1a,54,3,31,
,,,,,,,,,,,,,,,,,,,,,,,,,,images/exp1a_trial_83_colour2_distractors4_r.png,r,2,037,001,2021-04-26_22h15.38.453,searchDisc4,2020.2.10,MacIntel,60,,,space,0.298,2,1,0.492,,0,316,316,83,1,1a,83,2,4,
,,,,,,,,,,,,,,,,,,,,,,,,,,images/exp1a_trial_80_colour1_distractors31_r.png,r,2,037,001,2021-04-26_22h15.38.453,searchDisc4,2020.2.10,MacIntel,60,,,space,0.254,2,1,0.591,,0,317,317,80,1,1a,80,1,31,
,,,,,,,,,,,,,,,,,,,,,,,,,,images/exp2a_trial_13_colour3_distractors4_r.png,r,2,037,001,2021-04-26_22h15.38.453,searchDisc4,2020.2.10,MacIntel,60,,,space,0.26,2,1,0.492,,0,318,318,241,1,2a,13,3,4,
,,,,,,,,,,,,,,,,,,,,,,,,,,images/exp2c_trial_61_colour1_distractors43_l.png,l,1,037,001,2021-04-26_22h15.38.453,searchDisc4,2020.2.10,MacIntel,60,,,space,0.258,1,1,0.61,,0,319,319,517,1,2c,61,1,43,
,,,,,,,,,,,,,,,,,,,,,,,,,,images/exp1a_trial_75_colour0_distractors0_l.png,l,1,037,001,2021-04-26_22h15.38.453,searchDisc4,2020.2.10,MacIntel,60,,,space,0.283,1,1,0.491,,0,320,320,75,1,1a,75,0,0,
,,,,,,,,,,,,,,,,,,,,,,,,,,images/exp2a_trial_50_colour3_distractors1_r.png,r,2,037,001,2021-04-26_22h15.38.453,searchDisc4,2020.2.10,MacIntel,60,,,space,0.319,2,1,0.555,,0,321,321,278,1,2a,50,3,1,
,,,,,,,,,,,,,,,,,,,,,,,,,,images/exp2b_trial_11_colour2_distractors43_r.png,r,2,037,001,2021-04-26_22h15.38.453,searchDisc4,2020.2.10,MacIntel,60,,,space,0.242,2,1,0.576,,0,322,322,353,1,2b,11,2,43,
,,,,,,,,,,,,,,,,,,,,,,,,,,images/exp1a_trial_99_colour1_distractors43_l.png,l,1,037,001,2021-04-26_22h15.38.453,searchDisc4,2020.2.10,MacIntel,60,,,space,0.283,2,0,0.49,,0,323,323,99,1,1a,99,1,43,
,,,,,,,,,,,,,,,,,,,,,,,,,,images/exp1b_trial_38_colour1_distractors1_r.png,r,2,037,001,2021-04-26_22h15.38.453,searchDisc4,2020.2.10,MacIntel,60,,,space,0.419,2,1,0.773,,0,324,324,152,1,1b,38,1,1,
,,,,,,,,,,,,,,,,,,,,,,,,,,images/exp2b_trial_7_colour2_distractors4_r.png,r,2,037,001,2021-04-26_22h15.38.453,searchDisc4,2020.2.10,MacIntel,60,,,space,0.262,2,1,0.514,,0,325,325,349,1,2b,7,2,4,
,,,,,,,,,,,,,,,,,,,,,,,,,,images/exp2c_trial_58_colour1_distractors9_l.png,l,1,037,001,2021-04-26_22h15.38.453,searchDisc4,2020.2.10,MacIntel,60,,,space,0.26,1,1,0.531,,0,326,326,514,1,2c,58,1,9,
,,,,,,,,,,,,,,,,,,,,,,,,,,images/exp1b_trial_110_colour3_distractors31_l.png,l,1,037,001,2021-04-26_22h15.38.453,searchDisc4,2020.2.10,MacIntel,60,,,space,0.277,1,1,2.233,,0,327,327,224,1,1b,110,3,31,
,,,,,,,,,,,,,,,,,,,,,,,,,,images/exp2a_trial_40_colour1_distractors9_r.png,r,2,037,001,2021-04-26_22h15.38.453,searchDisc4,2020.2.10,MacIntel,60,,,space,0.318,2,1,0.571,,0,328,328,268,1,2a,40,1,9,
,,,,,,,,,,,,,,,,,,,,,,,,,,images/exp2c_trial_8_colour2_distractors9_r.png,r,2,037,001,2021-04-26_22h15.38.453,searchDisc4,2020.2.10,MacIntel,60,,,space,0.239,2,1,0.554,,0,329,329,464,1,2c,8,2,9,
,,,,,,,,,,,,,,,,,,,,,,,,,,images/exp2b_trial_32_colour3_distractors9_l.png,l,1,037,001,2021-04-26_22h15.38.453,searchDisc4,2020.2.10,MacIntel,60,,,space,0.245,1,1,0.712,,0,330,330,374,1,2b,32,3,9,
,,,,,,,,,,,,,,,,,,,,,,,,,,images/exp2b_trial_14_colour3_distractors9_r.png,r,2,037,001,2021-04-26_22h15.38.453,searchDisc4,2020.2.10,MacIntel,60,,,space,0.362,1,0,0.552,,0,331,331,356,1,2b,14,3,9,
,,,,,,,,,,,,,,,,,,,,,,,,,,images/exp2b_trial_83_colour2_distractors4_r.png,r,2,037,001,2021-04-26_22h15.38.453,searchDisc4,2020.2.10,MacIntel,60,,,space,0.378,2,1,0.59,,0,332,332,425,1,2b,83,2,4,
,,,,,,,,,,,,,,,,,,,,,,,,,,images/exp1a_trial_79_colour1_distractors19_r.png,r,2,037,001,2021-04-26_22h15.38.453,searchDisc4,2020.2.10,MacIntel,60,,,space,0.238,2,1,0.528,,0,333,333,79,1,1a,79,1,19,
,,,,,,,,,,,,,,,,,,,,,,,,,,images/exp1b_trial_75_colour0_distractors0_l.png,l,1,037,001,2021-04-26_22h15.38.453,searchDisc4,2020.2.10,MacIntel,60,,,space,0.22,1,1,0.554,,0,334,334,189,1,1b,75,0,0,
,,,,,,,,,,,,,,,,,,,,,,,,,,images/exp2b_trial_3_colour1_distractors19_r.png,r,2,037,001,2021-04-26_22h15.38.453,searchDisc4,2020.2.10,MacIntel,60,,,space,0.242,2,1,0.609,,0,335,335,345,1,2b,3,1,19,
,,,,,,,,,,,,,,,,,,,,,,,,,,images/exp1a_trial_66_colour2_distractors31_l.png,l,1,037,001,2021-04-26_22h15.38.453,searchDisc4,2020.2.10,MacIntel,60,,,space,0.239,1,1,0.631,,0,336,336,66,1,1a,66,2,31,
,,,,,,,,,,,,,,,,,,,,,,,,,,images/exp2a_trial_44_colour2_distractors1_r.png,r,2,037,001,2021-04-26_22h15.38.453,searchDisc4,2020.2.10,MacIntel,60,,,space,0.22,2,1,0.631,,0,337,337,272,1,2a,44,2,1,
,,,,,,,,,,,,,,,,,,,,,,,,,,images/exp2b_trial_71_colour3_distractors19_l.png,l,1,037,001,2021-04-26_22h15.38.453,searchDisc4,2020.2.10,MacIntel,60,,,space,0.278,1,1,0.613,,0,338,338,413,1,2b,71,3,19,
,,,,,,,,,,,,,,,,,,,,,,,,,,images/exp1b_trial_96_colour1_distractors9_l.png,l,1,037,001,2021-04-26_22h15.38.453,searchDisc4,2020.2.10,MacIntel,60,,,space,0.299,1,1,0.651,,0,339,339,210,1,1b,96,1,9,
,,,,,,,,,,,,,,,,,,,,,,,,,,images/exp1a_trial_69_colour3_distractors4_l.png,l,1,037,001,2021-04-26_22h15.38.453,searchDisc4,2020.2.10,MacIntel,60,,,space,0.298,1,1,0.53,,0,340,340,69,1,1a,69,3,4,
,,,,,,,,,,,,,,,,,,,,,,,,,,images/exp2b_trial_30_colour3_distractors1_l.png,l,1,037,001,2021-04-26_22h15.38.453,searchDisc4,2020.2.10,MacIntel,60,,,space,0.222,1,1,0.591,,0,341,341,372,1,2b,30,3,1,
,,,,,,,,,,,,,,,,,,,,,,,,,,images/exp2c_trial_60_colour1_distractors31_l.png,l,1,037,001,2021-04-26_22h15.38.453,searchDisc4,2020.2.10,MacIntel,60,,,space,0.238,1,1,0.534,,0,342,342,516,1,2c,60,1,31,
,,,,,,,,,,,,,,,,,,,,,,,,,,images/exp2a_trial_93_colour3_distractors43_r.png,r,2,037,001,2021-04-26_22h15.38.453,searchDisc4,2020.2.10,MacIntel,60,,,space,0.262,2,1,0.645,,0,343,343,321,1,2a,93,3,43,
,,,,,,,,,,,,,,,,,,,,,,,,,,images/exp2a_trial_65_colour2_distractors19_l.png,l,1,037,001,2021-04-26_22h15.38.453,searchDisc4,2020.2.10,MacIntel,60,,,space,0.259,1,1,0.609,,0,344,344,293,1,2a,65,2,19,
,,,,,,,,,,,,,,,,,,,,,,,,,,images/exp2c_trial_95_colour1_distractors4_l.png,l,1,037,001,2021-04-26_22h15.38.453,searchDisc4,2020.2.10,MacIntel,60,,,space,0.245,1,1,0.595,,0,345,345,551,1,2c,95,1,4,
,,,,,,,,,,,,,,,,,,,,,,,,,,images/exp1b_trial_88_colour3_distractors1_r.png,r,2,037,001,2021-04-26_22h15.38.453,searchDisc4,2020.2.10,MacIntel,60,,,space,0.28,2,1,0.631,,0,346,346,202,1,1b,88,3,1,
,,,,,,,,,,,,,,,,,,,,,,,,,,images/exp2c_trial_0_colour1_distractors1_r.png,r,2,037,001,2021-04-26_22h15.38.453,searchDisc4,2020.2.10,MacIntel,60,,,space,0.299,2,1,0.473,,0,347,347,456,1,2c,0,1,1,
,,,,,,,,,,,,,,,,,,,,,,,,,,images/exp1a_trial_104_colour2_distractors31_l.png,l,1,037,001,2021-04-26_22h15.38.453,searchDisc4,2020.2.10,MacIntel,60,,,space,0.261,1,1,0.491,,0,348,348,104,1,1a,104,2,31,
,,,,,,,,,,,,,,,,,,,,,,,,,,images/exp2b_trial_46_colour2_distractors9_r.png,r,2,037,001,2021-04-26_22h15.38.453,searchDisc4,2020.2.10,MacIntel,60,,,space,0.278,2,1,0.851,,0,349,349,388,1,2b,46,2,9,
,,,,,,,,,,,,,,,,,,,,,,,,,,images/exp2b_trial_101_colour2_distractors4_l.png,l,1,037,001,2021-04-26_22h15.38.453,searchDisc4,2020.2.10,MacIntel,60,,,space,0.299,1,1,0.475,,0,350,350,443,1,2b,101,2,4,
,,,,,,,,,,,,,,,,,,,,,,,,,,images/exp2a_trial_73_colour3_distractors43_l.png,l,1,037,001,2021-04-26_22h15.38.453,searchDisc4,2020.2.10,MacIntel,60,,,space,0.342,1,1,0.667,,0,351,351,301,1,2a,73,3,43,
,,,,,,,,,,,,,,,,,,,,,,,,,,images/exp1a_trial_39_colour1_distractors4_r.png,r,2,037,001,2021-04-26_22h15.38.453,searchDisc4,2020.2.10,MacIntel,60,,,space,0.259,2,1,0.55,,0,352,352,39,1,1a,39,1,4,
,,,,,,,,,,,,,,,,,,,,,,,,,,images/exp2c_trial_55_colour3_distractors43_r.png,r,2,037,001,2021-04-26_22h15.38.453,searchDisc4,2020.2.10,MacIntel,60,,,space,0.24,2,1,0.572,,0,353,353,511,1,2c,55,3,43,
,,,,,,,,,,,,,,,,,,,,,,,,,,images/exp2b_trial_15_colour3_distractors19_r.png,r,2,037,001,2021-04-26_22h15.38.453,searchDisc4,2020.2.10,MacIntel,60,,,space,0.278,2,1,0.732,,0,354,354,357,1,2b,15,3,19,
,,,,,,,,,,,,,,,,,,,,,,,,,,images/exp2c_trial_33_colour3_distractors19_l.png,l,1,037,001,2021-04-26_22h15.38.453,searchDisc4,2020.2.10,MacIntel,60,,,space,0.26,1,1,0.672,,0,355,355,489,1,2c,33,3,19,
,,,,,,,,,,,,,,,,,,,,,,,,,,images/exp1b_trial_25_colour2_distractors4_l.png,l,1,037,001,2021-04-26_22h15.38.453,searchDisc4,2020.2.10,MacIntel,60,,,space,0.3,1,1,0.752,,0,356,356,139,1,1b,25,2,4,
,,,,,,,,,,,,,,,,,,,,,,,,,,images/exp2b_trial_61_colour1_distractors43_l.png,l,1,037,001,2021-04-26_22h15.38.453,searchDisc4,2020.2.10,MacIntel,60,,,space,0.277,1,1,0.569,,0,357,357,403,1,2b,61,1,43,
,,,,,,,,,,,,,,,,,,,,,,,,,,images/exp1a_trial_20_colour1_distractors9_l.png,l,1,037,001,2021-04-26_22h15.38.453,searchDisc4,2020.2.10,MacIntel,60,,,space,0.319,1,1,0.609,,0,358,358,20,1,1a,20,1,9,
,,,,,,,,,,,,,,,,,,,,,,,,,,images/exp2a_trial_76_colour1_distractors1_r.png,r,2,037,001,2021-04-26_22h15.38.453,searchDisc4,2020.2.10,MacIntel,60,,,space,0.279,2,1,0.552,space,0,359,359,304,1,2a,76,1,1,0.314
,,,,,,,,,,,,,,,,,,,,,,,,,,images/exp2b_trial_95_colour1_distractors4_l.png,l,1,037,001,2021-04-26_22h15.38.453,searchDisc4,2020.2.10,MacIntel,60,,,space,0.88,1,1,0.613,,0,360,360,437,1,2b,95,1,4,
,,,,,,,,,,,,,,,,,,,,,,,,,,images/exp2a_trial_6_colour2_distractors1_r.png,r,2,037,001,2021-04-26_22h15.38.453,searchDisc4,2020.2.10,MacIntel,60,,,space,0.283,2,1,0.549,,0,361,361,234,1,2a,6,2,1,
,,,,,,,,,,,,,,,,,,,,,,,,,,images/exp1a_trial_57_colour1_distractors4_l.png,l,1,037,001,2021-04-26_22h15.38.453,searchDisc4,2020.2.10,MacIntel,60,,,space,0.217,1,1,0.549,,0,362,362,57,1,1a,57,1,4,
,,,,,,,,,,,,,,,,,,,,,,,,,,images/exp1a_trial_43_colour1_distractors43_r.png,r,2,037,001,2021-04-26_22h15.38.453,searchDisc4,2020.2.10,MacIntel,60,,,space,0.223,2,1,0.585,,0,363,363,43,1,1a,43,1,43,
,,,,,,,,,,,,,,,,,,,,,,,,,,images/exp1b_trial_9_colour2_distractors19_r.png,r,2,037,001,2021-04-26_22h15.38.453,searchDisc4,2020.2.10,MacIntel,60,,,space,0.219,2,1,0.671,,0,364,364,123,1,1b,9,2,19,
,,,,,,,,,,,,,,,,,,,,,,,,,,images/exp2c_trial_100_colour2_distractors1_l.png,l,1,037,001,2021-04-26_22h15.38.453,searchDisc4,2020.2.10,MacIntel,60,,,space,0.218,1,1,0.511,,0,365,365,556,1,2c,100,2,1,
,,,,,,,,,,,,,,,,,,,,,,,,,,images/exp1b_trial_42_colour1_distractors31_r.png,r,2,037,001,2021-04-26_22h15.38.453,searchDisc4,2020.2.10,MacIntel,60,,,space,0.222,2,1,0.55,,0,366,366,156,1,1b,42,1,31,
,,,,,,,,,,,,,,,,,,,,,,,,,,images/exp1b_trial_105_colour2_distractors43_l.png,l,1,037,001,2021-04-26_22h15.38.453,searchDisc4,2020.2.10,MacIntel,60,,,space,0.204,1,1,0.613,,0,367,367,219,1,1b,105,2,43,
,,,,,,,,,,,,,,,,,,,,,,,,,,images/exp2b_trial_40_colour1_distractors9_r.png,r,2,037,001,2021-04-26_22h15.38.453,searchDisc4,2020.2.10,MacIntel,60,,,space,0.239,2,1,0.553,,0,368,368,382,1,2b,40,1,9,
,,,,,,,,,,,,,,,,,,,,,,,,,,images/exp2b_trial_20_colour1_distractors9_l.png,l,1,037,001,2021-04-26_22h15.38.453,searchDisc4,2020.2.10,MacIntel,60,,,space,0.178,1,1,0.551,,0,369,369,362,1,2b,20,1,9,
,,,,,,,,,,,,,,,,,,,,,,,,,,images/exp1b_trial_63_colour2_distractors4_l.png,l,1,037,001,2021-04-26_22h15.38.453,searchDisc4,2020.2.10,MacIntel,60,,,space,0.199,1,1,0.552,,0,370,370,177,1,1b,63,2,4,
,,,,,,,,,,,,,,,,,,,,,,,,,,images/exp1b_trial_82_colour2_distractors1_r.png,r,2,037,001,2021-04-26_22h15.38.453,searchDisc4,2020.2.10,MacIntel,60,,,space,0.179,2,1,0.572,,0,371,371,196,1,1b,82,2,1,
,,,,,,,,,,,,,,,,,,,,,,,,,,images/exp1b_trial_106_colour3_distractors1_l.png,l,1,037,001,2021-04-26_22h15.38.453,searchDisc4,2020.2.10,MacIntel,60,,,space,0.179,1,1,0.611,,0,372,372,220,1,1b,106,3,1,
,,,,,,,,,,,,,,,,,,,,,,,,,,images/exp2c_trial_23_colour1_distractors43_l.png,l,1,037,001,2021-04-26_22h15.38.453,searchDisc4,2020.2.10,MacIntel,60,,,space,0.198,1,1,0.653,,0,373,373,479,1,2c,23,1,43,
,,,,,,,,,,,,,,,,,,,,,,,,,,images/exp2c_trial_105_colour2_distractors43_l.png,l,1,037,001,2021-04-26_22h15.38.453,searchDisc4,2020.2.10,MacIntel,60,,,space,0.179,1,1,0.611,,0,374,374,561,1,2c,105,2,43,
,,,,,,,,,,,,,,,,,,,,,,,,,,images/exp1b_trial_49_colour2_distractors43_r.png,r,2,037,001,2021-04-26_22h15.38.453,searchDisc4,2020.2.10,MacIntel,60,,,space,0.239,2,1,0.569,,0,375,375,163,1,1b,49,2,43,
,,,,,,,,,,,,,,,,,,,,,,,,,,images/exp2c_trial_46_colour2_distractors9_r.png,r,2,037,001,2021-04-26_22h15.38.453,searchDisc4,2020.2.10,MacIntel,60,,,space,0.242,2,1,0.572,,0,376,376,502,1,2c,46,2,9,
,,,,,,,,,,,,,,,,,,,,,,,,,,images/exp2b_trial_59_colour1_distractors19_l.png,l,1,037,001,2021-04-26_22h15.38.453,searchDisc4,2020.2.10,MacIntel,60,,,space,0.178,1,1,0.552,,0,377,377,401,1,2b,59,1,19,
,,,,,,,,,,,,,,,,,,,,,,,,,,images/exp2b_trial_25_colour2_distractors4_l.png,l,1,037,001,2021-04-26_22h15.38.453,searchDisc4,2020.2.10,MacIntel,60,,,space,0.264,1,1,0.452,,0,378,378,367,1,2b,25,2,4,
,,,,,,,,,,,,,,,,,,,,,,,,,,images/exp1b_trial_94_colour1_distractors1_l.png,l,1,037,001,2021-04-26_22h15.38.453,searchDisc4,2020.2.10,MacIntel,60,,,space,0.226,1,1,0.511,,0,379,379,208,1,1b,94,1,1,
,,,,,,,,,,,,,,,,,,,,,,,,,,images/exp2a_trial_24_colour2_distractors1_l.png,l,1,037,001,2021-04-26_22h15.38.453,searchDisc4,2020.2.10,MacIntel,60,,,space,0.238,1,1,0.453,,0,380,380,252,1,2a,24,2,1,
,,,,,,,,,,,,,,,,,,,,,,,,,,images/exp2c_trial_93_colour3_distractors43_r.png,r,2,037,001,2021-04-26_22h15.38.453,searchDisc4,2020.2.10,MacIntel,60,,,space,0.239,2,1,0.533,,0,381,381,549,1,2c,93,3,43,
,,,,,,,,,,,,,,,,,,,,,,,,,,images/exp1b_trial_50_colour3_distractors1_r.png,r,2,037,001,2021-04-26_22h15.38.453,searchDisc4,2020.2.10,MacIntel,60,,,space,0.3,2,1,0.571,,0,382,382,164,1,1b,50,3,1,
,,,,,,,,,,,,,,,,,,,,,,,,,,images/exp2a_trial_53_colour3_distractors19_r.png,r,2,037,001,2021-04-26_22h15.38.453,searchDisc4,2020.2.10,MacIntel,60,,,space,0.218,2,1,0.593,,0,383,383,281,1,2a,53,3,19,
,,,,,,,,,,,,,,,,,,,,,,,,,,images/exp1b_trial_67_colour2_distractors43_l.png,l,1,037,001,2021-04-26_22h15.38.453,searchDisc4,2020.2.10,MacIntel,60,,,space,0.238,1,1,0.93,,0,384,384,181,1,1b,67,2,43,
,,,,,,,,,,,,,,,,,,,,,,,,,,images/exp1b_trial_54_colour3_distractors31_r.png,r,2,037,001,2021-04-26_22h15.38.453,searchDisc4,2020.2.10,MacIntel,60,,,space,0.238,2,1,1.012,,0,385,385,168,1,1b,54,3,31,
,,,,,,,,,,,,,,,,,,,,,,,,,,images/exp2c_trial_75_colour0_distractors0_l.png,l,1,037,001,2021-04-26_22h15.38.453,searchDisc4,2020.2.10,MacIntel,60,,,space,0.218,1,1,0.534,,0,386,386,531,1,2c,75,0,0,
,,,,,,,,,,,,,,,,,,,,,,,,,,images/exp2c_trial_71_colour3_distractors19_l.png,l,1,037,001,2021-04-26_22h15.38.453,searchDisc4,2020.2.10,MacIntel,60,,,space,0.182,1,1,0.492,,0,387,387,527,1,2c,71,3,19,
,,,,,,,,,,,,,,,,,,,,,,,,,,images/exp2a_trial_21_colour1_distractors19_l.png,l,1,037,001,2021-04-26_22h15.38.453,searchDisc4,2020.2.10,MacIntel,60,,,space,0.202,1,1,0.631,,0,388,388,249,1,2a,21,1,19,
,,,,,,,,,,,,,,,,,,,,,,,,,,images/exp1b_trial_29_colour2_distractors43_l.png,l,1,037,001,2021-04-26_22h15.38.453,searchDisc4,2020.2.10,MacIntel,60,,,space,0.239,1,1,0.609,,0,389,389,143,1,1b,29,2,43,
,,,,,,,,,,,,,,,,,,,,,,,,,,images/exp1a_trial_105_colour2_distractors43_l.png,l,1,037,001,2021-04-26_22h15.38.453,searchDisc4,2020.2.10,MacIntel,60,,,space,0.219,1,1,0.528,,0,390,390,105,1,1a,105,2,43,
,,,,,,,,,,,,,,,,,,,,,,,,,,images/exp2c_trial_45_colour2_distractors4_r.png,r,2,037,001,2021-04-26_22h15.38.453,searchDisc4,2020.2.10,MacIntel,60,,,space,0.238,2,1,0.572,,0,391,391,501,1,2c,45,2,4,
,,,,,,,,,,,,,,,,,,,,,,,,,,images/exp2c_trial_3_colour1_distractors19_r.png,r,2,037,001,2021-04-26_22h15.38.453,searchDisc4,2020.2.10,MacIntel,60,,,space,0.219,2,1,0.511,,0,392,392,459,1,2c,3,1,19,
,,,,,,,,,,,,,,,,,,,,,,,,,,images/exp2a_trial_56_colour1_distractors1_l.png,l,1,037,001,2021-04-26_22h15.38.453,searchDisc4,2020.2.10,MacIntel,60,,,space,0.198,2,0,0.492,,0,393,393,284,1,2a,56,1,1,
,,,,,,,,,,,,,,,,,,,,,,,,,,images/exp2b_trial_17_colour3_distractors43_r.png,r,2,037,001,2021-04-26_22h15.38.453,searchDisc4,2020.2.10,MacIntel,60,,,space,0.378,2,1,0.593,,0,394,394,359,1,2b,17,3,43,
,,,,,,,,,,,,,,,,,,,,,,,,,,images/exp2b_trial_64_colour2_distractors9_l.png,l,1,037,001,2021-04-26_22h15.38.453,searchDisc4,2020.2.10,MacIntel,60,,,space,0.179,1,1,0.611,,0,395,395,406,1,2b,64,2,9,
,,,,,,,,,,,,,,,,,,,,,,,,,,images/exp2a_trial_10_colour2_distractors31_r.png,r,2,037,001,2021-04-26_22h15.38.453,searchDisc4,2020.2.10,MacIntel,60,,,space,0.239,2,1,0.629,,0,396,396,238,1,2a,10,2,31,
,,,,,,,,,,,,,,,,,,,,,,,,,,images/exp2c_trial_22_colour1_distractors31_l.png,l,1,037,001,2021-04-26_22h15.38.453,searchDisc4,2020.2.10,MacIntel,60,,,space,0.199,1,1,0.611,,0,397,397,478,1,2c,22,1,31,
,,,,,,,,,,,,,,,,,,,,,,,,,,images/exp1b_trial_20_colour1_distractors9_l.png,l,1,037,001,2021-04-26_22h15.38.453,searchDisc4,2020.2.10,MacIntel,60,,,space,0.24,1,1,0.529,,0,398,398,134,1,1b,20,1,9,
,,,,,,,,,,,,,,,,,,,,,,,,,,images/exp2a_trial_16_colour3_distractors31_r.png,r,2,037,001,2021-04-26_22h15.38.453,searchDisc4,2020.2.10,MacIntel,60,,,space,0.239,2,1,0.724,,0,399,399,244,1,2a,16,3,31,
,,,,,,,,,,,,,,,,,,,,,,,,,,images/exp1a_trial_68_colour3_distractors1_l.png,l,1,037,001,2021-04-26_22h15.38.453,searchDisc4,2020.2.10,MacIntel,60,,,space,0.205,1,1,0.591,,0,400,400,68,1,1a,68,3,1,
,,,,,,,,,,,,,,,,,,,,,,,,,,images/exp2b_trial_93_colour3_distractors43_r.png,r,2,037,001,2021-04-26_22h15.38.453,searchDisc4,2020.2.10,MacIntel,60,,,space,0.238,2,1,0.685,,0,401,401,435,1,2b,93,3,43,
,,,,,,,,,,,,,,,,,,,,,,,,,,images/exp2b_trial_60_colour1_distractors31_l.png,l,1,037,001,2021-04-26_22h15.38.453,searchDisc4,2020.2.10,MacIntel,60,,,space,0.199,1,1,0.631,,0,402,402,402,1,2b,60,1,31,
,,,,,,,,,,,,,,,,,,,,,,,,,,images/exp2c_trial_64_colour2_distractors9_l.png,l,1,037,001,2021-04-26_22h15.38.453,searchDisc4,2020.2.10,MacIntel,60,,,space,0.199,1,1,0.653,,0,403,403,520,1,2c,64,2,9,
,,,,,,,,,,,,,,,,,,,,,,,,,,images/exp1b_trial_43_colour1_distractors43_r.png,r,2,037,001,2021-04-26_22h15.38.453,searchDisc4,2020.2.10,MacIntel,60,,,space,0.379,2,1,0.59,,0,404,404,157,1,1b,43,1,43,
,,,,,,,,,,,,,,,,,,,,,,,,,,images/exp1a_trial_86_colour2_distractors31_r.png,r,2,037,001,2021-04-26_22h15.38.453,searchDisc4,2020.2.10,MacIntel,60,,,space,0.219,2,1,0.612,,0,405,405,86,1,1a,86,2,31,
,,,,,,,,,,,,,,,,,,,,,,,,,,images/exp1a_trial_108_colour3_distractors9_l.png,l,1,037,001,2021-04-26_22h15.38.453,searchDisc4,2020.2.10,MacIntel,60,,,space,0.181,1,1,0.53,,0,406,406,108,1,1a,108,3,9,
,,,,,,,,,,,,,,,,,,,,,,,,,,images/exp1b_trial_59_colour1_distractors19_l.png,l,1,037,001,2021-04-26_22h15.38.453,searchDisc4,2020.2.10,MacIntel,60,,,space,0.223,1,1,0.573,,0,407,407,173,1,1b,59,1,19,
,,,,,,,,,,,,,,,,,,,,,,,,,,images/exp2a_trial_104_colour2_distractors31_l.png,l,1,037,001,2021-04-26_22h15.38.453,searchDisc4,2020.2.10,MacIntel,60,,,space,0.219,1,1,0.551,,0,408,408,332,1,2a,104,2,31,
,,,,,,,,,,,,,,,,,,,,,,,,,,images/exp2b_trial_28_colour2_distractors31_l.png,l,1,037,001,2021-04-26_22h15.38.453,searchDisc4,2020.2.10,MacIntel,60,,,space,0.198,1,1,0.514,,0,409,409,370,1,2b,28,2,31,
,,,,,,,,,,,,,,,,,,,,,,,,,,images/exp2a_trial_94_colour1_distractors1_l.png,l,1,037,001,2021-04-26_22h15.38.453,searchDisc4,2020.2.10,MacIntel,60,,,space,0.197,1,1,0.511,,0,410,410,322,1,2a,94,1,1,
,,,,,,,,,,,,,,,,,,,,,,,,,,images/exp1a_trial_101_colour2_distractors4_l.png,l,1,037,001,2021-04-26_22h15.38.453,searchDisc4,2020.2.10,MacIntel,60,,,space,0.199,1,1,0.493,,0,411,411,101,1,1a,101,2,4,
,,,,,,,,,,,,,,,,,,,,,,,,,,images/exp1b_trial_31_colour3_distractors4_l.png,l,1,037,001,2021-04-26_22h15.38.453,searchDisc4,2020.2.10,MacIntel,60,,,space,0.259,1,1,0.711,,0,412,412,145,1,1b,31,3,4,
,,,,,,,,,,,,,,,,,,,,,,,,,,images/exp2a_trial_57_colour1_distractors4_l.png,l,1,037,001,2021-04-26_22h15.38.453,searchDisc4,2020.2.10,MacIntel,60,,,space,0.438,1,1,0.611,,0,413,413,285,1,2a,57,1,4,
,,,,,,,,,,,,,,,,,,,,,,,,,,images/exp1b_trial_93_colour3_distractors43_r.png,r,2,037,001,2021-04-26_22h15.38.453,searchDisc4,2020.2.10,MacIntel,60,,,space,0.259,2,1,0.649,,0,414,414,207,1,1b,93,3,43,
,,,,,,,,,,,,,,,,,,,,,,,,,,images/exp1a_trial_81_colour1_distractors43_r.png,r,2,037,001,2021-04-26_22h15.38.453,searchDisc4,2020.2.10,MacIntel,60,,,space,0.221,2,1,0.549,,0,415,415,81,1,1a,81,1,43,
,,,,,,,,,,,,,,,,,,,,,,,,,,images/exp2c_trial_107_colour3_distractors4_l.png,l,1,037,001,2021-04-26_22h15.38.453,searchDisc4,2020.2.10,MacIntel,60,,,space,0.202,1,1,0.512,,0,416,416,563,1,2c,107,3,4,
,,,,,,,,,,,,,,,,,,,,,,,,,,images/exp2a_trial_79_colour1_distractors19_r.png,r,2,037,001,2021-04-26_22h15.38.453,searchDisc4,2020.2.10,MacIntel,60,,,space,0.197,2,1,0.71,,0,417,417,307,1,2a,79,1,19,
,,,,,,,,,,,,,,,,,,,,,,,,,,images/exp1b_trial_5_colour1_distractors43_r.png,r,2,037,001,2021-04-26_22h15.38.453,searchDisc4,2020.2.10,MacIntel,60,,,space,0.201,2,1,0.65,,0,418,418,119,1,1b,5,1,43,
,,,,,,,,,,,,,,,,,,,,,,,,,,images/exp2a_trial_100_colour2_distractors1_l.png,l,1,037,001,2021-04-26_22h15.38.453,searchDisc4,2020.2.10,MacIntel,60,,,space,0.26,1,1,0.514,space,0,419,419,328,1,2a,100,2,1,0.235
,,,,,,,,,,,,,,,,,,,,,,,,,,images/exp2b_trial_81_colour1_distractors43_r.png,r,2,037,001,2021-04-26_22h15.38.453,searchDisc4,2020.2.10,MacIntel,60,,,space,0.98,2,1,0.589,,0,420,420,423,1,2b,81,1,43,
,,,,,,,,,,,,,,,,,,,,,,,,,,images/exp2b_trial_54_colour3_distractors31_r.png,r,2,037,001,2021-04-26_22h15.38.453,searchDisc4,2020.2.10,MacIntel,60,,,space,0.258,1,0,0.63,,0,421,421,396,1,2b,54,3,31,
,,,,,,,,,,,,,,,,,,,,,,,,,,images/exp2a_trial_33_colour3_distractors19_l.png,l,1,037,001,2021-04-26_22h15.38.453,searchDisc4,2020.2.10,MacIntel,60,,,space,0.504,1,1,0.71,,0,422,422,261,1,2a,33,3,19,
,,,,,,,,,,,,,,,,,,,,,,,,,,images/exp1b_trial_47_colour2_distractors19_r.png,r,2,037,001,2021-04-26_22h15.38.453,searchDisc4,2020.2.10,MacIntel,60,,,space,0.241,2,1,0.691,,0,423,423,161,1,1b,47,2,19,
,,,,,,,,,,,,,,,,,,,,,,,,,,images/exp2b_trial_66_colour2_distractors31_l.png,l,1,037,001,2021-04-26_22h15.38.453,searchDisc4,2020.2.10,MacIntel,60,,,space,0.239,1,1,0.632,,0,424,424,408,1,2b,66,2,31,
,,,,,,,,,,,,,,,,,,,,,,,,,,images/exp2c_trial_70_colour3_distractors9_l.png,l,1,037,001,2021-04-26_22h15.38.453,searchDisc4,2020.2.10,MacIntel,60,,,space,0.238,1,1,0.607,,0,425,425,526,1,2c,70,3,9,
,,,,,,,,,,,,,,,,,,,,,,,,,,images/exp1a_trial_97_colour1_distractors19_l.png,l,1,037,001,2021-04-26_22h15.38.453,searchDisc4,2020.2.10,MacIntel,60,,,space,0.21,1,1,0.629,,0,426,426,97,1,1a,97,1,19,
,,,,,,,,,,,,,,,,,,,,,,,,,,images/exp2a_trial_66_colour2_distractors31_l.png,l,1,037,001,2021-04-26_22h15.38.453,searchDisc4,2020.2.10,MacIntel,60,,,space,0.224,1,1,0.53,,0,427,427,294,1,2a,66,2,31,
,,,,,,,,,,,,,,,,,,,,,,,,,,images/exp2a_trial_85_colour2_distractors19_r.png,r,2,037,001,2021-04-26_22h15.38.453,searchDisc4,2020.2.10,MacIntel,60,,,space,0.219,2,1,0.59,,0,428,428,313,1,2a,85,2,19,
,,,,,,,,,,,,,,,,,,,,,,,,,,images/exp1a_trial_77_colour1_distractors4_r.png,r,2,037,001,2021-04-26_22h15.38.453,searchDisc4,2020.2.10,MacIntel,60,,,space,0.239,2,1,0.553,,0,429,429,77,1,1a,77,1,4,
,,,,,,,,,,,,,,,,,,,,,,,,,,images/exp2c_trial_76_colour1_distractors1_r.png,r,2,037,001,2021-04-26_22h15.38.453,searchDisc4,2020.2.10,MacIntel,60,,,space,0.2,2,1,0.516,,0,430,430,532,1,2c,76,1,1,
,,,,,,,,,,,,,,,,,,,,,,,,,,images/exp2b_trial_22_colour1_distractors31_l.png,l,1,037,001,2021-04-26_22h15.38.453,searchDisc4,2020.2.10,MacIntel,60,,,space,0.244,1,1,0.591,,0,431,431,364,1,2b,22,1,31,
,,,,,,,,,,,,,,,,,,,,,,,,,,images/exp2a_trial_61_colour1_distractors43_l.png,l,1,037,001,2021-04-26_22h15.38.453,searchDisc4,2020.2.10,MacIntel,60,,,space,0.28,1,1,0.588,,0,432,432,289,1,2a,61,1,43,
,,,,,,,,,,,,,,,,,,,,,,,,,,images/exp2a_trial_11_colour2_distractors43_r.png,r,2,037,001,2021-04-26_22h15.38.453,searchDisc4,2020.2.10,MacIntel,60,,,space,0.302,2,1,0.728,,0,433,433,239,1,2a,11,2,43,
,,,,,,,,,,,,,,,,,,,,,,,,,,images/exp2b_trial_90_colour3_distractors9_r.png,r,2,037,001,2021-04-26_22h15.38.453,searchDisc4,2020.2.10,MacIntel,60,,,space,0.22,2,1,0.553,,0,434,434,432,1,2b,90,3,9,
,,,,,,,,,,,,,,,,,,,,,,,,,,images/exp1b_trial_107_colour3_distractors4_l.png,l,1,037,001,2021-04-26_22h15.38.453,searchDisc4,2020.2.10,MacIntel,60,,,space,0.318,1,1,0.734,,0,435,435,221,1,1b,107,3,4,
,,,,,,,,,,,,,,,,,,,,,,,,,,images/exp2b_trial_94_colour1_distractors1_l.png,l,1,037,001,2021-04-26_22h15.38.453,searchDisc4,2020.2.10,MacIntel,60,,,space,0.718,1,1,0.552,,0,436,436,436,1,2b,94,1,1,
,,,,,,,,,,,,,,,,,,,,,,,,,,images/exp1b_trial_34_colour3_distractors31_l.png,l,1,037,001,2021-04-26_22h15.38.453,searchDisc4,2020.2.10,MacIntel,60,,,space,0.262,1,1,0.732,,0,437,437,148,1,1b,34,3,31,
,,,,,,,,,,,,,,,,,,,,,,,,,,images/exp2a_trial_4_colour1_distractors31_r.png,r,2,037,001,2021-04-26_22h15.38.453,searchDisc4,2020.2.10,MacIntel,60,,,space,0.238,2,1,0.569,,0,438,438,232,1,2a,4,1,31,
,,,,,,,,,,,,,,,,,,,,,,,,,,images/exp2c_trial_98_colour1_distractors31_l.png,l,1,037,001,2021-04-26_22h15.38.453,searchDisc4,2020.2.10,MacIntel,60,,,space,0.2,1,1,0.531,,0,439,439,554,1,2c,98,1,31,
,,,,,,,,,,,,,,,,,,,,,,,,,,images/exp1a_trial_27_colour2_distractors19_l.png,l,1,037,001,2021-04-26_22h15.38.453,searchDisc4,2020.2.10,MacIntel,60,,,space,0.203,1,1,0.633,,0,440,440,27,1,1a,27,2,19,
,,,,,,,,,,,,,,,,,,,,,,,,,,images/exp1b_trial_22_colour1_distractors31_l.png,l,1,037,001,2021-04-26_22h15.38.453,searchDisc4,2020.2.10,MacIntel,60,,,space,0.24,1,1,0.832,,0,441,441,136,1,1b,22,1,31,
,,,,,,,,,,,,,,,,,,,,,,,,,,images/exp1b_trial_23_colour1_distractors43_l.png,l,1,037,001,2021-04-26_22h15.38.453,searchDisc4,2020.2.10,MacIntel,60,,,space,0.319,1,1,0.61,,0,442,442,137,1,1b,23,1,43,
,,,,,,,,,,,,,,,,,,,,,,,,,,images/exp2a_trial_43_colour1_distractors43_r.png,r,2,037,001,2021-04-26_22h15.38.453,searchDisc4,2020.2.10,MacIntel,60,,,space,0.279,2,1,0.552,,0,443,443,271,1,2a,43,1,43,
,,,,,,,,,,,,,,,,,,,,,,,,,,images/exp2c_trial_101_colour2_distractors4_l.png,l,1,037,001,2021-04-26_22h15.38.453,searchDisc4,2020.2.10,MacIntel,60,,,space,0.238,1,1,0.613,,0,444,444,557,1,2c,101,2,4,
,,,,,,,,,,,,,,,,,,,,,,,,,,images/exp1b_trial_86_colour2_distractors31_r.png,r,2,037,001,2021-04-26_22h15.38.453,searchDisc4,2020.2.10,MacIntel,60,,,space,0.318,2,1,0.831,,0,445,445,200,1,1b,86,2,31,
,,,,,,,,,,,,,,,,,,,,,,,,,,images/exp2b_trial_18_colour1_distractors1_l.png,l,1,037,001,2021-04-26_22h15.38.453,searchDisc4,2020.2.10,MacIntel,60,,,space,0.241,1,1,0.614,,0,446,446,360,1,2b,18,1,1,
,,,,,,,,,,,,,,,,,,,,,,,,,,images/exp2a_trial_92_colour3_distractors31_r.png,r,2,037,001,2021-04-26_22h15.38.453,searchDisc4,2020.2.10,MacIntel,60,,,space,0.259,2,1,0.573,,0,447,447,320,1,2a,92,3,31,
,,,,,,,,,,,,,,,,,,,,,,,,,,images/exp2c_trial_31_colour3_distractors4_l.png,l,1,037,001,2021-04-26_22h15.38.453,searchDisc4,2020.2.10,MacIntel,60,,,space,0.242,1,1,0.506,,0,448,448,487,1,2c,31,3,4,
,,,,,,,,,,,,,,,,,,,,,,,,,,images/exp1a_trial_53_colour3_distractors19_r.png,r,2,037,001,2021-04-26_22h15.38.453,searchDisc4,2020.2.10,MacIntel,60,,,space,0.25,2,1,0.608,,0,449,449,53,1,1a,53,3,19,
,,,,,,,,,,,,,,,,,,,,,,,,,,images/exp1b_trial_71_colour3_distractors19_l.png,l,1,037,001,2021-04-26_22h15.38.453,searchDisc4,2020.2.10,MacIntel,60,,,space,0.239,1,1,1.153,,0,450,450,185,1,1b,71,3,19,
,,,,,,,,,,,,,,,,,,,,,,,,,,images/exp1b_trial_98_colour1_distractors31_l.png,l,1,037,001,2021-04-26_22h15.38.453,searchDisc4,2020.2.10,MacIntel,60,,,space,0.278,1,1,0.65,,0,451,451,212,1,1b,98,1,31,
,,,,,,,,,,,,,,,,,,,,,,,,,,images/exp2a_trial_25_colour2_distractors4_l.png,l,1,037,001,2021-04-26_22h15.38.453,searchDisc4,2020.2.10,MacIntel,60,,,space,0.299,1,1,0.55,,0,452,452,253,1,2a,25,2,4,
,,,,,,,,,,,,,,,,,,,,,,,,,,images/exp2b_trial_79_colour1_distractors19_r.png,r,2,037,001,2021-04-26_22h15.38.453,searchDisc4,2020.2.10,MacIntel,60,,,space,0.259,2,1,0.607,,0,453,453,421,1,2b,79,1,19,
,,,,,,,,,,,,,,,,,,,,,,,,,,images/exp2c_trial_42_colour1_distractors31_r.png,r,2,037,001,2021-04-26_22h15.38.453,searchDisc4,2020.2.10,MacIntel,60,,,space,0.257,2,1,0.533,,0,454,454,498,1,2c,42,1,31,
,,,,,,,,,,,,,,,,,,,,,,,,,,images/exp2a_trial_26_colour2_distractors9_l.png,l,1,037,001,2021-04-26_22h15.38.453,searchDisc4,2020.2.10,MacIntel,60,,,space,0.266,1,1,0.529,,0,455,455,254,1,2a,26,2,9,
,,,,,,,,,,,,,,,,,,,,,,,,,,images/exp2b_trial_57_colour1_distractors4_l.png,l,1,037,001,2021-04-26_22h15.38.453,searchDisc4,2020.2.10,MacIntel,60,,,space,0.242,1,1,0.475,,0,456,456,399,1,2b,57,1,4,
,,,,,,,,,,,,,,,,,,,,,,,,,,images/exp2c_trial_82_colour2_distractors1_r.png,r,2,037,001,2021-04-26_22h15.38.453,searchDisc4,2020.2.10,MacIntel,60,,,space,0.359,2,1,0.57,,0,457,457,538,1,2c,82,2,1,
,,,,,,,,,,,,,,,,,,,,,,,,,,images/exp2b_trial_44_colour2_distractors1_r.png,r,2,037,001,2021-04-26_22h15.38.453,searchDisc4,2020.2.10,MacIntel,60,,,space,0.221,2,1,0.453,,0,458,458,386,1,2b,44,2,1,
,,,,,,,,,,,,,,,,,,,,,,,,,,images/exp1b_trial_11_colour2_distractors43_r.png,r,2,037,001,2021-04-26_22h15.38.453,searchDisc4,2020.2.10,MacIntel,60,,,space,0.223,2,1,0.553,,0,459,459,125,1,1b,11,2,43,
,,,,,,,,,,,,,,,,,,,,,,,,,,images/exp2b_trial_29_colour2_distractors43_l.png,l,1,037,001,2021-04-26_22h15.38.453,searchDisc4,2020.2.10,MacIntel,60,,,space,0.203,1,1,0.553,,0,460,460,371,1,2b,29,2,43,
,,,,,,,,,,,,,,,,,,,,,,,,,,images/exp2a_trial_31_colour3_distractors4_l.png,l,1,037,001,2021-04-26_22h15.38.453,searchDisc4,2020.2.10,MacIntel,60,,,space,0.178,1,1,0.491,,0,461,461,259,1,2a,31,3,4,
,,,,,,,,,,,,,,,,,,,,,,,,,,images/exp1b_trial_26_colour2_distractors9_l.png,l,1,037,001,2021-04-26_22h15.38.453,searchDisc4,2020.2.10,MacIntel,60,,,space,0.199,1,1,0.492,,0,462,462,140,1,1b,26,2,9,
,,,,,,,,,,,,,,,,,,,,,,,,,,images/exp1b_trial_100_colour2_distractors1_l.png,l,1,037,001,2021-04-26_22h15.38.453,searchDisc4,2020.2.10,MacIntel,60,,,space,0.183,1,1,0.471,,0,463,463,214,1,1b,100,2,1,
,,,,,,,,,,,,,,,,,,,,,,,,,,images/exp1b_trial_21_colour1_distractors19_l.png,l,1,037,001,2021-04-26_22h15.38.453,searchDisc4,2020.2.10,MacIntel,60,,,space,0.18,1,1,0.551,,0,464,464,135,1,1b,21,1,19,
,,,,,,,,,,,,,,,,,,,,,,,,,,images/exp2b_trial_37_colour0_distractors0_l.png,l,1,037,001,2021-04-26_22h15.38.453,searchDisc4,2020.2.10,MacIntel,60,,,space,0.158,1,1,0.451,,0,465,465,379,1,2b,37,0,0,
,,,,,,,,,,,,,,,,,,,,,,,,,,images/exp1b_trial_18_colour1_distractors1_l.png,l,1,037,001,2021-04-26_22h15.38.453,searchDisc4,2020.2.10,MacIntel,60,,,space,0.157,1,1,0.451,,0,466,466,132,1,1b,18,1,1,
,,,,,,,,,,,,,,,,,,,,,,,,,,images/exp1b_trial_92_colour3_distractors31_r.png,r,2,037,001,2021-04-26_22h15.38.453,searchDisc4,2020.2.10,MacIntel,60,,,space,0.123,2,1,0.771,,0,467,467,206,1,1b,92,3,31,
,,,,,,,,,,,,,,,,,,,,,,,,,,images/exp1b_trial_0_colour1_distractors1_r.png,r,2,037,001,2021-04-26_22h15.38.453,searchDisc4,2020.2.10,MacIntel,60,,,space,0.158,2,1,0.511,,0,468,468,114,1,1b,0,1,1,
,,,,,,,,,,,,,,,,,,,,,,,,,,images/exp1a_trial_32_colour3_distractors9_l.png,l,1,037,001,2021-04-26_22h15.38.453,searchDisc4,2020.2.10,MacIntel,60,,,space,0.159,1,1,0.506,,0,469,469,32,1,1a,32,3,9,
,,,,,,,,,,,,,,,,,,,,,,,,,,images/exp1a_trial_9_colour2_distractors19_r.png,r,2,037,001,2021-04-26_22h15.38.453,searchDisc4,2020.2.10,MacIntel,60,,,space,0.169,2,1,0.493,,0,470,470,9,1,1a,9,2,19,
,,,,,,,,,,,,,,,,,,,,,,,,,,images/exp1b_trial_27_colour2_distractors19_l.png,l,1,037,001,2021-04-26_22h15.38.453,searchDisc4,2020.2.10,MacIntel,60,,,space,0.16,1,1,0.715,,0,471,471,141,1,1b,27,2,19,
,,,,,,,,,,,,,,,,,,,,,,,,,,images/exp2c_trial_110_colour3_distractors31_l.png,l,1,037,001,2021-04-26_22h15.38.453,searchDisc4,2020.2.10,MacIntel,60,,,space,0.22,1,1,0.671,,0,472,472,566,1,2c,110,3,31,
,,,,,,,,,,,,,,,,,,,,,,,,,,images/exp2c_trial_97_colour1_distractors19_l.png,l,1,037,001,2021-04-26_22h15.38.453,searchDisc4,2020.2.10,MacIntel,60,,,space,0.16,1,1,0.537,,0,473,473,553,1,2c,97,1,19,
,,,,,,,,,,,,,,,,,,,,,,,,,,images/exp1a_trial_48_colour2_distractors31_r.png,r,2,037,001,2021-04-26_22h15.38.453,searchDisc4,2020.2.10,MacIntel,60,,,space,0.146,2,1,0.572,,0,474,474,48,1,1a,48,2,31,
,,,,,,,,,,,,,,,,,,,,,,,,,,images/exp1a_trial_4_colour1_distractors31_r.png,r,2,037,001,2021-04-26_22h15.38.453,searchDisc4,2020.2.10,MacIntel,60,,,space,0.199,2,1,0.591,,0,475,475,4,1,1a,4,1,31,
,,,,,,,,,,,,,,,,,,,,,,,,,,images/exp1a_trial_65_colour2_distractors19_l.png,l,1,037,001,2021-04-26_22h15.38.453,searchDisc4,2020.2.10,MacIntel,60,,,space,0.259,1,1,0.594,,0,476,476,65,1,1a,65,2,19,
,,,,,,,,,,,,,,,,,,,,,,,,,,images/exp2a_trial_88_colour3_distractors1_r.png,r,2,037,001,2021-04-26_22h15.38.453,searchDisc4,2020.2.10,MacIntel,60,,,space,0.239,2,1,0.57,,0,477,477,316,1,2a,88,3,1,
,,,,,,,,,,,,,,,,,,,,,,,,,,images/exp2c_trial_43_colour1_distractors43_r.png,r,2,037,001,2021-04-26_22h15.38.453,searchDisc4,2020.2.10,MacIntel,60,,,space,0.159,2,1,0.632,,0,478,478,499,1,2c,43,1,43,
,,,,,,,,,,,,,,,,,,,,,,,,,,images/exp1a_trial_78_colour1_distractors9_r.png,r,2,037,001,2021-04-26_22h15.38.453,searchDisc4,2020.2.10,MacIntel,60,,,space,0.164,2,1,0.47,,0,479,479,78,1,1a,78,1,9,
,,,,,,,,,,,,,,,,,,,,,,,,,,images/exp1a_trial_0_colour1_distractors1_r.png,r,2,037,001,2021-04-26_22h15.38.453,searchDisc4,2020.2.10,MacIntel,60,,,space,0.22,2,1,0.631,,0,480,480,0,1,1a,0,1,1,
,,,,,,,,,,,,,,,,,,,,,,,,,,images/exp1b_trial_3_colour1_distractors19_r.png,r,2,037,001,2021-04-26_22h15.38.453,searchDisc4,2020.2.10,MacIntel,60,,,space,0.224,2,1,0.552,,0,481,481,117,1,1b,3,1,19,
,,,,,,,,,,,,,,,,,,,,,,,,,,images/exp1b_trial_112_colour0_distractors0_r.png,r,2,037,001,2021-04-26_22h15.38.453,searchDisc4,2020.2.10,MacIntel,60,,,space,0.199,2,1,0.493,,0,482,482,226,1,1b,112,0,0,
