X Scale,Y Scale,key_resp_10.keys,key_resp_10.rt,key_resp_11.keys,key_resp_11.rt,key_resp_12.keys,key_resp_12.rt,key_resp_13.keys,key_resp_13.rt,key_resp_5.keys,key_resp_5.rt,key_resp_8.keys,key_resp_8.rt,key_resp_6.keys,key_resp_6.rt,key_resp_7.keys,key_resp_7.rt,key_resp_4.keys,key_resp_4.corr,key_resp_4.rt,trials_2.thisRepN,trials_2.thisTrialN,trials_2.thisN,trials_2.thisIndex,trials_2.ran,ImageFile,targ_side,correctAnswer,participant,session,date,expName,psychopyVersion,OS,frameRate,key_resp_3.keys,key_resp_3.rt,key_resp_9.keys,key_resp_9.rt,key_resp_2.keys,key_resp_2.corr,key_resp_2.rt,key_resp.keys,trials.thisRepN,trials.thisTrialN,trials.thisN,trials.thisIndex,trials.ran,exp,trial,colour,distNo,key_resp.rt
37.7,37.7,space,7.335,space,0.489,space,0.273,space,1.36,space,0.242,space,1.315,space,2.504,space,1.349,1,1,0.827,0,0,0,10,1,Practice arrays/exp1a_trial_20_colour1_distractors9_l.png,l,1,038,001,2021-04-26_22h40.01.498,searchDisc4,2020.2.10,MacIntel,60,,,,,,,,,,,,,,,,,,
,,,,,,,,,,,,,,,,space,0.579,2,1,0.507,0,1,1,4,1,Practice arrays/exp1a_trial_8_colour2_distractors9_r.png,r,2,038,001,2021-04-26_22h40.01.498,searchDisc4,2020.2.10,MacIntel,60,,,,,,,,,,,,,,,,,,
,,,,,,,,,,,,,,,,space,3.042,1,1,0.631,0,2,2,11,1,Practice arrays/exp1a_trial_21_colour1_distractors19_l.png,l,1,038,001,2021-04-26_22h40.01.498,searchDisc4,2020.2.10,MacIntel,60,,,,,,,,,,,,,,,,,,
,,,,,,,,,,,,,,,,space,0.1,2,1,0.554,0,3,3,0,1,Practice arrays/exp1a_trial_0_colour1_distractors1_r.png,r,2,038,001,2021-04-26_22h40.01.498,searchDisc4,2020.2.10,MacIntel,60,,,,,,,,,,,,,,,,,,
,,,,,,,,,,,,,,,,space,0.36,2,1,0.51,0,4,4,1,1,Practice arrays/exp1a_trial_3_colour1_distractors19_r.png,r,2,038,001,2021-04-26_22h40.01.498,searchDisc4,2020.2.10,MacIntel,60,,,,,,,,,,,,,,,,,,
,,,,,,,,,,,,,,,,space,0.36,1,1,0.495,0,5,5,19,1,Practice arrays/exp1a_trial_37_colour0_distractors0_l.png,l,1,038,001,2021-04-26_22h40.01.498,searchDisc4,2020.2.10,MacIntel,60,,,,,,,,,,,,,,,,,,
,,,,,,,,,,,,,,,,space,0.362,2,1,0.51,0,6,6,18,1,Practice arrays/exp1a_trial_36_colour0_distractors0_r.png,r,2,038,001,2021-04-26_22h40.01.498,searchDisc4,2020.2.10,MacIntel,60,,,,,,,,,,,,,,,,,,
,,,,,,,,,,,,,,,,space,0.96,2,1,0.727,0,7,7,2,1,Practice arrays/exp1a_trial_5_colour1_distractors43_r.png,r,2,038,001,2021-04-26_22h40.01.498,searchDisc4,2020.2.10,MacIntel,60,,,,,,,,,,,,,,,,,,
,,,,,,,,,,,,,,,,space,1.163,1,1,0.531,0,8,8,13,1,Practice arrays/exp1a_trial_28_colour2_distractors31_l.png,l,1,038,001,2021-04-26_22h40.01.498,searchDisc4,2020.2.10,MacIntel,60,,,,,,,,,,,,,,,,,,
,,,,,,,,,,,,,,,,space,0.345,1,1,0.592,0,9,9,12,1,Practice arrays/exp1a_trial_25_colour2_distractors4_l.png,l,1,038,001,2021-04-26_22h40.01.498,searchDisc4,2020.2.10,MacIntel,60,,,,,,,,,,,,,,,,,,
,,,,,,,,,,,,,,,,space,0.52,2,1,0.627,0,10,10,8,1,Practice arrays/exp1a_trial_16_colour3_distractors31_r.png,r,2,038,001,2021-04-26_22h40.01.498,searchDisc4,2020.2.10,MacIntel,60,,,,,,,,,,,,,,,,,,
,,,,,,,,,,,,,,,,space,0.539,1,1,0.508,0,11,11,14,1,Practice arrays/exp1a_trial_29_colour2_distractors43_l.png,l,1,038,001,2021-04-26_22h40.01.498,searchDisc4,2020.2.10,MacIntel,60,,,,,,,,,,,,,,,,,,
,,,,,,,,,,,,,,,,space,1.8,2,1,0.551,0,12,12,3,1,Practice arrays/exp1a_trial_7_colour2_distractors4_r.png,r,2,038,001,2021-04-26_22h40.01.498,searchDisc4,2020.2.10,MacIntel,60,,,,,,,,,,,,,,,,,,
,,,,,,,,,,,,,,,,space,0.64,1,1,0.648,0,13,13,17,1,Practice arrays/exp1a_trial_35_colour3_distractors43_l.png,l,1,038,001,2021-04-26_22h40.01.498,searchDisc4,2020.2.10,MacIntel,60,,,,,,,,,,,,,,,,,,
,,,,,,,,,,,,,,,,space,0.402,1,1,0.534,0,14,14,9,1,Practice arrays/exp1a_trial_19_colour1_distractors4_l.png,l,1,038,001,2021-04-26_22h40.01.498,searchDisc4,2020.2.10,MacIntel,60,,,,,,,,,,,,,,,,,,
,,,,,,,,,,,,,,,,space,0.441,2,1,0.808,0,15,15,5,1,Practice arrays/exp1a_trial_10_colour2_distractors31_r.png,r,2,038,001,2021-04-26_22h40.01.498,searchDisc4,2020.2.10,MacIntel,60,,,,,,,,,,,,,,,,,,
,,,,,,,,,,,,,,,,space,0.643,2,1,0.814,0,16,16,6,1,Practice arrays/exp1a_trial_12_colour3_distractors1_r.png,r,2,038,001,2021-04-26_22h40.01.498,searchDisc4,2020.2.10,MacIntel,60,,,,,,,,,,,,,,,,,,
,,,,,,,,,,,,,,,,space,0.084,1,1,0.549,0,17,17,16,1,Practice arrays/exp1a_trial_33_colour3_distractors19_l.png,l,1,038,001,2021-04-26_22h40.01.498,searchDisc4,2020.2.10,MacIntel,60,,,,,,,,,,,,,,,,,,
,,,,,,,,,,,,,,,,space,0.402,2,1,0.512,0,18,18,7,1,Practice arrays/exp1a_trial_13_colour3_distractors4_r.png,r,2,038,001,2021-04-26_22h40.01.498,searchDisc4,2020.2.10,MacIntel,60,,,,,,,,,,,,,,,,,,
,,,,,,,,,,,,,,,,space,0.56,1,1,0.55,0,19,19,15,1,Practice arrays/exp1a_trial_32_colour3_distractors9_l.png,l,1,038,001,2021-04-26_22h40.01.498,searchDisc4,2020.2.10,MacIntel,60,,,,,,,,,,,,,,,,,,
,,,,,,,,,,,,,,,,,,,,,,,,,,images/exp2c_trial_53_colour3_distractors19_r.png,r,2,038,001,2021-04-26_22h40.01.498,searchDisc4,2020.2.10,MacIntel,60,space,0.001,space,0.532,2,1,0.591,,0,0,0,509,1,2c,53,3,19,
,,,,,,,,,,,,,,,,,,,,,,,,,,images/exp2c_trial_56_colour1_distractors1_l.png,l,1,038,001,2021-04-26_22h40.01.498,searchDisc4,2020.2.10,MacIntel,60,,,space,0.379,1,1,0.562,,0,1,1,512,1,2c,56,1,1,
,,,,,,,,,,,,,,,,,,,,,,,,,,images/exp1a_trial_15_colour3_distractors19_r.png,r,2,038,001,2021-04-26_22h40.01.498,searchDisc4,2020.2.10,MacIntel,60,,,space,0.372,2,1,0.547,,0,2,2,15,1,1a,15,3,19,
,,,,,,,,,,,,,,,,,,,,,,,,,,images/exp1b_trial_111_colour3_distractors43_l.png,l,1,038,001,2021-04-26_22h40.01.498,searchDisc4,2020.2.10,MacIntel,60,,,space,0.38,2,0,0.853,,0,3,3,225,1,1b,111,3,43,
,,,,,,,,,,,,,,,,,,,,,,,,,,images/exp2c_trial_4_colour1_distractors31_r.png,r,2,038,001,2021-04-26_22h40.01.498,searchDisc4,2020.2.10,MacIntel,60,,,space,0.399,2,1,0.531,,0,4,4,460,1,2c,4,1,31,
,,,,,,,,,,,,,,,,,,,,,,,,,,images/exp2b_trial_80_colour1_distractors31_r.png,r,2,038,001,2021-04-26_22h40.01.498,searchDisc4,2020.2.10,MacIntel,60,,,space,0.338,2,1,0.712,,0,5,5,422,1,2b,80,1,31,
,,,,,,,,,,,,,,,,,,,,,,,,,,images/exp1b_trial_52_colour3_distractors9_r.png,r,2,038,001,2021-04-26_22h40.01.498,searchDisc4,2020.2.10,MacIntel,60,,,space,0.261,1,0,0.693,,0,6,6,166,1,1b,52,3,9,
,,,,,,,,,,,,,,,,,,,,,,,,,,images/exp2b_trial_37_colour0_distractors0_l.png,l,1,038,001,2021-04-26_22h40.01.498,searchDisc4,2020.2.10,MacIntel,60,,,space,0.579,1,1,0.532,,0,7,7,379,1,2b,37,0,0,
,,,,,,,,,,,,,,,,,,,,,,,,,,images/exp1b_trial_49_colour2_distractors43_r.png,r,2,038,001,2021-04-26_22h40.01.498,searchDisc4,2020.2.10,MacIntel,60,,,space,0.317,2,1,0.654,,0,8,8,163,1,1b,49,2,43,
,,,,,,,,,,,,,,,,,,,,,,,,,,images/exp2a_trial_14_colour3_distractors9_r.png,r,2,038,001,2021-04-26_22h40.01.498,searchDisc4,2020.2.10,MacIntel,60,,,space,0.378,2,1,0.623,,0,9,9,242,1,2a,14,3,9,
,,,,,,,,,,,,,,,,,,,,,,,,,,images/exp2a_trial_8_colour2_distractors9_r.png,r,2,038,001,2021-04-26_22h40.01.498,searchDisc4,2020.2.10,MacIntel,60,,,space,0.393,2,1,0.552,,0,10,10,236,1,2a,8,2,9,
,,,,,,,,,,,,,,,,,,,,,,,,,,images/exp2c_trial_30_colour3_distractors1_l.png,l,1,038,001,2021-04-26_22h40.01.498,searchDisc4,2020.2.10,MacIntel,60,,,space,0.338,1,1,0.533,,0,11,11,486,1,2c,30,3,1,
,,,,,,,,,,,,,,,,,,,,,,,,,,images/exp1b_trial_83_colour2_distractors4_r.png,r,2,038,001,2021-04-26_22h40.01.498,searchDisc4,2020.2.10,MacIntel,60,,,space,0.338,2,1,0.531,,0,12,12,197,1,1b,83,2,4,
,,,,,,,,,,,,,,,,,,,,,,,,,,images/exp2a_trial_87_colour2_distractors43_r.png,r,2,038,001,2021-04-26_22h40.01.498,searchDisc4,2020.2.10,MacIntel,60,,,space,0.339,2,1,0.529,,0,13,13,315,1,2a,87,2,43,
,,,,,,,,,,,,,,,,,,,,,,,,,,images/exp1b_trial_100_colour2_distractors1_l.png,l,1,038,001,2021-04-26_22h40.01.498,searchDisc4,2020.2.10,MacIntel,60,,,space,0.381,1,1,0.613,,0,14,14,214,1,1b,100,2,1,
,,,,,,,,,,,,,,,,,,,,,,,,,,images/exp1a_trial_27_colour2_distractors19_l.png,l,1,038,001,2021-04-26_22h40.01.498,searchDisc4,2020.2.10,MacIntel,60,,,space,0.344,1,1,0.636,,0,15,15,27,1,1a,27,2,19,
,,,,,,,,,,,,,,,,,,,,,,,,,,images/exp2a_trial_34_colour3_distractors31_l.png,l,1,038,001,2021-04-26_22h40.01.498,searchDisc4,2020.2.10,MacIntel,60,,,space,0.523,1,1,0.672,,0,16,16,262,1,2a,34,3,31,
,,,,,,,,,,,,,,,,,,,,,,,,,,images/exp2c_trial_48_colour2_distractors31_r.png,r,2,038,001,2021-04-26_22h40.01.498,searchDisc4,2020.2.10,MacIntel,60,,,space,0.278,2,1,0.856,,0,17,17,504,1,2c,48,2,31,
,,,,,,,,,,,,,,,,,,,,,,,,,,images/exp2b_trial_7_colour2_distractors4_r.png,r,2,038,001,2021-04-26_22h40.01.498,searchDisc4,2020.2.10,MacIntel,60,,,space,0.337,2,1,0.511,,0,18,18,349,1,2b,7,2,4,
,,,,,,,,,,,,,,,,,,,,,,,,,,images/exp2a_trial_70_colour3_distractors9_l.png,l,1,038,001,2021-04-26_22h40.01.498,searchDisc4,2020.2.10,MacIntel,60,,,space,0.359,2,0,0.549,,0,19,19,298,1,2a,70,3,9,
,,,,,,,,,,,,,,,,,,,,,,,,,,images/exp2c_trial_50_colour3_distractors1_r.png,r,2,038,001,2021-04-26_22h40.01.498,searchDisc4,2020.2.10,MacIntel,60,,,space,0.418,2,1,0.55,,0,20,20,506,1,2c,50,3,1,
,,,,,,,,,,,,,,,,,,,,,,,,,,images/exp2a_trial_63_colour2_distractors4_l.png,l,1,038,001,2021-04-26_22h40.01.498,searchDisc4,2020.2.10,MacIntel,60,,,space,0.285,1,1,0.631,,0,21,21,291,1,2a,63,2,4,
,,,,,,,,,,,,,,,,,,,,,,,,,,images/exp2a_trial_62_colour2_distractors1_l.png,l,1,038,001,2021-04-26_22h40.01.498,searchDisc4,2020.2.10,MacIntel,60,,,space,0.297,1,1,0.494,,0,22,22,290,1,2a,62,2,1,
,,,,,,,,,,,,,,,,,,,,,,,,,,images/exp1b_trial_55_colour3_distractors43_r.png,r,2,038,001,2021-04-26_22h40.01.498,searchDisc4,2020.2.10,MacIntel,60,,,space,0.299,2,1,1.191,,0,23,23,169,1,1b,55,3,43,
,,,,,,,,,,,,,,,,,,,,,,,,,,images/exp2c_trial_105_colour2_distractors43_l.png,l,1,038,001,2021-04-26_22h40.01.498,searchDisc4,2020.2.10,MacIntel,60,,,space,0.289,1,1,0.749,,0,24,24,561,1,2c,105,2,43,
,,,,,,,,,,,,,,,,,,,,,,,,,,images/exp2c_trial_110_colour3_distractors31_l.png,l,1,038,001,2021-04-26_22h40.01.498,searchDisc4,2020.2.10,MacIntel,60,,,space,0.319,1,1,0.61,,0,25,25,566,1,2c,110,3,31,
,,,,,,,,,,,,,,,,,,,,,,,,,,images/exp2b_trial_99_colour1_distractors43_l.png,l,1,038,001,2021-04-26_22h40.01.498,searchDisc4,2020.2.10,MacIntel,60,,,space,0.24,1,1,0.555,,0,26,26,441,1,2b,99,1,43,
,,,,,,,,,,,,,,,,,,,,,,,,,,images/exp2b_trial_113_colour0_distractors0_l.png,l,1,038,001,2021-04-26_22h40.01.498,searchDisc4,2020.2.10,MacIntel,60,,,space,0.278,1,1,0.51,,0,27,27,455,1,2b,113,0,0,
,,,,,,,,,,,,,,,,,,,,,,,,,,images/exp2c_trial_104_colour2_distractors31_l.png,l,1,038,001,2021-04-26_22h40.01.498,searchDisc4,2020.2.10,MacIntel,60,,,space,0.378,1,1,0.572,,0,28,28,560,1,2c,104,2,31,
,,,,,,,,,,,,,,,,,,,,,,,,,,images/exp1a_trial_10_colour2_distractors31_r.png,r,2,038,001,2021-04-26_22h40.01.498,searchDisc4,2020.2.10,MacIntel,60,,,space,0.319,2,1,0.51,,0,29,29,10,1,1a,10,2,31,
,,,,,,,,,,,,,,,,,,,,,,,,,,images/exp2b_trial_85_colour2_distractors19_r.png,r,2,038,001,2021-04-26_22h40.01.498,searchDisc4,2020.2.10,MacIntel,60,,,space,0.338,2,1,0.472,,0,30,30,427,1,2b,85,2,19,
,,,,,,,,,,,,,,,,,,,,,,,,,,images/exp2c_trial_28_colour2_distractors31_l.png,l,1,038,001,2021-04-26_22h40.01.498,searchDisc4,2020.2.10,MacIntel,60,,,space,0.308,1,1,0.732,,0,31,31,484,1,2c,28,2,31,
,,,,,,,,,,,,,,,,,,,,,,,,,,images/exp2c_trial_26_colour2_distractors9_l.png,l,1,038,001,2021-04-26_22h40.01.498,searchDisc4,2020.2.10,MacIntel,60,,,space,0.3,1,1,0.552,,0,32,32,482,1,2c,26,2,9,
,,,,,,,,,,,,,,,,,,,,,,,,,,images/exp1b_trial_60_colour1_distractors31_l.png,l,1,038,001,2021-04-26_22h40.01.498,searchDisc4,2020.2.10,MacIntel,60,,,space,0.318,1,1,0.65,,0,33,33,174,1,1b,60,1,31,
,,,,,,,,,,,,,,,,,,,,,,,,,,images/exp2b_trial_41_colour1_distractors19_r.png,r,2,038,001,2021-04-26_22h40.01.498,searchDisc4,2020.2.10,MacIntel,60,,,space,0.338,2,1,0.769,,0,34,34,383,1,2b,41,1,19,
,,,,,,,,,,,,,,,,,,,,,,,,,,images/exp1b_trial_94_colour1_distractors1_l.png,l,1,038,001,2021-04-26_22h40.01.498,searchDisc4,2020.2.10,MacIntel,60,,,space,0.381,1,1,0.635,,0,35,35,208,1,1b,94,1,1,
,,,,,,,,,,,,,,,,,,,,,,,,,,images/exp2b_trial_105_colour2_distractors43_l.png,l,1,038,001,2021-04-26_22h40.01.498,searchDisc4,2020.2.10,MacIntel,60,,,space,0.381,1,1,0.592,,0,36,36,447,1,2b,105,2,43,
,,,,,,,,,,,,,,,,,,,,,,,,,,images/exp2b_trial_75_colour0_distractors0_l.png,l,1,038,001,2021-04-26_22h40.01.498,searchDisc4,2020.2.10,MacIntel,60,,,space,0.341,1,1,0.513,,0,37,37,417,1,2b,75,0,0,
,,,,,,,,,,,,,,,,,,,,,,,,,,images/exp1b_trial_19_colour1_distractors4_l.png,l,1,038,001,2021-04-26_22h40.01.498,searchDisc4,2020.2.10,MacIntel,60,,,space,0.399,1,1,0.57,,0,38,38,133,1,1b,19,1,4,
,,,,,,,,,,,,,,,,,,,,,,,,,,images/exp2a_trial_17_colour3_distractors43_r.png,r,2,038,001,2021-04-26_22h40.01.498,searchDisc4,2020.2.10,MacIntel,60,,,space,0.338,2,1,0.605,,0,39,39,245,1,2a,17,3,43,
,,,,,,,,,,,,,,,,,,,,,,,,,,images/exp2b_trial_30_colour3_distractors1_l.png,l,1,038,001,2021-04-26_22h40.01.498,searchDisc4,2020.2.10,MacIntel,60,,,space,0.539,1,1,0.636,,0,40,40,372,1,2b,30,3,1,
,,,,,,,,,,,,,,,,,,,,,,,,,,images/exp1b_trial_27_colour2_distractors19_l.png,l,1,038,001,2021-04-26_22h40.01.498,searchDisc4,2020.2.10,MacIntel,60,,,space,0.282,1,1,0.653,,0,41,41,141,1,1b,27,2,19,
,,,,,,,,,,,,,,,,,,,,,,,,,,images/exp2a_trial_38_colour1_distractors1_r.png,r,2,038,001,2021-04-26_22h40.01.498,searchDisc4,2020.2.10,MacIntel,60,,,space,0.298,2,1,0.554,,0,42,42,266,1,2a,38,1,1,
,,,,,,,,,,,,,,,,,,,,,,,,,,images/exp1b_trial_57_colour1_distractors4_l.png,l,1,038,001,2021-04-26_22h40.01.498,searchDisc4,2020.2.10,MacIntel,60,,,space,0.343,1,1,0.69,,0,43,43,171,1,1b,57,1,4,
,,,,,,,,,,,,,,,,,,,,,,,,,,images/exp1a_trial_105_colour2_distractors43_l.png,l,1,038,001,2021-04-26_22h40.01.498,searchDisc4,2020.2.10,MacIntel,60,,,space,0.304,1,1,0.811,,0,44,44,105,1,1a,105,2,43,
,,,,,,,,,,,,,,,,,,,,,,,,,,images/exp2c_trial_106_colour3_distractors1_l.png,l,1,038,001,2021-04-26_22h40.01.498,searchDisc4,2020.2.10,MacIntel,60,,,space,0.358,1,1,0.492,,0,45,45,562,1,2c,106,3,1,
,,,,,,,,,,,,,,,,,,,,,,,,,,images/exp1b_trial_79_colour1_distractors19_r.png,r,2,038,001,2021-04-26_22h40.01.498,searchDisc4,2020.2.10,MacIntel,60,,,space,0.344,2,1,0.591,,0,46,46,193,1,1b,79,1,19,
,,,,,,,,,,,,,,,,,,,,,,,,,,images/exp2b_trial_74_colour0_distractors0_r.png,r,2,038,001,2021-04-26_22h40.01.498,searchDisc4,2020.2.10,MacIntel,60,,,space,0.278,2,1,0.49,,0,47,47,416,1,2b,74,0,0,
,,,,,,,,,,,,,,,,,,,,,,,,,,images/exp1a_trial_5_colour1_distractors43_r.png,r,2,038,001,2021-04-26_22h40.01.498,searchDisc4,2020.2.10,MacIntel,60,,,space,0.3,2,1,0.609,,0,48,48,5,1,1a,5,1,43,
,,,,,,,,,,,,,,,,,,,,,,,,,,images/exp2a_trial_65_colour2_distractors19_l.png,l,1,038,001,2021-04-26_22h40.01.498,searchDisc4,2020.2.10,MacIntel,60,,,space,0.444,1,1,0.793,,0,49,49,293,1,2a,65,2,19,
,,,,,,,,,,,,,,,,,,,,,,,,,,images/exp2c_trial_98_colour1_distractors31_l.png,l,1,038,001,2021-04-26_22h40.01.498,searchDisc4,2020.2.10,MacIntel,60,,,space,0.42,1,1,0.451,,0,50,50,554,1,2c,98,1,31,
,,,,,,,,,,,,,,,,,,,,,,,,,,images/exp2a_trial_86_colour2_distractors31_r.png,r,2,038,001,2021-04-26_22h40.01.498,searchDisc4,2020.2.10,MacIntel,60,,,space,0.359,1,0,0.526,,0,51,51,314,1,2a,86,2,31,
,,,,,,,,,,,,,,,,,,,,,,,,,,images/exp1b_trial_16_colour3_distractors31_r.png,r,2,038,001,2021-04-26_22h40.01.498,searchDisc4,2020.2.10,MacIntel,60,,,space,0.404,2,1,0.692,,0,52,52,130,1,1b,16,3,31,
,,,,,,,,,,,,,,,,,,,,,,,,,,images/exp2b_trial_6_colour2_distractors1_r.png,r,2,038,001,2021-04-26_22h40.01.498,searchDisc4,2020.2.10,MacIntel,60,,,space,0.279,2,1,0.55,,0,53,53,348,1,2b,6,2,1,
,,,,,,,,,,,,,,,,,,,,,,,,,,images/exp2a_trial_92_colour3_distractors31_r.png,r,2,038,001,2021-04-26_22h40.01.498,searchDisc4,2020.2.10,MacIntel,60,,,space,0.323,2,1,0.567,,0,54,54,320,1,2a,92,3,31,
,,,,,,,,,,,,,,,,,,,,,,,,,,images/exp2a_trial_49_colour2_distractors43_r.png,r,2,038,001,2021-04-26_22h40.01.498,searchDisc4,2020.2.10,MacIntel,60,,,space,0.339,2,1,0.648,,0,55,55,277,1,2a,49,2,43,
,,,,,,,,,,,,,,,,,,,,,,,,,,images/exp1a_trial_68_colour3_distractors1_l.png,l,1,038,001,2021-04-26_22h40.01.498,searchDisc4,2020.2.10,MacIntel,60,,,space,0.319,1,1,0.509,,0,56,56,68,1,1a,68,3,1,
,,,,,,,,,,,,,,,,,,,,,,,,,,images/exp2b_trial_12_colour3_distractors1_r.png,r,2,038,001,2021-04-26_22h40.01.498,searchDisc4,2020.2.10,MacIntel,60,,,space,0.339,2,1,0.571,,0,57,57,354,1,2b,12,3,1,
,,,,,,,,,,,,,,,,,,,,,,,,,,images/exp1b_trial_9_colour2_distractors19_r.png,r,2,038,001,2021-04-26_22h40.01.498,searchDisc4,2020.2.10,MacIntel,60,,,space,0.323,2,1,0.613,,0,58,58,123,1,1b,9,2,19,
,,,,,,,,,,,,,,,,,,,,,,,,,,images/exp2a_trial_98_colour1_distractors31_l.png,l,1,038,001,2021-04-26_22h40.01.498,searchDisc4,2020.2.10,MacIntel,60,,,space,0.357,1,1,0.572,space,0,59,59,326,1,2a,98,1,31,0.334
,,,,,,,,,,,,,,,,,,,,,,,,,,images/exp1b_trial_101_colour2_distractors4_l.png,l,1,038,001,2021-04-26_22h40.01.498,searchDisc4,2020.2.10,MacIntel,60,,,space,0.58,1,1,0.55,,0,60,60,215,1,1b,101,2,4,
,,,,,,,,,,,,,,,,,,,,,,,,,,images/exp2c_trial_46_colour2_distractors9_r.png,r,2,038,001,2021-04-26_22h40.01.498,searchDisc4,2020.2.10,MacIntel,60,,,space,0.319,2,1,0.574,,0,61,61,502,1,2c,46,2,9,
,,,,,,,,,,,,,,,,,,,,,,,,,,images/exp1a_trial_62_colour2_distractors1_l.png,l,1,038,001,2021-04-26_22h40.01.498,searchDisc4,2020.2.10,MacIntel,60,,,space,0.358,1,1,0.531,,0,62,62,62,1,1a,62,2,1,
,,,,,,,,,,,,,,,,,,,,,,,,,,images/exp2b_trial_65_colour2_distractors19_l.png,l,1,038,001,2021-04-26_22h40.01.498,searchDisc4,2020.2.10,MacIntel,60,,,space,0.358,1,1,0.514,,0,63,63,407,1,2b,65,2,19,
,,,,,,,,,,,,,,,,,,,,,,,,,,images/exp2b_trial_64_colour2_distractors9_l.png,l,1,038,001,2021-04-26_22h40.01.498,searchDisc4,2020.2.10,MacIntel,60,,,space,0.399,1,1,0.552,,0,64,64,406,1,2b,64,2,9,
,,,,,,,,,,,,,,,,,,,,,,,,,,images/exp2b_trial_72_colour3_distractors31_l.png,l,1,038,001,2021-04-26_22h40.01.498,searchDisc4,2020.2.10,MacIntel,60,,,space,0.362,1,1,0.613,,0,65,65,414,1,2b,72,3,31,
,,,,,,,,,,,,,,,,,,,,,,,,,,images/exp2c_trial_108_colour3_distractors9_l.png,l,1,038,001,2021-04-26_22h40.01.498,searchDisc4,2020.2.10,MacIntel,60,,,space,0.358,1,1,0.611,,0,66,66,564,1,2c,108,3,9,
,,,,,,,,,,,,,,,,,,,,,,,,,,images/exp2a_trial_72_colour3_distractors31_l.png,l,1,038,001,2021-04-26_22h40.01.498,searchDisc4,2020.2.10,MacIntel,60,,,space,0.378,1,1,0.845,,0,67,67,300,1,2a,72,3,31,
,,,,,,,,,,,,,,,,,,,,,,,,,,images/exp1a_trial_112_colour0_distractors0_r.png,r,2,038,001,2021-04-26_22h40.01.498,searchDisc4,2020.2.10,MacIntel,60,,,space,0.299,2,1,0.633,,0,68,68,112,1,1a,112,0,0,
,,,,,,,,,,,,,,,,,,,,,,,,,,images/exp1a_trial_84_colour2_distractors9_r.png,r,2,038,001,2021-04-26_22h40.01.498,searchDisc4,2020.2.10,MacIntel,60,,,space,0.379,2,1,0.492,,0,69,69,84,1,1a,84,2,9,
,,,,,,,,,,,,,,,,,,,,,,,,,,images/exp2a_trial_3_colour1_distractors19_r.png,r,2,038,001,2021-04-26_22h40.01.498,searchDisc4,2020.2.10,MacIntel,60,,,space,0.417,2,1,0.61,,0,70,70,231,1,2a,3,1,19,
,,,,,,,,,,,,,,,,,,,,,,,,,,images/exp1a_trial_106_colour3_distractors1_l.png,l,1,038,001,2021-04-26_22h40.01.498,searchDisc4,2020.2.10,MacIntel,60,,,space,0.4,1,1,0.511,,0,71,71,106,1,1a,106,3,1,
,,,,,,,,,,,,,,,,,,,,,,,,,,images/exp2a_trial_7_colour2_distractors4_r.png,r,2,038,001,2021-04-26_22h40.01.498,searchDisc4,2020.2.10,MacIntel,60,,,space,0.483,2,1,0.549,,0,72,72,235,1,2a,7,2,4,
,,,,,,,,,,,,,,,,,,,,,,,,,,images/exp1a_trial_13_colour3_distractors4_r.png,r,2,038,001,2021-04-26_22h40.01.498,searchDisc4,2020.2.10,MacIntel,60,,,space,0.358,2,1,0.569,,0,73,73,13,1,1a,13,3,4,
,,,,,,,,,,,,,,,,,,,,,,,,,,images/exp2b_trial_90_colour3_distractors9_r.png,r,2,038,001,2021-04-26_22h40.01.498,searchDisc4,2020.2.10,MacIntel,60,,,space,0.404,2,1,0.572,,0,74,74,432,1,2b,90,3,9,
,,,,,,,,,,,,,,,,,,,,,,,,,,images/exp2b_trial_11_colour2_distractors43_r.png,r,2,038,001,2021-04-26_22h40.01.498,searchDisc4,2020.2.10,MacIntel,60,,,space,0.407,2,1,0.472,,0,75,75,353,1,2b,11,2,43,
,,,,,,,,,,,,,,,,,,,,,,,,,,images/exp1b_trial_71_colour3_distractors19_l.png,l,1,038,001,2021-04-26_22h40.01.498,searchDisc4,2020.2.10,MacIntel,60,,,space,0.379,1,1,1.452,,0,76,76,185,1,1b,71,3,19,
,,,,,,,,,,,,,,,,,,,,,,,,,,images/exp2b_trial_54_colour3_distractors31_r.png,r,2,038,001,2021-04-26_22h40.01.498,searchDisc4,2020.2.10,MacIntel,60,,,space,0.343,2,1,0.796,,0,77,77,396,1,2b,54,3,31,
,,,,,,,,,,,,,,,,,,,,,,,,,,images/exp1a_trial_78_colour1_distractors9_r.png,r,2,038,001,2021-04-26_22h40.01.498,searchDisc4,2020.2.10,MacIntel,60,,,space,0.338,2,1,0.572,,0,78,78,78,1,1a,78,1,9,
,,,,,,,,,,,,,,,,,,,,,,,,,,images/exp1a_trial_86_colour2_distractors31_r.png,r,2,038,001,2021-04-26_22h40.01.498,searchDisc4,2020.2.10,MacIntel,60,,,space,0.339,2,1,0.568,,0,79,79,86,1,1a,86,2,31,
,,,,,,,,,,,,,,,,,,,,,,,,,,images/exp1b_trial_41_colour1_distractors19_r.png,r,2,038,001,2021-04-26_22h40.01.498,searchDisc4,2020.2.10,MacIntel,60,,,space,0.318,2,1,0.55,,0,80,80,155,1,1b,41,1,19,
,,,,,,,,,,,,,,,,,,,,,,,,,,images/exp2c_trial_80_colour1_distractors31_r.png,r,2,038,001,2021-04-26_22h40.01.498,searchDisc4,2020.2.10,MacIntel,60,,,space,0.32,2,1,0.532,,0,81,81,536,1,2c,80,1,31,
,,,,,,,,,,,,,,,,,,,,,,,,,,images/exp2c_trial_57_colour1_distractors4_l.png,l,1,038,001,2021-04-26_22h40.01.498,searchDisc4,2020.2.10,MacIntel,60,,,space,0.32,1,1,0.612,,0,82,82,513,1,2c,57,1,4,
,,,,,,,,,,,,,,,,,,,,,,,,,,images/exp2c_trial_67_colour2_distractors43_l.png,l,1,038,001,2021-04-26_22h40.01.498,searchDisc4,2020.2.10,MacIntel,60,,,space,0.405,1,1,0.813,,0,83,83,523,1,2c,67,2,43,
,,,,,,,,,,,,,,,,,,,,,,,,,,images/exp2a_trial_33_colour3_distractors19_l.png,l,1,038,001,2021-04-26_22h40.01.498,searchDisc4,2020.2.10,MacIntel,60,,,space,0.339,1,1,0.509,,0,84,84,261,1,2a,33,3,19,
,,,,,,,,,,,,,,,,,,,,,,,,,,images/exp1b_trial_85_colour2_distractors19_r.png,r,2,038,001,2021-04-26_22h40.01.498,searchDisc4,2020.2.10,MacIntel,60,,,space,0.398,2,1,0.634,,0,85,85,199,1,1b,85,2,19,
,,,,,,,,,,,,,,,,,,,,,,,,,,images/exp2b_trial_94_colour1_distractors1_l.png,l,1,038,001,2021-04-26_22h40.01.498,searchDisc4,2020.2.10,MacIntel,60,,,space,0.338,1,1,0.685,,0,86,86,436,1,2b,94,1,1,
,,,,,,,,,,,,,,,,,,,,,,,,,,images/exp2b_trial_3_colour1_distractors19_r.png,r,2,038,001,2021-04-26_22h40.01.498,searchDisc4,2020.2.10,MacIntel,60,,,space,0.319,2,1,0.611,,0,87,87,345,1,2b,3,1,19,
,,,,,,,,,,,,,,,,,,,,,,,,,,images/exp2a_trial_56_colour1_distractors1_l.png,l,1,038,001,2021-04-26_22h40.01.498,searchDisc4,2020.2.10,MacIntel,60,,,space,0.339,1,1,0.554,,0,88,88,284,1,2a,56,1,1,
,,,,,,,,,,,,,,,,,,,,,,,,,,images/exp1a_trial_33_colour3_distractors19_l.png,l,1,038,001,2021-04-26_22h40.01.498,searchDisc4,2020.2.10,MacIntel,60,,,space,0.32,1,1,0.769,,0,89,89,33,1,1a,33,3,19,
,,,,,,,,,,,,,,,,,,,,,,,,,,images/exp1a_trial_49_colour2_distractors43_r.png,r,2,038,001,2021-04-26_22h40.01.498,searchDisc4,2020.2.10,MacIntel,60,,,space,0.378,2,1,0.571,,0,90,90,49,1,1a,49,2,43,
,,,,,,,,,,,,,,,,,,,,,,,,,,images/exp2c_trial_12_colour3_distractors1_r.png,r,2,038,001,2021-04-26_22h40.01.498,searchDisc4,2020.2.10,MacIntel,60,,,space,0.377,2,1,0.511,,0,91,91,468,1,2c,12,3,1,
,,,,,,,,,,,,,,,,,,,,,,,,,,images/exp2c_trial_69_colour3_distractors4_l.png,l,1,038,001,2021-04-26_22h40.01.498,searchDisc4,2020.2.10,MacIntel,60,,,space,0.359,1,1,0.63,,0,92,92,525,1,2c,69,3,4,
,,,,,,,,,,,,,,,,,,,,,,,,,,images/exp1b_trial_54_colour3_distractors31_r.png,r,2,038,001,2021-04-26_22h40.01.498,searchDisc4,2020.2.10,MacIntel,60,,,space,0.32,2,1,0.993,,0,93,93,168,1,1b,54,3,31,
,,,,,,,,,,,,,,,,,,,,,,,,,,images/exp1b_trial_97_colour1_distractors19_l.png,l,1,038,001,2021-04-26_22h40.01.498,searchDisc4,2020.2.10,MacIntel,60,,,space,0.338,1,1,0.631,,0,94,94,211,1,1b,97,1,19,
,,,,,,,,,,,,,,,,,,,,,,,,,,images/exp2a_trial_11_colour2_distractors43_r.png,r,2,038,001,2021-04-26_22h40.01.498,searchDisc4,2020.2.10,MacIntel,60,,,space,0.322,2,1,0.533,,0,95,95,239,1,2a,11,2,43,
,,,,,,,,,,,,,,,,,,,,,,,,,,images/exp1b_trial_53_colour3_distractors19_r.png,r,2,038,001,2021-04-26_22h40.01.498,searchDisc4,2020.2.10,MacIntel,60,,,space,0.318,2,1,0.771,,0,96,96,167,1,1b,53,3,19,
,,,,,,,,,,,,,,,,,,,,,,,,,,images/exp2b_trial_89_colour3_distractors4_r.png,r,2,038,001,2021-04-26_22h40.01.498,searchDisc4,2020.2.10,MacIntel,60,,,space,0.337,2,1,0.513,,0,97,97,431,1,2b,89,3,4,
,,,,,,,,,,,,,,,,,,,,,,,,,,images/exp2c_trial_6_colour2_distractors1_r.png,r,2,038,001,2021-04-26_22h40.01.498,searchDisc4,2020.2.10,MacIntel,60,,,space,0.241,2,1,0.514,,0,98,98,462,1,2c,6,2,1,
,,,,,,,,,,,,,,,,,,,,,,,,,,images/exp1b_trial_93_colour3_distractors43_r.png,r,2,038,001,2021-04-26_22h40.01.498,searchDisc4,2020.2.10,MacIntel,60,,,space,0.259,2,1,2.552,,0,99,99,207,1,1b,93,3,43,
,,,,,,,,,,,,,,,,,,,,,,,,,,images/exp2b_trial_68_colour3_distractors1_l.png,l,1,038,001,2021-04-26_22h40.01.498,searchDisc4,2020.2.10,MacIntel,60,,,space,0.278,1,1,0.694,,0,100,100,410,1,2b,68,3,1,
,,,,,,,,,,,,,,,,,,,,,,,,,,images/exp1b_trial_109_colour3_distractors19_l.png,l,1,038,001,2021-04-26_22h40.01.498,searchDisc4,2020.2.10,MacIntel,60,,,space,0.276,1,1,0.653,,0,101,101,223,1,1b,109,3,19,
,,,,,,,,,,,,,,,,,,,,,,,,,,images/exp1b_trial_89_colour3_distractors4_r.png,r,2,038,001,2021-04-26_22h40.01.498,searchDisc4,2020.2.10,MacIntel,60,,,space,0.28,2,1,1.092,,0,102,102,203,1,1b,89,3,4,
,,,,,,,,,,,,,,,,,,,,,,,,,,images/exp2b_trial_33_colour3_distractors19_l.png,l,1,038,001,2021-04-26_22h40.01.498,searchDisc4,2020.2.10,MacIntel,60,,,space,0.258,1,1,0.632,,0,103,103,375,1,2b,33,3,19,
,,,,,,,,,,,,,,,,,,,,,,,,,,images/exp2c_trial_63_colour2_distractors4_l.png,l,1,038,001,2021-04-26_22h40.01.498,searchDisc4,2020.2.10,MacIntel,60,,,space,0.28,1,1,0.613,,0,104,104,519,1,2c,63,2,4,
,,,,,,,,,,,,,,,,,,,,,,,,,,images/exp2a_trial_21_colour1_distractors19_l.png,l,1,038,001,2021-04-26_22h40.01.498,searchDisc4,2020.2.10,MacIntel,60,,,space,0.264,1,1,0.552,,0,105,105,249,1,2a,21,1,19,
,,,,,,,,,,,,,,,,,,,,,,,,,,images/exp2c_trial_101_colour2_distractors4_l.png,l,1,038,001,2021-04-26_22h40.01.498,searchDisc4,2020.2.10,MacIntel,60,,,space,0.218,1,1,0.532,,0,106,106,557,1,2c,101,2,4,
,,,,,,,,,,,,,,,,,,,,,,,,,,images/exp1a_trial_92_colour3_distractors31_r.png,r,2,038,001,2021-04-26_22h40.01.498,searchDisc4,2020.2.10,MacIntel,60,,,space,0.237,1,0,0.569,,0,107,107,92,1,1a,92,3,31,
,,,,,,,,,,,,,,,,,,,,,,,,,,images/exp1a_trial_107_colour3_distractors4_l.png,l,1,038,001,2021-04-26_22h40.01.498,searchDisc4,2020.2.10,MacIntel,60,,,space,0.399,1,1,0.55,,0,108,108,107,1,1a,107,3,4,
,,,,,,,,,,,,,,,,,,,,,,,,,,images/exp1b_trial_38_colour1_distractors1_r.png,r,2,038,001,2021-04-26_22h40.01.498,searchDisc4,2020.2.10,MacIntel,60,,,space,0.223,2,1,0.594,,0,109,109,152,1,1b,38,1,1,
,,,,,,,,,,,,,,,,,,,,,,,,,,images/exp1b_trial_5_colour1_distractors43_r.png,r,2,038,001,2021-04-26_22h40.01.498,searchDisc4,2020.2.10,MacIntel,60,,,space,0.26,2,1,0.612,,0,110,110,119,1,1b,5,1,43,
,,,,,,,,,,,,,,,,,,,,,,,,,,images/exp2c_trial_27_colour2_distractors19_l.png,l,1,038,001,2021-04-26_22h40.01.498,searchDisc4,2020.2.10,MacIntel,60,,,space,0.239,1,1,0.612,,0,111,111,483,1,2c,27,2,19,
,,,,,,,,,,,,,,,,,,,,,,,,,,images/exp1a_trial_4_colour1_distractors31_r.png,r,2,038,001,2021-04-26_22h40.01.498,searchDisc4,2020.2.10,MacIntel,60,,,space,0.239,1,0,0.59,,0,112,112,4,1,1a,4,1,31,
,,,,,,,,,,,,,,,,,,,,,,,,,,images/exp1a_trial_75_colour0_distractors0_l.png,l,1,038,001,2021-04-26_22h40.01.498,searchDisc4,2020.2.10,MacIntel,60,,,space,0.318,1,1,0.532,,0,113,113,75,1,1a,75,0,0,
,,,,,,,,,,,,,,,,,,,,,,,,,,images/exp2b_trial_103_colour2_distractors19_l.png,l,1,038,001,2021-04-26_22h40.01.498,searchDisc4,2020.2.10,MacIntel,60,,,space,0.201,1,1,0.573,,0,114,114,445,1,2b,103,2,19,
,,,,,,,,,,,,,,,,,,,,,,,,,,images/exp1a_trial_3_colour1_distractors19_r.png,r,2,038,001,2021-04-26_22h40.01.498,searchDisc4,2020.2.10,MacIntel,60,,,space,0.157,2,1,0.61,,0,115,115,3,1,1a,3,1,19,
,,,,,,,,,,,,,,,,,,,,,,,,,,images/exp2a_trial_105_colour2_distractors43_l.png,l,1,038,001,2021-04-26_22h40.01.498,searchDisc4,2020.2.10,MacIntel,60,,,space,0.139,1,1,0.614,,0,116,116,333,1,2a,105,2,43,
,,,,,,,,,,,,,,,,,,,,,,,,,,images/exp2a_trial_22_colour1_distractors31_l.png,l,1,038,001,2021-04-26_22h40.01.498,searchDisc4,2020.2.10,MacIntel,60,,,space,0.159,1,1,0.631,,0,117,117,250,1,2a,22,1,31,
,,,,,,,,,,,,,,,,,,,,,,,,,,images/exp2c_trial_78_colour1_distractors9_r.png,r,2,038,001,2021-04-26_22h40.01.498,searchDisc4,2020.2.10,MacIntel,60,,,space,0.159,2,1,0.591,,0,118,118,534,1,2c,78,1,9,
,,,,,,,,,,,,,,,,,,,,,,,,,,images/exp2a_trial_25_colour2_distractors4_l.png,l,1,038,001,2021-04-26_22h40.01.498,searchDisc4,2020.2.10,MacIntel,60,,,space,0.158,1,1,0.633,space,0,119,119,253,1,2a,25,2,4,0.153
,,,,,,,,,,,,,,,,,,,,,,,,,,images/exp1a_trial_56_colour1_distractors1_l.png,l,1,038,001,2021-04-26_22h40.01.498,searchDisc4,2020.2.10,MacIntel,60,,,space,0.685,1,1,0.594,,0,120,120,56,1,1a,56,1,1,
,,,,,,,,,,,,,,,,,,,,,,,,,,images/exp2b_trial_73_colour3_distractors43_l.png,l,1,038,001,2021-04-26_22h40.01.498,searchDisc4,2020.2.10,MacIntel,60,,,space,0.218,1,1,0.572,,0,121,121,415,1,2b,73,3,43,
,,,,,,,,,,,,,,,,,,,,,,,,,,images/exp2a_trial_30_colour3_distractors1_l.png,l,1,038,001,2021-04-26_22h40.01.498,searchDisc4,2020.2.10,MacIntel,60,,,space,0.178,1,1,0.551,,0,122,122,258,1,2a,30,3,1,
,,,,,,,,,,,,,,,,,,,,,,,,,,images/exp2b_trial_96_colour1_distractors9_l.png,l,1,038,001,2021-04-26_22h40.01.498,searchDisc4,2020.2.10,MacIntel,60,,,space,0.198,1,1,0.592,,0,123,123,438,1,2b,96,1,9,
,,,,,,,,,,,,,,,,,,,,,,,,,,images/exp1b_trial_40_colour1_distractors9_r.png,r,2,038,001,2021-04-26_22h40.01.498,searchDisc4,2020.2.10,MacIntel,60,,,space,0.158,2,1,0.571,,0,124,124,154,1,1b,40,1,9,
,,,,,,,,,,,,,,,,,,,,,,,,,,images/exp1a_trial_37_colour0_distractors0_l.png,l,1,038,001,2021-04-26_22h40.01.498,searchDisc4,2020.2.10,MacIntel,60,,,space,0.178,1,1,0.593,,0,125,125,37,1,1a,37,0,0,
,,,,,,,,,,,,,,,,,,,,,,,,,,images/exp2c_trial_93_colour3_distractors43_r.png,r,2,038,001,2021-04-26_22h40.01.498,searchDisc4,2020.2.10,MacIntel,60,,,space,0.18,2,1,0.572,,0,126,126,549,1,2c,93,3,43,
,,,,,,,,,,,,,,,,,,,,,,,,,,images/exp2a_trial_28_colour2_distractors31_l.png,l,1,038,001,2021-04-26_22h40.01.498,searchDisc4,2020.2.10,MacIntel,60,,,space,0.199,1,1,0.527,,0,127,127,256,1,2a,28,2,31,
,,,,,,,,,,,,,,,,,,,,,,,,,,images/exp2c_trial_90_colour3_distractors9_r.png,r,2,038,001,2021-04-26_22h40.01.498,searchDisc4,2020.2.10,MacIntel,60,,,space,0.178,2,1,0.589,,0,128,128,546,1,2c,90,3,9,
,,,,,,,,,,,,,,,,,,,,,,,,,,images/exp2c_trial_10_colour2_distractors31_r.png,r,2,038,001,2021-04-26_22h40.01.498,searchDisc4,2020.2.10,MacIntel,60,,,space,0.157,2,1,0.551,,0,129,129,466,1,2c,10,2,31,
,,,,,,,,,,,,,,,,,,,,,,,,,,images/exp1b_trial_82_colour2_distractors1_r.png,r,2,038,001,2021-04-26_22h40.01.498,searchDisc4,2020.2.10,MacIntel,60,,,space,0.177,2,1,0.771,,0,130,130,196,1,1b,82,2,1,
,,,,,,,,,,,,,,,,,,,,,,,,,,images/exp2b_trial_108_colour3_distractors9_l.png,l,1,038,001,2021-04-26_22h40.01.498,searchDisc4,2020.2.10,MacIntel,60,,,space,0.238,1,1,0.53,,0,131,131,450,1,2b,108,3,9,
,,,,,,,,,,,,,,,,,,,,,,,,,,images/exp1a_trial_52_colour3_distractors9_r.png,r,2,038,001,2021-04-26_22h40.01.498,searchDisc4,2020.2.10,MacIntel,60,,,space,0.238,2,1,0.611,,0,132,132,52,1,1a,52,3,9,
,,,,,,,,,,,,,,,,,,,,,,,,,,images/exp1a_trial_44_colour2_distractors1_r.png,r,2,038,001,2021-04-26_22h40.01.498,searchDisc4,2020.2.10,MacIntel,60,,,space,0.217,2,1,0.625,,0,133,133,44,1,1a,44,2,1,
,,,,,,,,,,,,,,,,,,,,,,,,,,images/exp2c_trial_82_colour2_distractors1_r.png,r,2,038,001,2021-04-26_22h40.01.498,searchDisc4,2020.2.10,MacIntel,60,,,space,0.198,2,1,0.511,,0,134,134,538,1,2c,82,2,1,
,,,,,,,,,,,,,,,,,,,,,,,,,,images/exp2b_trial_83_colour2_distractors4_r.png,r,2,038,001,2021-04-26_22h40.01.498,searchDisc4,2020.2.10,MacIntel,60,,,space,0.198,2,1,0.531,,0,135,135,425,1,2b,83,2,4,
,,,,,,,,,,,,,,,,,,,,,,,,,,images/exp2a_trial_61_colour1_distractors43_l.png,l,1,038,001,2021-04-26_22h40.01.498,searchDisc4,2020.2.10,MacIntel,60,,,space,0.197,1,1,0.554,,0,136,136,289,1,2a,61,1,43,
,,,,,,,,,,,,,,,,,,,,,,,,,,images/exp2c_trial_35_colour3_distractors43_l.png,l,1,038,001,2021-04-26_22h40.01.498,searchDisc4,2020.2.10,MacIntel,60,,,space,0.199,1,1,0.632,,0,137,137,491,1,2c,35,3,43,
,,,,,,,,,,,,,,,,,,,,,,,,,,images/exp1a_trial_72_colour3_distractors31_l.png,l,1,038,001,2021-04-26_22h40.01.498,searchDisc4,2020.2.10,MacIntel,60,,,space,0.199,1,1,0.612,,0,138,138,72,1,1a,72,3,31,
,,,,,,,,,,,,,,,,,,,,,,,,,,images/exp2a_trial_32_colour3_distractors9_l.png,l,1,038,001,2021-04-26_22h40.01.498,searchDisc4,2020.2.10,MacIntel,60,,,space,0.219,1,1,0.53,,0,139,139,260,1,2a,32,3,9,
,,,,,,,,,,,,,,,,,,,,,,,,,,images/exp2b_trial_109_colour3_distractors19_l.png,l,1,038,001,2021-04-26_22h40.01.498,searchDisc4,2020.2.10,MacIntel,60,,,space,0.179,1,1,0.532,,0,140,140,451,1,2b,109,3,19,
,,,,,,,,,,,,,,,,,,,,,,,,,,images/exp2c_trial_68_colour3_distractors1_l.png,l,1,038,001,2021-04-26_22h40.01.498,searchDisc4,2020.2.10,MacIntel,60,,,space,0.181,1,1,0.513,,0,141,141,524,1,2c,68,3,1,
,,,,,,,,,,,,,,,,,,,,,,,,,,images/exp2c_trial_81_colour1_distractors43_r.png,r,2,038,001,2021-04-26_22h40.01.498,searchDisc4,2020.2.10,MacIntel,60,,,space,0.2,2,1,0.55,,0,142,142,537,1,2c,81,1,43,
,,,,,,,,,,,,,,,,,,,,,,,,,,images/exp2a_trial_13_colour3_distractors4_r.png,r,2,038,001,2021-04-26_22h40.01.498,searchDisc4,2020.2.10,MacIntel,60,,,space,0.218,2,1,0.532,,0,143,143,241,1,2a,13,3,4,
,,,,,,,,,,,,,,,,,,,,,,,,,,images/exp1b_trial_74_colour0_distractors0_r.png,r,2,038,001,2021-04-26_22h40.01.498,searchDisc4,2020.2.10,MacIntel,60,,,space,0.2,2,1,0.474,,0,144,144,188,1,1b,74,0,0,
,,,,,,,,,,,,,,,,,,,,,,,,,,images/exp2a_trial_76_colour1_distractors1_r.png,r,2,038,001,2021-04-26_22h40.01.498,searchDisc4,2020.2.10,MacIntel,60,,,space,0.204,2,1,0.573,,0,145,145,304,1,2a,76,1,1,
,,,,,,,,,,,,,,,,,,,,,,,,,,images/exp2a_trial_45_colour2_distractors4_r.png,r,2,038,001,2021-04-26_22h40.01.498,searchDisc4,2020.2.10,MacIntel,60,,,space,0.183,2,1,0.472,,0,146,146,273,1,2a,45,2,4,
,,,,,,,,,,,,,,,,,,,,,,,,,,images/exp1b_trial_63_colour2_distractors4_l.png,l,1,038,001,2021-04-26_22h40.01.498,searchDisc4,2020.2.10,MacIntel,60,,,space,0.398,1,1,0.67,,0,147,147,177,1,1b,63,2,4,
,,,,,,,,,,,,,,,,,,,,,,,,,,images/exp2c_trial_94_colour1_distractors1_l.png,l,1,038,001,2021-04-26_22h40.01.498,searchDisc4,2020.2.10,MacIntel,60,,,space,0.213,1,1,0.513,,0,148,148,550,1,2c,94,1,1,
,,,,,,,,,,,,,,,,,,,,,,,,,,images/exp2a_trial_101_colour2_distractors4_l.png,l,1,038,001,2021-04-26_22h40.01.498,searchDisc4,2020.2.10,MacIntel,60,,,space,0.198,1,1,0.572,,0,149,149,329,1,2a,101,2,4,
,,,,,,,,,,,,,,,,,,,,,,,,,,images/exp2a_trial_100_colour2_distractors1_l.png,l,1,038,001,2021-04-26_22h40.01.498,searchDisc4,2020.2.10,MacIntel,60,,,space,0.219,1,1,0.498,,0,150,150,328,1,2a,100,2,1,
,,,,,,,,,,,,,,,,,,,,,,,,,,images/exp1b_trial_59_colour1_distractors19_l.png,l,1,038,001,2021-04-26_22h40.01.498,searchDisc4,2020.2.10,MacIntel,60,,,space,0.218,1,1,0.511,,0,151,151,173,1,1b,59,1,19,
,,,,,,,,,,,,,,,,,,,,,,,,,,images/exp2c_trial_11_colour2_distractors43_r.png,r,2,038,001,2021-04-26_22h40.01.498,searchDisc4,2020.2.10,MacIntel,60,,,space,0.198,2,1,0.552,,0,152,152,467,1,2c,11,2,43,
,,,,,,,,,,,,,,,,,,,,,,,,,,images/exp2c_trial_74_colour0_distractors0_r.png,r,2,038,001,2021-04-26_22h40.01.498,searchDisc4,2020.2.10,MacIntel,60,,,space,0.219,2,1,0.492,,0,153,153,530,1,2c,74,0,0,
,,,,,,,,,,,,,,,,,,,,,,,,,,images/exp1b_trial_72_colour3_distractors31_l.png,l,1,038,001,2021-04-26_22h40.01.498,searchDisc4,2020.2.10,MacIntel,60,,,space,0.197,1,1,1.994,,0,154,154,186,1,1b,72,3,31,
,,,,,,,,,,,,,,,,,,,,,,,,,,images/exp1a_trial_21_colour1_distractors19_l.png,l,1,038,001,2021-04-26_22h40.01.498,searchDisc4,2020.2.10,MacIntel,60,,,space,0.243,1,1,0.588,,0,155,155,21,1,1a,21,1,19,
,,,,,,,,,,,,,,,,,,,,,,,,,,images/exp1a_trial_80_colour1_distractors31_r.png,r,2,038,001,2021-04-26_22h40.01.498,searchDisc4,2020.2.10,MacIntel,60,,,space,0.196,1,0,0.613,,0,156,156,80,1,1a,80,1,31,
,,,,,,,,,,,,,,,,,,,,,,,,,,images/exp1a_trial_90_colour3_distractors9_r.png,r,2,038,001,2021-04-26_22h40.01.498,searchDisc4,2020.2.10,MacIntel,60,,,space,0.298,2,1,0.573,,0,157,157,90,1,1a,90,3,9,
,,,,,,,,,,,,,,,,,,,,,,,,,,images/exp1b_trial_50_colour3_distractors1_r.png,r,2,038,001,2021-04-26_22h40.01.498,searchDisc4,2020.2.10,MacIntel,60,,,space,0.179,2,1,0.632,,0,158,158,164,1,1b,50,3,1,
,,,,,,,,,,,,,,,,,,,,,,,,,,images/exp2b_trial_91_colour3_distractors19_r.png,r,2,038,001,2021-04-26_22h40.01.498,searchDisc4,2020.2.10,MacIntel,60,,,space,0.18,2,1,0.552,,0,159,159,433,1,2b,91,3,19,
,,,,,,,,,,,,,,,,,,,,,,,,,,images/exp2b_trial_69_colour3_distractors4_l.png,l,1,038,001,2021-04-26_22h40.01.498,searchDisc4,2020.2.10,MacIntel,60,,,space,0.204,1,1,0.713,,0,160,160,411,1,2b,69,3,4,
,,,,,,,,,,,,,,,,,,,,,,,,,,images/exp2c_trial_43_colour1_distractors43_r.png,r,2,038,001,2021-04-26_22h40.01.498,searchDisc4,2020.2.10,MacIntel,60,,,space,0.221,2,1,0.693,,0,161,161,499,1,2c,43,1,43,
,,,,,,,,,,,,,,,,,,,,,,,,,,images/exp2b_trial_18_colour1_distractors1_l.png,l,1,038,001,2021-04-26_22h40.01.498,searchDisc4,2020.2.10,MacIntel,60,,,space,0.24,1,1,0.59,,0,162,162,360,1,2b,18,1,1,
,,,,,,,,,,,,,,,,,,,,,,,,,,images/exp1a_trial_65_colour2_distractors19_l.png,l,1,038,001,2021-04-26_22h40.01.498,searchDisc4,2020.2.10,MacIntel,60,,,space,0.208,1,1,0.808,,0,163,163,65,1,1a,65,2,19,
,,,,,,,,,,,,,,,,,,,,,,,,,,images/exp2b_trial_20_colour1_distractors9_l.png,l,1,038,001,2021-04-26_22h40.01.498,searchDisc4,2020.2.10,MacIntel,60,,,space,0.438,1,1,0.489,,0,164,164,362,1,2b,20,1,9,
,,,,,,,,,,,,,,,,,,,,,,,,,,images/exp2c_trial_88_colour3_distractors1_r.png,r,2,038,001,2021-04-26_22h40.01.498,searchDisc4,2020.2.10,MacIntel,60,,,space,0.277,2,1,0.748,,0,165,165,544,1,2c,88,3,1,
,,,,,,,,,,,,,,,,,,,,,,,,,,images/exp2c_trial_16_colour3_distractors31_r.png,r,2,038,001,2021-04-26_22h40.01.498,searchDisc4,2020.2.10,MacIntel,60,,,space,0.241,2,1,0.512,,0,166,166,472,1,2c,16,3,31,
,,,,,,,,,,,,,,,,,,,,,,,,,,images/exp1b_trial_20_colour1_distractors9_l.png,l,1,038,001,2021-04-26_22h40.01.498,searchDisc4,2020.2.10,MacIntel,60,,,space,0.279,1,1,0.571,,0,167,167,134,1,1b,20,1,9,
,,,,,,,,,,,,,,,,,,,,,,,,,,images/exp2c_trial_23_colour1_distractors43_l.png,l,1,038,001,2021-04-26_22h40.01.498,searchDisc4,2020.2.10,MacIntel,60,,,space,0.182,1,1,0.592,,0,168,168,479,1,2c,23,1,43,
,,,,,,,,,,,,,,,,,,,,,,,,,,images/exp2a_trial_94_colour1_distractors1_l.png,l,1,038,001,2021-04-26_22h40.01.498,searchDisc4,2020.2.10,MacIntel,60,,,space,0.179,1,1,0.594,,0,169,169,322,1,2a,94,1,1,
,,,,,,,,,,,,,,,,,,,,,,,,,,images/exp2c_trial_15_colour3_distractors19_r.png,r,2,038,001,2021-04-26_22h40.01.498,searchDisc4,2020.2.10,MacIntel,60,,,space,0.222,2,1,0.614,,0,170,170,471,1,2c,15,3,19,
,,,,,,,,,,,,,,,,,,,,,,,,,,images/exp1b_trial_75_colour0_distractors0_l.png,l,1,038,001,2021-04-26_22h40.01.498,searchDisc4,2020.2.10,MacIntel,60,,,space,0.202,1,1,0.573,,0,171,171,189,1,1b,75,0,0,
,,,,,,,,,,,,,,,,,,,,,,,,,,images/exp2c_trial_86_colour2_distractors31_r.png,r,2,038,001,2021-04-26_22h40.01.498,searchDisc4,2020.2.10,MacIntel,60,,,space,0.218,2,1,0.67,,0,172,172,542,1,2c,86,2,31,
,,,,,,,,,,,,,,,,,,,,,,,,,,images/exp2b_trial_101_colour2_distractors4_l.png,l,1,038,001,2021-04-26_22h40.01.498,searchDisc4,2020.2.10,MacIntel,60,,,space,0.198,1,1,0.552,,0,173,173,443,1,2b,101,2,4,
,,,,,,,,,,,,,,,,,,,,,,,,,,images/exp2a_trial_42_colour1_distractors31_r.png,r,2,038,001,2021-04-26_22h40.01.498,searchDisc4,2020.2.10,MacIntel,60,,,space,0.195,2,1,0.588,,0,174,174,270,1,2a,42,1,31,
,,,,,,,,,,,,,,,,,,,,,,,,,,images/exp1b_trial_31_colour3_distractors4_l.png,l,1,038,001,2021-04-26_22h40.01.498,searchDisc4,2020.2.10,MacIntel,60,,,space,0.178,1,1,0.631,,0,175,175,145,1,1b,31,3,4,
,,,,,,,,,,,,,,,,,,,,,,,,,,images/exp1b_trial_107_colour3_distractors4_l.png,l,1,038,001,2021-04-26_22h40.01.498,searchDisc4,2020.2.10,MacIntel,60,,,space,0.198,1,1,0.795,,0,176,176,221,1,1b,107,3,4,
,,,,,,,,,,,,,,,,,,,,,,,,,,images/exp2a_trial_26_colour2_distractors9_l.png,l,1,038,001,2021-04-26_22h40.01.498,searchDisc4,2020.2.10,MacIntel,60,,,space,0.177,1,1,0.508,,0,177,177,254,1,2a,26,2,9,
,,,,,,,,,,,,,,,,,,,,,,,,,,images/exp2b_trial_44_colour2_distractors1_r.png,r,2,038,001,2021-04-26_22h40.01.498,searchDisc4,2020.2.10,MacIntel,60,,,space,0.179,2,1,0.529,,0,178,178,386,1,2b,44,2,1,
,,,,,,,,,,,,,,,,,,,,,,,,,,images/exp1b_trial_3_colour1_distractors19_r.png,r,2,038,001,2021-04-26_22h40.01.498,searchDisc4,2020.2.10,MacIntel,60,,,space,0.178,2,1,0.573,space,0,179,179,117,1,1b,3,1,19,0.214
,,,,,,,,,,,,,,,,,,,,,,,,,,images/exp1b_trial_103_colour2_distractors19_l.png,l,1,038,001,2021-04-26_22h40.01.498,searchDisc4,2020.2.10,MacIntel,60,,,space,0.58,1,1,0.669,,0,180,180,217,1,1b,103,2,19,
,,,,,,,,,,,,,,,,,,,,,,,,,,images/exp2a_trial_39_colour1_distractors4_r.png,r,2,038,001,2021-04-26_22h40.01.498,searchDisc4,2020.2.10,MacIntel,60,,,space,0.199,1,0,0.671,,0,181,181,267,1,2a,39,1,4,
,,,,,,,,,,,,,,,,,,,,,,,,,,images/exp2b_trial_82_colour2_distractors1_r.png,r,2,038,001,2021-04-26_22h40.01.498,searchDisc4,2020.2.10,MacIntel,60,,,space,0.277,2,1,0.532,,0,182,182,424,1,2b,82,2,1,
,,,,,,,,,,,,,,,,,,,,,,,,,,images/exp2c_trial_51_colour3_distractors4_r.png,r,2,038,001,2021-04-26_22h40.01.498,searchDisc4,2020.2.10,MacIntel,60,,,space,0.162,2,1,0.592,,0,183,183,507,1,2c,51,3,4,
,,,,,,,,,,,,,,,,,,,,,,,,,,images/exp2b_trial_32_colour3_distractors9_l.png,l,1,038,001,2021-04-26_22h40.01.498,searchDisc4,2020.2.10,MacIntel,60,,,space,0.121,1,1,0.651,,0,184,184,374,1,2b,32,3,9,
,,,,,,,,,,,,,,,,,,,,,,,,,,images/exp1a_trial_109_colour3_distractors19_l.png,l,1,038,001,2021-04-26_22h40.01.498,searchDisc4,2020.2.10,MacIntel,60,,,space,0.158,1,1,0.73,,0,185,185,109,1,1a,109,3,19,
,,,,,,,,,,,,,,,,,,,,,,,,,,images/exp2a_trial_44_colour2_distractors1_r.png,r,2,038,001,2021-04-26_22h40.01.498,searchDisc4,2020.2.10,MacIntel,60,,,space,0.178,2,1,0.674,,0,186,186,272,1,2a,44,2,1,
,,,,,,,,,,,,,,,,,,,,,,,,,,images/exp1a_trial_26_colour2_distractors9_l.png,l,1,038,001,2021-04-26_22h40.01.498,searchDisc4,2020.2.10,MacIntel,60,,,space,0.28,2,0,0.55,,0,187,187,26,1,1a,26,2,9,
,,,,,,,,,,,,,,,,,,,,,,,,,,images/exp2b_trial_21_colour1_distractors19_l.png,l,1,038,001,2021-04-26_22h40.01.498,searchDisc4,2020.2.10,MacIntel,60,,,space,0.359,1,1,0.651,,0,188,188,363,1,2b,21,1,19,
,,,,,,,,,,,,,,,,,,,,,,,,,,images/exp2a_trial_36_colour0_distractors0_r.png,r,2,038,001,2021-04-26_22h40.01.498,searchDisc4,2020.2.10,MacIntel,60,,,space,0.178,2,1,0.608,,0,189,189,264,1,2a,36,0,0,
,,,,,,,,,,,,,,,,,,,,,,,,,,images/exp2b_trial_59_colour1_distractors19_l.png,l,1,038,001,2021-04-26_22h40.01.498,searchDisc4,2020.2.10,MacIntel,60,,,space,0.178,1,1,0.671,,0,190,190,401,1,2b,59,1,19,
,,,,,,,,,,,,,,,,,,,,,,,,,,images/exp2a_trial_81_colour1_distractors43_r.png,r,2,038,001,2021-04-26_22h40.01.498,searchDisc4,2020.2.10,MacIntel,60,,,space,0.16,2,1,0.713,,0,191,191,309,1,2a,81,1,43,
,,,,,,,,,,,,,,,,,,,,,,,,,,images/exp2b_trial_107_colour3_distractors4_l.png,l,1,038,001,2021-04-26_22h40.01.498,searchDisc4,2020.2.10,MacIntel,60,,,space,0.199,1,1,0.516,,0,192,192,449,1,2b,107,3,4,
,,,,,,,,,,,,,,,,,,,,,,,,,,images/exp2c_trial_22_colour1_distractors31_l.png,l,1,038,001,2021-04-26_22h40.01.498,searchDisc4,2020.2.10,MacIntel,60,,,space,0.199,1,1,0.652,,0,193,193,478,1,2c,22,1,31,
,,,,,,,,,,,,,,,,,,,,,,,,,,images/exp2a_trial_16_colour3_distractors31_r.png,r,2,038,001,2021-04-26_22h40.01.498,searchDisc4,2020.2.10,MacIntel,60,,,space,0.218,2,1,0.748,,0,194,194,244,1,2a,16,3,31,
,,,,,,,,,,,,,,,,,,,,,,,,,,images/exp2a_trial_74_colour0_distractors0_r.png,r,2,038,001,2021-04-26_22h40.01.498,searchDisc4,2020.2.10,MacIntel,60,,,space,0.197,2,1,0.552,,0,195,195,302,1,2a,74,0,0,
,,,,,,,,,,,,,,,,,,,,,,,,,,images/exp2c_trial_24_colour2_distractors1_l.png,l,1,038,001,2021-04-26_22h40.01.498,searchDisc4,2020.2.10,MacIntel,60,,,space,0.139,1,1,0.612,,0,196,196,480,1,2c,24,2,1,
,,,,,,,,,,,,,,,,,,,,,,,,,,images/exp1a_trial_20_colour1_distractors9_l.png,l,1,038,001,2021-04-26_22h40.01.498,searchDisc4,2020.2.10,MacIntel,60,,,space,0.18,1,1,0.59,,0,197,197,20,1,1a,20,1,9,
,,,,,,,,,,,,,,,,,,,,,,,,,,images/exp2c_trial_71_colour3_distractors19_l.png,l,1,038,001,2021-04-26_22h40.01.498,searchDisc4,2020.2.10,MacIntel,60,,,space,0.198,1,1,0.566,,0,198,198,527,1,2c,71,3,19,
,,,,,,,,,,,,,,,,,,,,,,,,,,images/exp1a_trial_58_colour1_distractors9_l.png,l,1,038,001,2021-04-26_22h40.01.498,searchDisc4,2020.2.10,MacIntel,60,,,space,0.16,1,1,0.552,,0,199,199,58,1,1a,58,1,9,
,,,,,,,,,,,,,,,,,,,,,,,,,,images/exp2c_trial_65_colour2_distractors19_l.png,l,1,038,001,2021-04-26_22h40.01.498,searchDisc4,2020.2.10,MacIntel,60,,,space,0.178,1,1,0.61,,0,200,200,521,1,2c,65,2,19,
,,,,,,,,,,,,,,,,,,,,,,,,,,images/exp1a_trial_19_colour1_distractors4_l.png,l,1,038,001,2021-04-26_22h40.01.498,searchDisc4,2020.2.10,MacIntel,60,,,space,0.177,1,1,0.688,,0,201,201,19,1,1a,19,1,4,
,,,,,,,,,,,,,,,,,,,,,,,,,,images/exp1b_trial_32_colour3_distractors9_l.png,l,1,038,001,2021-04-26_22h40.01.498,searchDisc4,2020.2.10,MacIntel,60,,,space,0.217,1,1,1.69,,0,202,202,146,1,1b,32,3,9,
,,,,,,,,,,,,,,,,,,,,,,,,,,images/exp2b_trial_10_colour2_distractors31_r.png,r,2,038,001,2021-04-26_22h40.01.498,searchDisc4,2020.2.10,MacIntel,60,,,space,0.219,2,1,0.637,,0,203,203,352,1,2b,10,2,31,
,,,,,,,,,,,,,,,,,,,,,,,,,,images/exp1a_trial_12_colour3_distractors1_r.png,r,2,038,001,2021-04-26_22h40.01.498,searchDisc4,2020.2.10,MacIntel,60,,,space,0.223,2,1,0.572,,0,204,204,12,1,1a,12,3,1,
,,,,,,,,,,,,,,,,,,,,,,,,,,images/exp2b_trial_61_colour1_distractors43_l.png,l,1,038,001,2021-04-26_22h40.01.498,searchDisc4,2020.2.10,MacIntel,60,,,space,0.198,1,1,0.592,,0,205,205,403,1,2b,61,1,43,
,,,,,,,,,,,,,,,,,,,,,,,,,,images/exp2a_trial_29_colour2_distractors43_l.png,l,1,038,001,2021-04-26_22h40.01.498,searchDisc4,2020.2.10,MacIntel,60,,,space,0.179,1,1,0.568,,0,206,206,257,1,2a,29,2,43,
,,,,,,,,,,,,,,,,,,,,,,,,,,images/exp1b_trial_106_colour3_distractors1_l.png,l,1,038,001,2021-04-26_22h40.01.498,searchDisc4,2020.2.10,MacIntel,60,,,space,0.18,1,1,0.732,,0,207,207,220,1,1b,106,3,1,
,,,,,,,,,,,,,,,,,,,,,,,,,,images/exp1a_trial_82_colour2_distractors1_r.png,r,2,038,001,2021-04-26_22h40.01.498,searchDisc4,2020.2.10,MacIntel,60,,,space,0.318,2,1,0.55,,0,208,208,82,1,1a,82,2,1,
,,,,,,,,,,,,,,,,,,,,,,,,,,images/exp1b_trial_66_colour2_distractors31_l.png,l,1,038,001,2021-04-26_22h40.01.498,searchDisc4,2020.2.10,MacIntel,60,,,space,0.198,1,1,0.731,,0,209,209,180,1,1b,66,2,31,
,,,,,,,,,,,,,,,,,,,,,,,,,,images/exp2b_trial_17_colour3_distractors43_r.png,r,2,038,001,2021-04-26_22h40.01.498,searchDisc4,2020.2.10,MacIntel,60,,,space,0.24,2,1,0.636,,0,210,210,359,1,2b,17,3,43,
,,,,,,,,,,,,,,,,,,,,,,,,,,images/exp1a_trial_88_colour3_distractors1_r.png,r,2,038,001,2021-04-26_22h40.01.498,searchDisc4,2020.2.10,MacIntel,60,,,space,0.239,2,1,0.57,,0,211,211,88,1,1a,88,3,1,
,,,,,,,,,,,,,,,,,,,,,,,,,,images/exp2c_trial_18_colour1_distractors1_l.png,l,1,038,001,2021-04-26_22h40.01.498,searchDisc4,2020.2.10,MacIntel,60,,,space,0.178,1,1,0.511,,0,212,212,474,1,2c,18,1,1,
,,,,,,,,,,,,,,,,,,,,,,,,,,images/exp2c_trial_42_colour1_distractors31_r.png,r,2,038,001,2021-04-26_22h40.01.498,searchDisc4,2020.2.10,MacIntel,60,,,space,0.178,2,1,0.633,,0,213,213,498,1,2c,42,1,31,
,,,,,,,,,,,,,,,,,,,,,,,,,,images/exp1b_trial_2_colour1_distractors9_r.png,r,2,038,001,2021-04-26_22h40.01.498,searchDisc4,2020.2.10,MacIntel,60,,,space,0.158,2,1,0.631,,0,214,214,116,1,1b,2,1,9,
,,,,,,,,,,,,,,,,,,,,,,,,,,images/exp2b_trial_2_colour1_distractors9_r.png,r,2,038,001,2021-04-26_22h40.01.498,searchDisc4,2020.2.10,MacIntel,60,,,space,0.179,2,1,0.529,,0,215,215,344,1,2b,2,1,9,
,,,,,,,,,,,,,,,,,,,,,,,,,,images/exp1a_trial_87_colour2_distractors43_r.png,r,2,038,001,2021-04-26_22h40.01.498,searchDisc4,2020.2.10,MacIntel,60,,,space,0.179,2,1,0.648,,0,216,216,87,1,1a,87,2,43,
,,,,,,,,,,,,,,,,,,,,,,,,,,images/exp2b_trial_79_colour1_distractors19_r.png,r,2,038,001,2021-04-26_22h40.01.498,searchDisc4,2020.2.10,MacIntel,60,,,space,0.178,2,1,0.529,,0,217,217,421,1,2b,79,1,19,
,,,,,,,,,,,,,,,,,,,,,,,,,,images/exp2a_trial_5_colour1_distractors43_r.png,r,2,038,001,2021-04-26_22h40.01.498,searchDisc4,2020.2.10,MacIntel,60,,,space,0.178,2,1,0.771,,0,218,218,233,1,2a,5,1,43,
,,,,,,,,,,,,,,,,,,,,,,,,,,images/exp2a_trial_83_colour2_distractors4_r.png,r,2,038,001,2021-04-26_22h40.01.498,searchDisc4,2020.2.10,MacIntel,60,,,space,0.158,2,1,0.552,,0,219,219,311,1,2a,83,2,4,
,,,,,,,,,,,,,,,,,,,,,,,,,,images/exp2b_trial_35_colour3_distractors43_l.png,l,1,038,001,2021-04-26_22h40.01.498,searchDisc4,2020.2.10,MacIntel,60,,,space,0.138,1,1,0.531,,0,220,220,377,1,2b,35,3,43,
,,,,,,,,,,,,,,,,,,,,,,,,,,images/exp2a_trial_50_colour3_distractors1_r.png,r,2,038,001,2021-04-26_22h40.01.498,searchDisc4,2020.2.10,MacIntel,60,,,space,0.158,2,1,0.573,,0,221,221,278,1,2a,50,3,1,
,,,,,,,,,,,,,,,,,,,,,,,,,,images/exp1a_trial_98_colour1_distractors31_l.png,l,1,038,001,2021-04-26_22h40.01.498,searchDisc4,2020.2.10,MacIntel,60,,,space,0.125,1,1,0.672,,0,222,222,98,1,1a,98,1,31,
,,,,,,,,,,,,,,,,,,,,,,,,,,images/exp2b_trial_60_colour1_distractors31_l.png,l,1,038,001,2021-04-26_22h40.01.498,searchDisc4,2020.2.10,MacIntel,60,,,space,0.238,1,1,0.529,,0,223,223,402,1,2b,60,1,31,
,,,,,,,,,,,,,,,,,,,,,,,,,,images/exp1b_trial_33_colour3_distractors19_l.png,l,1,038,001,2021-04-26_22h40.01.498,searchDisc4,2020.2.10,MacIntel,60,,,space,0.164,1,1,1.756,,0,224,224,147,1,1b,33,3,19,
,,,,,,,,,,,,,,,,,,,,,,,,,,images/exp2b_trial_0_colour1_distractors1_r.png,r,2,038,001,2021-04-26_22h40.01.498,searchDisc4,2020.2.10,MacIntel,60,,,space,0.22,2,1,0.566,,0,225,225,342,1,2b,0,1,1,
,,,,,,,,,,,,,,,,,,,,,,,,,,images/exp2a_trial_2_colour1_distractors9_r.png,r,2,038,001,2021-04-26_22h40.01.498,searchDisc4,2020.2.10,MacIntel,60,,,space,0.158,2,1,0.634,,0,226,226,230,1,2a,2,1,9,
,,,,,,,,,,,,,,,,,,,,,,,,,,images/exp1b_trial_81_colour1_distractors43_r.png,r,2,038,001,2021-04-26_22h40.01.498,searchDisc4,2020.2.10,MacIntel,60,,,space,0.18,2,1,0.65,,0,227,227,195,1,1b,81,1,43,
,,,,,,,,,,,,,,,,,,,,,,,,,,images/exp1b_trial_70_colour3_distractors9_l.png,l,1,038,001,2021-04-26_22h40.01.498,searchDisc4,2020.2.10,MacIntel,60,,,space,0.139,1,1,1.033,,0,228,228,184,1,1b,70,3,9,
,,,,,,,,,,,,,,,,,,,,,,,,,,images/exp1a_trial_6_colour2_distractors1_r.png,r,2,038,001,2021-04-26_22h40.01.498,searchDisc4,2020.2.10,MacIntel,60,,,space,0.2,2,1,0.629,,0,229,229,6,1,1a,6,2,1,
,,,,,,,,,,,,,,,,,,,,,,,,,,images/exp1b_trial_42_colour1_distractors31_r.png,r,2,038,001,2021-04-26_22h40.01.498,searchDisc4,2020.2.10,MacIntel,60,,,space,0.185,2,1,0.611,,0,230,230,156,1,1b,42,1,31,
,,,,,,,,,,,,,,,,,,,,,,,,,,images/exp2c_trial_25_colour2_distractors4_l.png,l,1,038,001,2021-04-26_22h40.01.498,searchDisc4,2020.2.10,MacIntel,60,,,space,0.201,1,1,0.531,,0,231,231,481,1,2c,25,2,4,
,,,,,,,,,,,,,,,,,,,,,,,,,,images/exp2c_trial_107_colour3_distractors4_l.png,l,1,038,001,2021-04-26_22h40.01.498,searchDisc4,2020.2.10,MacIntel,60,,,space,0.197,1,1,0.512,,0,232,232,563,1,2c,107,3,4,
,,,,,,,,,,,,,,,,,,,,,,,,,,images/exp1a_trial_54_colour3_distractors31_r.png,r,2,038,001,2021-04-26_22h40.01.498,searchDisc4,2020.2.10,MacIntel,60,,,space,0.177,2,1,0.57,,0,233,233,54,1,1a,54,3,31,
,,,,,,,,,,,,,,,,,,,,,,,,,,images/exp1b_trial_61_colour1_distractors43_l.png,l,1,038,001,2021-04-26_22h40.01.498,searchDisc4,2020.2.10,MacIntel,60,,,space,0.164,1,1,0.829,,0,234,234,175,1,1b,61,1,43,
,,,,,,,,,,,,,,,,,,,,,,,,,,images/exp2c_trial_52_colour3_distractors9_r.png,r,2,038,001,2021-04-26_22h40.01.498,searchDisc4,2020.2.10,MacIntel,60,,,space,0.198,2,1,0.611,,0,235,235,508,1,2c,52,3,9,
,,,,,,,,,,,,,,,,,,,,,,,,,,images/exp2c_trial_31_colour3_distractors4_l.png,l,1,038,001,2021-04-26_22h40.01.498,searchDisc4,2020.2.10,MacIntel,60,,,space,0.218,1,1,0.573,,0,236,236,487,1,2c,31,3,4,
,,,,,,,,,,,,,,,,,,,,,,,,,,images/exp1b_trial_77_colour1_distractors4_r.png,r,2,038,001,2021-04-26_22h40.01.498,searchDisc4,2020.2.10,MacIntel,60,,,space,0.382,2,1,0.573,,0,237,237,191,1,1b,77,1,4,
,,,,,,,,,,,,,,,,,,,,,,,,,,images/exp1b_trial_87_colour2_distractors43_r.png,r,2,038,001,2021-04-26_22h40.01.498,searchDisc4,2020.2.10,MacIntel,60,,,space,0.378,2,1,0.612,,0,238,238,201,1,1b,87,2,43,
,,,,,,,,,,,,,,,,,,,,,,,,,,images/exp2b_trial_19_colour1_distractors4_l.png,l,1,038,001,2021-04-26_22h40.01.498,searchDisc4,2020.2.10,MacIntel,60,,,space,0.199,1,1,0.711,space,0,239,239,361,1,2b,19,1,4,0.155
,,,,,,,,,,,,,,,,,,,,,,,,,,images/exp2c_trial_73_colour3_distractors43_l.png,l,1,038,001,2021-04-26_22h40.01.498,searchDisc4,2020.2.10,MacIntel,60,,,space,0.72,1,1,0.631,,0,240,240,529,1,2c,73,3,43,
,,,,,,,,,,,,,,,,,,,,,,,,,,images/exp2b_trial_111_colour3_distractors43_l.png,l,1,038,001,2021-04-26_22h40.01.498,searchDisc4,2020.2.10,MacIntel,60,,,space,0.198,1,1,0.644,,0,241,241,453,1,2b,111,3,43,
,,,,,,,,,,,,,,,,,,,,,,,,,,images/exp2a_trial_48_colour2_distractors31_r.png,r,2,038,001,2021-04-26_22h40.01.498,searchDisc4,2020.2.10,MacIntel,60,,,space,0.17,2,1,0.726,,0,242,242,276,1,2a,48,2,31,
,,,,,,,,,,,,,,,,,,,,,,,,,,images/exp2a_trial_109_colour3_distractors19_l.png,l,1,038,001,2021-04-26_22h40.01.498,searchDisc4,2020.2.10,MacIntel,60,,,space,0.177,1,1,0.586,,0,243,243,337,1,2a,109,3,19,
,,,,,,,,,,,,,,,,,,,,,,,,,,images/exp2c_trial_66_colour2_distractors31_l.png,l,1,038,001,2021-04-26_22h40.01.498,searchDisc4,2020.2.10,MacIntel,60,,,space,0.218,1,1,0.591,,0,244,244,522,1,2c,66,2,31,
,,,,,,,,,,,,,,,,,,,,,,,,,,images/exp2b_trial_28_colour2_distractors31_l.png,l,1,038,001,2021-04-26_22h40.01.498,searchDisc4,2020.2.10,MacIntel,60,,,space,0.196,1,1,0.491,,0,245,245,370,1,2b,28,2,31,
,,,,,,,,,,,,,,,,,,,,,,,,,,images/exp2b_trial_100_colour2_distractors1_l.png,l,1,038,001,2021-04-26_22h40.01.498,searchDisc4,2020.2.10,MacIntel,60,,,space,0.203,1,1,0.532,,0,246,246,442,1,2b,100,2,1,
,,,,,,,,,,,,,,,,,,,,,,,,,,images/exp2a_trial_71_colour3_distractors19_l.png,l,1,038,001,2021-04-26_22h40.01.498,searchDisc4,2020.2.10,MacIntel,60,,,space,0.181,1,1,0.588,,0,247,247,299,1,2a,71,3,19,
,,,,,,,,,,,,,,,,,,,,,,,,,,images/exp2c_trial_59_colour1_distractors19_l.png,l,1,038,001,2021-04-26_22h40.01.498,searchDisc4,2020.2.10,MacIntel,60,,,space,0.198,1,1,0.469,,0,248,248,515,1,2c,59,1,19,
,,,,,,,,,,,,,,,,,,,,,,,,,,images/exp2a_trial_37_colour0_distractors0_l.png,l,1,038,001,2021-04-26_22h40.01.498,searchDisc4,2020.2.10,MacIntel,60,,,space,0.2,1,1,0.491,,0,249,249,265,1,2a,37,0,0,
,,,,,,,,,,,,,,,,,,,,,,,,,,images/exp1b_trial_21_colour1_distractors19_l.png,l,1,038,001,2021-04-26_22h40.01.498,searchDisc4,2020.2.10,MacIntel,60,,,space,0.183,1,1,0.57,,0,250,250,135,1,1b,21,1,19,
,,,,,,,,,,,,,,,,,,,,,,,,,,images/exp2b_trial_13_colour3_distractors4_r.png,r,2,038,001,2021-04-26_22h40.01.498,searchDisc4,2020.2.10,MacIntel,60,,,space,0.158,2,1,0.55,,0,251,251,355,1,2b,13,3,4,
,,,,,,,,,,,,,,,,,,,,,,,,,,images/exp2a_trial_107_colour3_distractors4_l.png,l,1,038,001,2021-04-26_22h40.01.498,searchDisc4,2020.2.10,MacIntel,60,,,space,0.199,1,1,0.669,,0,252,252,335,1,2a,107,3,4,
,,,,,,,,,,,,,,,,,,,,,,,,,,images/exp2a_trial_12_colour3_distractors1_r.png,r,2,038,001,2021-04-26_22h40.01.498,searchDisc4,2020.2.10,MacIntel,60,,,space,0.182,1,0,0.549,,0,253,253,240,1,2a,12,3,1,
,,,,,,,,,,,,,,,,,,,,,,,,,,images/exp1a_trial_23_colour1_distractors43_l.png,l,1,038,001,2021-04-26_22h40.01.498,searchDisc4,2020.2.10,MacIntel,60,,,space,0.379,1,1,0.569,,0,254,254,23,1,1a,23,1,43,
,,,,,,,,,,,,,,,,,,,,,,,,,,images/exp2c_trial_112_colour0_distractors0_r.png,r,2,038,001,2021-04-26_22h40.01.498,searchDisc4,2020.2.10,MacIntel,60,,,space,0.178,2,1,0.573,,0,255,255,568,1,2c,112,0,0,
,,,,,,,,,,,,,,,,,,,,,,,,,,images/exp1a_trial_71_colour3_distractors19_l.png,l,1,038,001,2021-04-26_22h40.01.498,searchDisc4,2020.2.10,MacIntel,60,,,space,0.18,1,1,0.753,,0,256,256,71,1,1a,71,3,19,
,,,,,,,,,,,,,,,,,,,,,,,,,,images/exp1a_trial_11_colour2_distractors43_r.png,r,2,038,001,2021-04-26_22h40.01.498,searchDisc4,2020.2.10,MacIntel,60,,,space,0.138,2,1,0.81,,0,257,257,11,1,1a,11,2,43,
,,,,,,,,,,,,,,,,,,,,,,,,,,images/exp1a_trial_1_colour1_distractors4_r.png,r,2,038,001,2021-04-26_22h40.01.498,searchDisc4,2020.2.10,MacIntel,60,,,space,0.179,2,1,0.53,,0,258,258,1,1,1a,1,1,4,
,,,,,,,,,,,,,,,,,,,,,,,,,,images/exp2a_trial_95_colour1_distractors4_l.png,l,1,038,001,2021-04-26_22h40.01.498,searchDisc4,2020.2.10,MacIntel,60,,,space,0.158,1,1,0.614,,0,259,259,323,1,2a,95,1,4,
,,,,,,,,,,,,,,,,,,,,,,,,,,images/exp1b_trial_29_colour2_distractors43_l.png,l,1,038,001,2021-04-26_22h40.01.498,searchDisc4,2020.2.10,MacIntel,60,,,space,0.202,1,1,0.63,,0,260,260,143,1,1b,29,2,43,
,,,,,,,,,,,,,,,,,,,,,,,,,,images/exp1a_trial_28_colour2_distractors31_l.png,l,1,038,001,2021-04-26_22h40.01.498,searchDisc4,2020.2.10,MacIntel,60,,,space,0.18,1,1,0.559,,0,261,261,28,1,1a,28,2,31,
,,,,,,,,,,,,,,,,,,,,,,,,,,images/exp1a_trial_96_colour1_distractors9_l.png,l,1,038,001,2021-04-26_22h40.01.498,searchDisc4,2020.2.10,MacIntel,60,,,space,0.214,1,1,0.689,,0,262,262,96,1,1a,96,1,9,
,,,,,,,,,,,,,,,,,,,,,,,,,,images/exp1b_trial_98_colour1_distractors31_l.png,l,1,038,001,2021-04-26_22h40.01.498,searchDisc4,2020.2.10,MacIntel,60,,,space,0.179,1,1,0.53,,0,263,263,212,1,1b,98,1,31,
,,,,,,,,,,,,,,,,,,,,,,,,,,images/exp1a_trial_46_colour2_distractors9_r.png,r,2,038,001,2021-04-26_22h40.01.498,searchDisc4,2020.2.10,MacIntel,60,,,space,0.178,2,1,0.531,,0,264,264,46,1,1a,46,2,9,
,,,,,,,,,,,,,,,,,,,,,,,,,,images/exp2c_trial_70_colour3_distractors9_l.png,l,1,038,001,2021-04-26_22h40.01.498,searchDisc4,2020.2.10,MacIntel,60,,,space,0.218,1,1,0.751,,0,265,265,526,1,2c,70,3,9,
,,,,,,,,,,,,,,,,,,,,,,,,,,images/exp1a_trial_43_colour1_distractors43_r.png,r,2,038,001,2021-04-26_22h40.01.498,searchDisc4,2020.2.10,MacIntel,60,,,space,0.217,2,1,0.666,,0,266,266,43,1,1a,43,1,43,
,,,,,,,,,,,,,,,,,,,,,,,,,,images/exp1b_trial_90_colour3_distractors9_r.png,r,2,038,001,2021-04-26_22h40.01.498,searchDisc4,2020.2.10,MacIntel,60,,,space,0.178,2,1,0.669,,0,267,267,204,1,1b,90,3,9,
,,,,,,,,,,,,,,,,,,,,,,,,,,images/exp2b_trial_77_colour1_distractors4_r.png,r,2,038,001,2021-04-26_22h40.01.498,searchDisc4,2020.2.10,MacIntel,60,,,space,0.158,2,1,0.59,,0,268,268,419,1,2b,77,1,4,
,,,,,,,,,,,,,,,,,,,,,,,,,,images/exp1a_trial_48_colour2_distractors31_r.png,r,2,038,001,2021-04-26_22h40.01.498,searchDisc4,2020.2.10,MacIntel,60,,,space,0.159,2,1,0.587,,0,269,269,48,1,1a,48,2,31,
,,,,,,,,,,,,,,,,,,,,,,,,,,images/exp2a_trial_73_colour3_distractors43_l.png,l,1,038,001,2021-04-26_22h40.01.498,searchDisc4,2020.2.10,MacIntel,60,,,space,0.157,1,1,0.682,,0,270,270,301,1,2a,73,3,43,
,,,,,,,,,,,,,,,,,,,,,,,,,,images/exp1a_trial_83_colour2_distractors4_r.png,r,2,038,001,2021-04-26_22h40.01.498,searchDisc4,2020.2.10,MacIntel,60,,,space,0.16,2,1,0.651,,0,271,271,83,1,1a,83,2,4,
,,,,,,,,,,,,,,,,,,,,,,,,,,images/exp2c_trial_103_colour2_distractors19_l.png,l,1,038,001,2021-04-26_22h40.01.498,searchDisc4,2020.2.10,MacIntel,60,,,space,0.116,1,1,0.692,,0,272,272,559,1,2c,103,2,19,
,,,,,,,,,,,,,,,,,,,,,,,,,,images/exp2b_trial_48_colour2_distractors31_r.png,r,2,038,001,2021-04-26_22h40.01.498,searchDisc4,2020.2.10,MacIntel,60,,,space,0.179,2,1,0.589,,0,273,273,390,1,2b,48,2,31,
,,,,,,,,,,,,,,,,,,,,,,,,,,images/exp1a_trial_25_colour2_distractors4_l.png,l,1,038,001,2021-04-26_22h40.01.498,searchDisc4,2020.2.10,MacIntel,60,,,space,0.199,1,1,0.674,,0,274,274,25,1,1a,25,2,4,
,,,,,,,,,,,,,,,,,,,,,,,,,,images/exp2c_trial_109_colour3_distractors19_l.png,l,1,038,001,2021-04-26_22h40.01.498,searchDisc4,2020.2.10,MacIntel,60,,,space,0.219,1,1,0.732,,0,275,275,565,1,2c,109,3,19,
,,,,,,,,,,,,,,,,,,,,,,,,,,images/exp1b_trial_24_colour2_distractors1_l.png,l,1,038,001,2021-04-26_22h40.01.498,searchDisc4,2020.2.10,MacIntel,60,,,space,0.162,1,1,0.533,,0,276,276,138,1,1b,24,2,1,
,,,,,,,,,,,,,,,,,,,,,,,,,,images/exp2a_trial_113_colour0_distractors0_l.png,l,1,038,001,2021-04-26_22h40.01.498,searchDisc4,2020.2.10,MacIntel,60,,,space,0.199,1,1,0.53,,0,277,277,341,1,2a,113,0,0,
,,,,,,,,,,,,,,,,,,,,,,,,,,images/exp2c_trial_1_colour1_distractors4_r.png,r,2,038,001,2021-04-26_22h40.01.498,searchDisc4,2020.2.10,MacIntel,60,,,space,0.219,2,1,0.57,,0,278,278,457,1,2c,1,1,4,
,,,,,,,,,,,,,,,,,,,,,,,,,,images/exp2b_trial_93_colour3_distractors43_r.png,r,2,038,001,2021-04-26_22h40.01.498,searchDisc4,2020.2.10,MacIntel,60,,,space,0.202,2,1,0.611,,0,279,279,435,1,2b,93,3,43,
,,,,,,,,,,,,,,,,,,,,,,,,,,images/exp2c_trial_2_colour1_distractors9_r.png,r,2,038,001,2021-04-26_22h40.01.498,searchDisc4,2020.2.10,MacIntel,60,,,space,0.159,2,1,0.51,,0,280,280,458,1,2c,2,1,9,
,,,,,,,,,,,,,,,,,,,,,,,,,,images/exp2a_trial_51_colour3_distractors4_r.png,r,2,038,001,2021-04-26_22h40.01.498,searchDisc4,2020.2.10,MacIntel,60,,,space,0.157,2,1,0.534,,0,281,281,279,1,2a,51,3,4,
,,,,,,,,,,,,,,,,,,,,,,,,,,images/exp2a_trial_55_colour3_distractors43_r.png,r,2,038,001,2021-04-26_22h40.01.498,searchDisc4,2020.2.10,MacIntel,60,,,space,0.159,2,1,0.605,,0,282,282,283,1,2a,55,3,43,
,,,,,,,,,,,,,,,,,,,,,,,,,,images/exp2b_trial_38_colour1_distractors1_r.png,r,2,038,001,2021-04-26_22h40.01.498,searchDisc4,2020.2.10,MacIntel,60,,,space,0.2,2,1,0.48,,0,283,283,380,1,2b,38,1,1,
,,,,,,,,,,,,,,,,,,,,,,,,,,images/exp2c_trial_84_colour2_distractors9_r.png,r,2,038,001,2021-04-26_22h40.01.498,searchDisc4,2020.2.10,MacIntel,60,,,space,0.193,2,1,0.57,,0,284,284,540,1,2c,84,2,9,
,,,,,,,,,,,,,,,,,,,,,,,,,,images/exp1b_trial_10_colour2_distractors31_r.png,r,2,038,001,2021-04-26_22h40.01.498,searchDisc4,2020.2.10,MacIntel,60,,,space,0.176,2,1,0.692,,0,285,285,124,1,1b,10,2,31,
,,,,,,,,,,,,,,,,,,,,,,,,,,images/exp1a_trial_38_colour1_distractors1_r.png,r,2,038,001,2021-04-26_22h40.01.498,searchDisc4,2020.2.10,MacIntel,60,,,space,0.2,2,1,0.618,,0,286,286,38,1,1a,38,1,1,
,,,,,,,,,,,,,,,,,,,,,,,,,,images/exp2c_trial_9_colour2_distractors19_r.png,r,2,038,001,2021-04-26_22h40.01.498,searchDisc4,2020.2.10,MacIntel,60,,,space,0.199,2,1,0.552,,0,287,287,465,1,2c,9,2,19,
,,,,,,,,,,,,,,,,,,,,,,,,,,images/exp1a_trial_81_colour1_distractors43_r.png,r,2,038,001,2021-04-26_22h40.01.498,searchDisc4,2020.2.10,MacIntel,60,,,space,0.159,2,1,0.566,,0,288,288,81,1,1a,81,1,43,
,,,,,,,,,,,,,,,,,,,,,,,,,,images/exp2b_trial_26_colour2_distractors9_l.png,l,1,038,001,2021-04-26_22h40.01.498,searchDisc4,2020.2.10,MacIntel,60,,,space,0.177,1,1,0.571,,0,289,289,368,1,2b,26,2,9,
,,,,,,,,,,,,,,,,,,,,,,,,,,images/exp2a_trial_89_colour3_distractors4_r.png,r,2,038,001,2021-04-26_22h40.01.498,searchDisc4,2020.2.10,MacIntel,60,,,space,0.217,2,1,0.568,,0,290,290,317,1,2a,89,3,4,
,,,,,,,,,,,,,,,,,,,,,,,,,,images/exp1a_trial_57_colour1_distractors4_l.png,l,1,038,001,2021-04-26_22h40.01.498,searchDisc4,2020.2.10,MacIntel,60,,,space,0.219,1,1,0.589,,0,291,291,57,1,1a,57,1,4,
,,,,,,,,,,,,,,,,,,,,,,,,,,images/exp1a_trial_32_colour3_distractors9_l.png,l,1,038,001,2021-04-26_22h40.01.498,searchDisc4,2020.2.10,MacIntel,60,,,space,0.161,1,1,0.51,,0,292,292,32,1,1a,32,3,9,
,,,,,,,,,,,,,,,,,,,,,,,,,,images/exp2a_trial_31_colour3_distractors4_l.png,l,1,038,001,2021-04-26_22h40.01.498,searchDisc4,2020.2.10,MacIntel,60,,,space,0.198,1,1,0.514,,0,293,293,259,1,2a,31,3,4,
,,,,,,,,,,,,,,,,,,,,,,,,,,images/exp1a_trial_34_colour3_distractors31_l.png,l,1,038,001,2021-04-26_22h40.01.498,searchDisc4,2020.2.10,MacIntel,60,,,space,0.22,1,1,0.609,,0,294,294,34,1,1a,34,3,31,
,,,,,,,,,,,,,,,,,,,,,,,,,,images/exp2b_trial_55_colour3_distractors43_r.png,r,2,038,001,2021-04-26_22h40.01.498,searchDisc4,2020.2.10,MacIntel,60,,,space,0.199,2,1,0.615,,0,295,295,397,1,2b,55,3,43,
,,,,,,,,,,,,,,,,,,,,,,,,,,images/exp2b_trial_15_colour3_distractors19_r.png,r,2,038,001,2021-04-26_22h40.01.498,searchDisc4,2020.2.10,MacIntel,60,,,space,0.202,2,1,0.631,,0,296,296,357,1,2b,15,3,19,
,,,,,,,,,,,,,,,,,,,,,,,,,,images/exp1a_trial_14_colour3_distractors9_r.png,r,2,038,001,2021-04-26_22h40.01.498,searchDisc4,2020.2.10,MacIntel,60,,,space,0.24,2,1,0.512,,0,297,297,14,1,1a,14,3,9,
,,,,,,,,,,,,,,,,,,,,,,,,,,images/exp2c_trial_89_colour3_distractors4_r.png,r,2,038,001,2021-04-26_22h40.01.498,searchDisc4,2020.2.10,MacIntel,60,,,space,0.199,2,1,0.589,,0,298,298,545,1,2c,89,3,4,
,,,,,,,,,,,,,,,,,,,,,,,,,,images/exp2b_trial_5_colour1_distractors43_r.png,r,2,038,001,2021-04-26_22h40.01.498,searchDisc4,2020.2.10,MacIntel,60,,,space,0.201,2,1,0.531,space,0,299,299,347,1,2b,5,1,43,0.158
,,,,,,,,,,,,,,,,,,,,,,,,,,images/exp2a_trial_108_colour3_distractors9_l.png,l,1,038,001,2021-04-26_22h40.01.498,searchDisc4,2020.2.10,MacIntel,60,,,space,1.002,1,1,0.529,,0,300,300,336,1,2a,108,3,9,
,,,,,,,,,,,,,,,,,,,,,,,,,,images/exp2b_trial_4_colour1_distractors31_r.png,r,2,038,001,2021-04-26_22h40.01.498,searchDisc4,2020.2.10,MacIntel,60,,,space,0.258,2,1,0.649,,0,301,301,346,1,2b,4,1,31,
,,,,,,,,,,,,,,,,,,,,,,,,,,images/exp1a_trial_70_colour3_distractors9_l.png,l,1,038,001,2021-04-26_22h40.01.498,searchDisc4,2020.2.10,MacIntel,60,,,space,0.217,1,1,0.588,,0,302,302,70,1,1a,70,3,9,
,,,,,,,,,,,,,,,,,,,,,,,,,,images/exp1b_trial_91_colour3_distractors19_r.png,r,2,038,001,2021-04-26_22h40.01.498,searchDisc4,2020.2.10,MacIntel,60,,,space,0.203,2,1,0.896,,0,303,303,205,1,1b,91,3,19,
,,,,,,,,,,,,,,,,,,,,,,,,,,images/exp1a_trial_61_colour1_distractors43_l.png,l,1,038,001,2021-04-26_22h40.01.498,searchDisc4,2020.2.10,MacIntel,60,,,space,0.279,1,1,0.705,,0,304,304,61,1,1a,61,1,43,
,,,,,,,,,,,,,,,,,,,,,,,,,,images/exp2b_trial_92_colour3_distractors31_r.png,r,2,038,001,2021-04-26_22h40.01.498,searchDisc4,2020.2.10,MacIntel,60,,,space,0.202,2,1,0.69,,0,305,305,434,1,2b,92,3,31,
,,,,,,,,,,,,,,,,,,,,,,,,,,images/exp2c_trial_38_colour1_distractors1_r.png,r,2,038,001,2021-04-26_22h40.01.498,searchDisc4,2020.2.10,MacIntel,60,,,space,0.239,2,1,0.53,,0,306,306,494,1,2c,38,1,1,
,,,,,,,,,,,,,,,,,,,,,,,,,,images/exp1a_trial_60_colour1_distractors31_l.png,l,1,038,001,2021-04-26_22h40.01.498,searchDisc4,2020.2.10,MacIntel,60,,,space,0.157,1,1,0.526,,0,307,307,60,1,1a,60,1,31,
,,,,,,,,,,,,,,,,,,,,,,,,,,images/exp2a_trial_40_colour1_distractors9_r.png,r,2,038,001,2021-04-26_22h40.01.498,searchDisc4,2020.2.10,MacIntel,60,,,space,0.198,2,1,0.671,,0,308,308,268,1,2a,40,1,9,
,,,,,,,,,,,,,,,,,,,,,,,,,,images/exp2b_trial_84_colour2_distractors9_r.png,r,2,038,001,2021-04-26_22h40.01.498,searchDisc4,2020.2.10,MacIntel,60,,,space,0.219,2,1,0.513,,0,309,309,426,1,2b,84,2,9,
,,,,,,,,,,,,,,,,,,,,,,,,,,images/exp1a_trial_2_colour1_distractors9_r.png,r,2,038,001,2021-04-26_22h40.01.498,searchDisc4,2020.2.10,MacIntel,60,,,space,0.22,2,1,0.531,,0,310,310,2,1,1a,2,1,9,
,,,,,,,,,,,,,,,,,,,,,,,,,,images/exp1b_trial_22_colour1_distractors31_l.png,l,1,038,001,2021-04-26_22h40.01.498,searchDisc4,2020.2.10,MacIntel,60,,,space,0.222,1,1,0.752,,0,311,311,136,1,1b,22,1,31,
,,,,,,,,,,,,,,,,,,,,,,,,,,images/exp1a_trial_93_colour3_distractors43_r.png,r,2,038,001,2021-04-26_22h40.01.498,searchDisc4,2020.2.10,MacIntel,60,,,space,0.258,2,1,0.687,,0,312,312,93,1,1a,93,3,43,
,,,,,,,,,,,,,,,,,,,,,,,,,,images/exp2c_trial_75_colour0_distractors0_l.png,l,1,038,001,2021-04-26_22h40.01.498,searchDisc4,2020.2.10,MacIntel,60,,,space,0.218,1,1,0.55,,0,313,313,531,1,2c,75,0,0,
,,,,,,,,,,,,,,,,,,,,,,,,,,images/exp1b_trial_67_colour2_distractors43_l.png,l,1,038,001,2021-04-26_22h40.01.498,searchDisc4,2020.2.10,MacIntel,60,,,space,0.239,1,1,0.711,,0,314,314,181,1,1b,67,2,43,
,,,,,,,,,,,,,,,,,,,,,,,,,,images/exp2a_trial_54_colour3_distractors31_r.png,r,2,038,001,2021-04-26_22h40.01.498,searchDisc4,2020.2.10,MacIntel,60,,,space,0.262,2,1,0.626,,0,315,315,282,1,2a,54,3,31,
,,,,,,,,,,,,,,,,,,,,,,,,,,images/exp1a_trial_66_colour2_distractors31_l.png,l,1,038,001,2021-04-26_22h40.01.498,searchDisc4,2020.2.10,MacIntel,60,,,space,0.278,1,1,0.71,,0,316,316,66,1,1a,66,2,31,
,,,,,,,,,,,,,,,,,,,,,,,,,,images/exp2c_trial_95_colour1_distractors4_l.png,l,1,038,001,2021-04-26_22h40.01.498,searchDisc4,2020.2.10,MacIntel,60,,,space,0.278,1,1,0.494,,0,317,317,551,1,2c,95,1,4,
,,,,,,,,,,,,,,,,,,,,,,,,,,images/exp2a_trial_97_colour1_distractors19_l.png,l,1,038,001,2021-04-26_22h40.01.498,searchDisc4,2020.2.10,MacIntel,60,,,space,0.257,1,1,0.611,,0,318,318,325,1,2a,97,1,19,
,,,,,,,,,,,,,,,,,,,,,,,,,,images/exp2a_trial_90_colour3_distractors9_r.png,r,2,038,001,2021-04-26_22h40.01.498,searchDisc4,2020.2.10,MacIntel,60,,,space,0.242,2,1,0.57,,0,319,319,318,1,2a,90,3,9,
,,,,,,,,,,,,,,,,,,,,,,,,,,images/exp1b_trial_4_colour1_distractors31_r.png,r,2,038,001,2021-04-26_22h40.01.498,searchDisc4,2020.2.10,MacIntel,60,,,space,0.237,2,1,0.633,,0,320,320,118,1,1b,4,1,31,
,,,,,,,,,,,,,,,,,,,,,,,,,,images/exp2a_trial_19_colour1_distractors4_l.png,l,1,038,001,2021-04-26_22h40.01.498,searchDisc4,2020.2.10,MacIntel,60,,,space,0.259,1,1,0.514,,0,321,321,247,1,2a,19,1,4,
,,,,,,,,,,,,,,,,,,,,,,,,,,images/exp2c_trial_32_colour3_distractors9_l.png,l,1,038,001,2021-04-26_22h40.01.498,searchDisc4,2020.2.10,MacIntel,60,,,space,0.238,1,1,0.611,,0,322,322,488,1,2c,32,3,9,
,,,,,,,,,,,,,,,,,,,,,,,,,,images/exp2c_trial_39_colour1_distractors4_r.png,r,2,038,001,2021-04-26_22h40.01.498,searchDisc4,2020.2.10,MacIntel,60,,,space,0.199,2,1,0.531,,0,323,323,495,1,2c,39,1,4,
,,,,,,,,,,,,,,,,,,,,,,,,,,images/exp2b_trial_104_colour2_distractors31_l.png,l,1,038,001,2021-04-26_22h40.01.498,searchDisc4,2020.2.10,MacIntel,60,,,space,0.202,1,1,0.615,,0,324,324,446,1,2b,104,2,31,
,,,,,,,,,,,,,,,,,,,,,,,,,,images/exp2a_trial_110_colour3_distractors31_l.png,l,1,038,001,2021-04-26_22h40.01.498,searchDisc4,2020.2.10,MacIntel,60,,,space,0.199,1,1,0.529,,0,325,325,338,1,2a,110,3,31,
,,,,,,,,,,,,,,,,,,,,,,,,,,images/exp2c_trial_72_colour3_distractors31_l.png,l,1,038,001,2021-04-26_22h40.01.498,searchDisc4,2020.2.10,MacIntel,60,,,space,0.198,1,1,0.531,,0,326,326,528,1,2c,72,3,31,
,,,,,,,,,,,,,,,,,,,,,,,,,,images/exp1a_trial_67_colour2_distractors43_l.png,l,1,038,001,2021-04-26_22h40.01.498,searchDisc4,2020.2.10,MacIntel,60,,,space,0.178,1,1,0.883,,0,327,327,67,1,1a,67,2,43,
,,,,,,,,,,,,,,,,,,,,,,,,,,images/exp1a_trial_31_colour3_distractors4_l.png,l,1,038,001,2021-04-26_22h40.01.498,searchDisc4,2020.2.10,MacIntel,60,,,space,0.202,1,1,0.589,,0,328,328,31,1,1a,31,3,4,
,,,,,,,,,,,,,,,,,,,,,,,,,,images/exp1a_trial_64_colour2_distractors9_l.png,l,1,038,001,2021-04-26_22h40.01.498,searchDisc4,2020.2.10,MacIntel,60,,,space,0.219,1,1,0.594,,0,329,329,64,1,1a,64,2,9,
,,,,,,,,,,,,,,,,,,,,,,,,,,images/exp2b_trial_50_colour3_distractors1_r.png,r,2,038,001,2021-04-26_22h40.01.498,searchDisc4,2020.2.10,MacIntel,60,,,space,0.219,2,1,0.572,,0,330,330,392,1,2b,50,3,1,
,,,,,,,,,,,,,,,,,,,,,,,,,,images/exp1a_trial_74_colour0_distractors0_r.png,r,2,038,001,2021-04-26_22h40.01.498,searchDisc4,2020.2.10,MacIntel,60,,,space,0.197,2,1,0.515,,0,331,331,74,1,1a,74,0,0,
,,,,,,,,,,,,,,,,,,,,,,,,,,images/exp1b_trial_12_colour3_distractors1_r.png,r,2,038,001,2021-04-26_22h40.01.498,searchDisc4,2020.2.10,MacIntel,60,,,space,0.199,2,1,0.636,,0,332,332,126,1,1b,12,3,1,
,,,,,,,,,,,,,,,,,,,,,,,,,,images/exp2b_trial_76_colour1_distractors1_r.png,r,2,038,001,2021-04-26_22h40.01.498,searchDisc4,2020.2.10,MacIntel,60,,,space,0.178,2,1,0.552,,0,333,333,418,1,2b,76,1,1,
,,,,,,,,,,,,,,,,,,,,,,,,,,images/exp2b_trial_53_colour3_distractors19_r.png,r,2,038,001,2021-04-26_22h40.01.498,searchDisc4,2020.2.10,MacIntel,60,,,space,0.178,2,1,0.533,,0,334,334,395,1,2b,53,3,19,
,,,,,,,,,,,,,,,,,,,,,,,,,,images/exp1a_trial_53_colour3_distractors19_r.png,r,2,038,001,2021-04-26_22h40.01.498,searchDisc4,2020.2.10,MacIntel,60,,,space,3.257,2,1,0.619,,0,335,335,53,1,1a,53,3,19,
,,,,,,,,,,,,,,,,,,,,,,,,,,images/exp2c_trial_64_colour2_distractors9_l.png,l,1,038,001,2021-04-26_22h40.01.498,searchDisc4,2020.2.10,MacIntel,60,,,space,0.259,1,1,0.55,,0,336,336,520,1,2c,64,2,9,
,,,,,,,,,,,,,,,,,,,,,,,,,,images/exp1b_trial_80_colour1_distractors31_r.png,r,2,038,001,2021-04-26_22h40.01.498,searchDisc4,2020.2.10,MacIntel,60,,,space,0.178,2,1,0.708,,0,337,337,194,1,1b,80,1,31,
,,,,,,,,,,,,,,,,,,,,,,,,,,images/exp1b_trial_48_colour2_distractors31_r.png,r,2,038,001,2021-04-26_22h40.01.498,searchDisc4,2020.2.10,MacIntel,60,,,space,0.184,2,1,0.631,,0,338,338,162,1,1b,48,2,31,
,,,,,,,,,,,,,,,,,,,,,,,,,,images/exp2b_trial_97_colour1_distractors19_l.png,l,1,038,001,2021-04-26_22h40.01.498,searchDisc4,2020.2.10,MacIntel,60,,,space,0.176,1,1,0.518,,0,339,339,439,1,2b,97,1,19,
,,,,,,,,,,,,,,,,,,,,,,,,,,images/exp1b_trial_69_colour3_distractors4_l.png,l,1,038,001,2021-04-26_22h40.01.498,searchDisc4,2020.2.10,MacIntel,60,,,space,0.178,1,1,0.613,,0,340,340,183,1,1b,69,3,4,
,,,,,,,,,,,,,,,,,,,,,,,,,,images/exp1a_trial_47_colour2_distractors19_r.png,r,2,038,001,2021-04-26_22h40.01.498,searchDisc4,2020.2.10,MacIntel,60,,,space,0.143,1,0,0.594,,0,341,341,47,1,1a,47,2,19,
,,,,,,,,,,,,,,,,,,,,,,,,,,images/exp2b_trial_106_colour3_distractors1_l.png,l,1,038,001,2021-04-26_22h40.01.498,searchDisc4,2020.2.10,MacIntel,60,,,space,0.319,1,1,0.553,,0,342,342,448,1,2b,106,3,1,
,,,,,,,,,,,,,,,,,,,,,,,,,,images/exp1b_trial_30_colour3_distractors1_l.png,l,1,038,001,2021-04-26_22h40.01.498,searchDisc4,2020.2.10,MacIntel,60,,,space,0.164,1,1,0.596,,0,343,343,144,1,1b,30,3,1,
,,,,,,,,,,,,,,,,,,,,,,,,,,images/exp1a_trial_108_colour3_distractors9_l.png,l,1,038,001,2021-04-26_22h40.01.498,searchDisc4,2020.2.10,MacIntel,60,,,space,0.157,1,1,0.632,,0,344,344,108,1,1a,108,3,9,
,,,,,,,,,,,,,,,,,,,,,,,,,,images/exp2b_trial_112_colour0_distractors0_r.png,r,2,038,001,2021-04-26_22h40.01.498,searchDisc4,2020.2.10,MacIntel,60,,,space,0.158,2,1,0.615,,0,345,345,454,1,2b,112,0,0,
,,,,,,,,,,,,,,,,,,,,,,,,,,images/exp1a_trial_39_colour1_distractors4_r.png,r,2,038,001,2021-04-26_22h40.01.498,searchDisc4,2020.2.10,MacIntel,60,,,space,0.198,2,1,0.514,,0,346,346,39,1,1a,39,1,4,
,,,,,,,,,,,,,,,,,,,,,,,,,,images/exp2b_trial_8_colour2_distractors9_r.png,r,2,038,001,2021-04-26_22h40.01.498,searchDisc4,2020.2.10,MacIntel,60,,,space,0.138,2,1,0.575,,0,347,347,350,1,2b,8,2,9,
,,,,,,,,,,,,,,,,,,,,,,,,,,images/exp1b_trial_110_colour3_distractors31_l.png,l,1,038,001,2021-04-26_22h40.01.498,searchDisc4,2020.2.10,MacIntel,60,,,space,0.177,1,1,1.269,,0,348,348,224,1,1b,110,3,31,
,,,,,,,,,,,,,,,,,,,,,,,,,,images/exp2c_trial_8_colour2_distractors9_r.png,r,2,038,001,2021-04-26_22h40.01.498,searchDisc4,2020.2.10,MacIntel,60,,,space,0.237,2,1,0.752,,0,349,349,464,1,2c,8,2,9,
,,,,,,,,,,,,,,,,,,,,,,,,,,images/exp2c_trial_100_colour2_distractors1_l.png,l,1,038,001,2021-04-26_22h40.01.498,searchDisc4,2020.2.10,MacIntel,60,,,space,0.299,1,1,0.531,,0,350,350,556,1,2c,100,2,1,
,,,,,,,,,,,,,,,,,,,,,,,,,,images/exp2b_trial_36_colour0_distractors0_r.png,r,2,038,001,2021-04-26_22h40.01.498,searchDisc4,2020.2.10,MacIntel,60,,,space,0.339,1,0,0.576,,0,351,351,378,1,2b,36,0,0,
,,,,,,,,,,,,,,,,,,,,,,,,,,images/exp1a_trial_110_colour3_distractors31_l.png,l,1,038,001,2021-04-26_22h40.01.498,searchDisc4,2020.2.10,MacIntel,60,,,space,0.378,1,1,0.634,,0,352,352,110,1,1a,110,3,31,
,,,,,,,,,,,,,,,,,,,,,,,,,,images/exp1a_trial_24_colour2_distractors1_l.png,l,1,038,001,2021-04-26_22h40.01.498,searchDisc4,2020.2.10,MacIntel,60,,,space,0.159,1,1,0.61,,0,353,353,24,1,1a,24,2,1,
,,,,,,,,,,,,,,,,,,,,,,,,,,images/exp1b_trial_37_colour0_distractors0_l.png,l,1,038,001,2021-04-26_22h40.01.498,searchDisc4,2020.2.10,MacIntel,60,,,space,0.218,1,1,0.532,,0,354,354,151,1,1b,37,0,0,
,,,,,,,,,,,,,,,,,,,,,,,,,,images/exp2c_trial_87_colour2_distractors43_r.png,r,2,038,001,2021-04-26_22h40.01.498,searchDisc4,2020.2.10,MacIntel,60,,,space,0.16,2,1,0.573,,0,355,355,543,1,2c,87,2,43,
,,,,,,,,,,,,,,,,,,,,,,,,,,images/exp2a_trial_27_colour2_distractors19_l.png,l,1,038,001,2021-04-26_22h40.01.498,searchDisc4,2020.2.10,MacIntel,60,,,space,0.159,1,1,0.667,,0,356,356,255,1,2a,27,2,19,
,,,,,,,,,,,,,,,,,,,,,,,,,,images/exp2a_trial_35_colour3_distractors43_l.png,l,1,038,001,2021-04-26_22h40.01.498,searchDisc4,2020.2.10,MacIntel,60,,,space,0.178,1,1,0.584,,0,357,357,263,1,2a,35,3,43,
,,,,,,,,,,,,,,,,,,,,,,,,,,images/exp2b_trial_47_colour2_distractors19_r.png,r,2,038,001,2021-04-26_22h40.01.498,searchDisc4,2020.2.10,MacIntel,60,,,space,0.157,2,1,0.592,,0,358,358,389,1,2b,47,2,19,
,,,,,,,,,,,,,,,,,,,,,,,,,,images/exp2b_trial_87_colour2_distractors43_r.png,r,2,038,001,2021-04-26_22h40.01.498,searchDisc4,2020.2.10,MacIntel,60,,,space,0.338,2,1,0.632,space,0,359,359,429,1,2b,87,2,43,4.798
,,,,,,,,,,,,,,,,,,,,,,,,,,images/exp2b_trial_40_colour1_distractors9_r.png,r,2,038,001,2021-04-26_22h40.01.498,searchDisc4,2020.2.10,MacIntel,60,,,space,0.701,2,1,0.515,,0,360,360,382,1,2b,40,1,9,
,,,,,,,,,,,,,,,,,,,,,,,,,,images/exp2b_trial_67_colour2_distractors43_l.png,l,1,038,001,2021-04-26_22h40.01.498,searchDisc4,2020.2.10,MacIntel,60,,,space,0.259,1,1,0.532,,0,361,361,409,1,2b,67,2,43,
,,,,,,,,,,,,,,,,,,,,,,,,,,images/exp2b_trial_62_colour2_distractors1_l.png,l,1,038,001,2021-04-26_22h40.01.498,searchDisc4,2020.2.10,MacIntel,60,,,space,0.199,1,1,0.493,,0,362,362,404,1,2b,62,2,1,
,,,,,,,,,,,,,,,,,,,,,,,,,,images/exp2a_trial_20_colour1_distractors9_l.png,l,1,038,001,2021-04-26_22h40.01.498,searchDisc4,2020.2.10,MacIntel,60,,,space,0.199,1,1,0.571,,0,363,363,248,1,2a,20,1,9,
,,,,,,,,,,,,,,,,,,,,,,,,,,images/exp1b_trial_104_colour2_distractors31_l.png,l,1,038,001,2021-04-26_22h40.01.498,searchDisc4,2020.2.10,MacIntel,60,,,space,0.164,1,1,0.672,,0,364,364,218,1,1b,104,2,31,
,,,,,,,,,,,,,,,,,,,,,,,,,,images/exp2c_trial_21_colour1_distractors19_l.png,l,1,038,001,2021-04-26_22h40.01.498,searchDisc4,2020.2.10,MacIntel,60,,,space,0.197,1,1,0.513,,0,365,365,477,1,2c,21,1,19,
,,,,,,,,,,,,,,,,,,,,,,,,,,images/exp2b_trial_78_colour1_distractors9_r.png,r,2,038,001,2021-04-26_22h40.01.498,searchDisc4,2020.2.10,MacIntel,60,,,space,0.18,2,1,0.533,,0,366,366,420,1,2b,78,1,9,
,,,,,,,,,,,,,,,,,,,,,,,,,,images/exp2a_trial_96_colour1_distractors9_l.png,l,1,038,001,2021-04-26_22h40.01.498,searchDisc4,2020.2.10,MacIntel,60,,,space,0.197,1,1,0.551,,0,367,367,324,1,2a,96,1,9,
,,,,,,,,,,,,,,,,,,,,,,,,,,images/exp1b_trial_35_colour3_distractors43_l.png,l,1,038,001,2021-04-26_22h40.01.498,searchDisc4,2020.2.10,MacIntel,60,,,space,0.258,1,1,2.549,,0,368,368,149,1,1b,35,3,43,
,,,,,,,,,,,,,,,,,,,,,,,,,,images/exp1a_trial_8_colour2_distractors9_r.png,r,2,038,001,2021-04-26_22h40.01.498,searchDisc4,2020.2.10,MacIntel,60,,,space,0.257,2,1,0.611,,0,369,369,8,1,1a,8,2,9,
,,,,,,,,,,,,,,,,,,,,,,,,,,images/exp2a_trial_23_colour1_distractors43_l.png,l,1,038,001,2021-04-26_22h40.01.498,searchDisc4,2020.2.10,MacIntel,60,,,space,0.219,1,1,0.61,,0,370,370,251,1,2a,23,1,43,
,,,,,,,,,,,,,,,,,,,,,,,,,,images/exp2a_trial_88_colour3_distractors1_r.png,r,2,038,001,2021-04-26_22h40.01.498,searchDisc4,2020.2.10,MacIntel,60,,,space,0.219,2,1,0.592,,0,371,371,316,1,2a,88,3,1,
,,,,,,,,,,,,,,,,,,,,,,,,,,images/exp1b_trial_58_colour1_distractors9_l.png,l,1,038,001,2021-04-26_22h40.01.498,searchDisc4,2020.2.10,MacIntel,60,,,space,0.203,1,1,0.633,,0,372,372,172,1,1b,58,1,9,
,,,,,,,,,,,,,,,,,,,,,,,,,,images/exp2a_trial_103_colour2_distractors19_l.png,l,1,038,001,2021-04-26_22h40.01.498,searchDisc4,2020.2.10,MacIntel,60,,,space,0.203,1,1,0.55,,0,373,373,331,1,2a,103,2,19,
,,,,,,,,,,,,,,,,,,,,,,,,,,images/exp1b_trial_45_colour2_distractors4_r.png,r,2,038,001,2021-04-26_22h40.01.498,searchDisc4,2020.2.10,MacIntel,60,,,space,0.218,2,1,0.59,,0,374,374,159,1,1b,45,2,4,
,,,,,,,,,,,,,,,,,,,,,,,,,,images/exp2c_trial_17_colour3_distractors43_r.png,r,2,038,001,2021-04-26_22h40.01.498,searchDisc4,2020.2.10,MacIntel,60,,,space,0.218,2,1,0.553,,0,375,375,473,1,2c,17,3,43,
,,,,,,,,,,,,,,,,,,,,,,,,,,images/exp2b_trial_51_colour3_distractors4_r.png,r,2,038,001,2021-04-26_22h40.01.498,searchDisc4,2020.2.10,MacIntel,60,,,space,0.217,2,1,0.549,,0,376,376,393,1,2b,51,3,4,
,,,,,,,,,,,,,,,,,,,,,,,,,,images/exp1b_trial_18_colour1_distractors1_l.png,l,1,038,001,2021-04-26_22h40.01.498,searchDisc4,2020.2.10,MacIntel,60,,,space,0.202,2,0,0.533,,0,377,377,132,1,1b,18,1,1,
,,,,,,,,,,,,,,,,,,,,,,,,,,images/exp2b_trial_95_colour1_distractors4_l.png,l,1,038,001,2021-04-26_22h40.01.498,searchDisc4,2020.2.10,MacIntel,60,,,space,0.278,1,1,0.551,,0,378,378,437,1,2b,95,1,4,
,,,,,,,,,,,,,,,,,,,,,,,,,,images/exp2a_trial_84_colour2_distractors9_r.png,r,2,038,001,2021-04-26_22h40.01.498,searchDisc4,2020.2.10,MacIntel,60,,,space,0.218,2,1,0.589,,0,379,379,312,1,2a,84,2,9,
,,,,,,,,,,,,,,,,,,,,,,,,,,images/exp1b_trial_95_colour1_distractors4_l.png,l,1,038,001,2021-04-26_22h40.01.498,searchDisc4,2020.2.10,MacIntel,60,,,space,0.158,1,1,0.63,,0,380,380,209,1,1b,95,1,4,
,,,,,,,,,,,,,,,,,,,,,,,,,,images/exp2b_trial_9_colour2_distractors19_r.png,r,2,038,001,2021-04-26_22h40.01.498,searchDisc4,2020.2.10,MacIntel,60,,,space,0.2,2,1,0.65,,0,381,381,351,1,2b,9,2,19,
,,,,,,,,,,,,,,,,,,,,,,,,,,images/exp1b_trial_0_colour1_distractors1_r.png,r,2,038,001,2021-04-26_22h40.01.498,searchDisc4,2020.2.10,MacIntel,60,,,space,0.198,2,1,0.474,,0,382,382,114,1,1b,0,1,1,
,,,,,,,,,,,,,,,,,,,,,,,,,,images/exp1a_trial_104_colour2_distractors31_l.png,l,1,038,001,2021-04-26_22h40.01.498,searchDisc4,2020.2.10,MacIntel,60,,,space,0.22,1,1,0.512,,0,383,383,104,1,1a,104,2,31,
,,,,,,,,,,,,,,,,,,,,,,,,,,images/exp2b_trial_63_colour2_distractors4_l.png,l,1,038,001,2021-04-26_22h40.01.498,searchDisc4,2020.2.10,MacIntel,60,,,space,0.18,1,1,0.571,,0,384,384,405,1,2b,63,2,4,
,,,,,,,,,,,,,,,,,,,,,,,,,,images/exp2c_trial_33_colour3_distractors19_l.png,l,1,038,001,2021-04-26_22h40.01.498,searchDisc4,2020.2.10,MacIntel,60,,,space,0.199,1,1,0.513,,0,385,385,489,1,2c,33,3,19,
,,,,,,,,,,,,,,,,,,,,,,,,,,images/exp2c_trial_13_colour3_distractors4_r.png,r,2,038,001,2021-04-26_22h40.01.498,searchDisc4,2020.2.10,MacIntel,60,,,space,0.178,2,1,0.635,,0,386,386,469,1,2c,13,3,4,
,,,,,,,,,,,,,,,,,,,,,,,,,,images/exp2a_trial_82_colour2_distractors1_r.png,r,2,038,001,2021-04-26_22h40.01.498,searchDisc4,2020.2.10,MacIntel,60,,,space,0.238,2,1,0.53,,0,387,387,310,1,2a,82,2,1,
,,,,,,,,,,,,,,,,,,,,,,,,,,images/exp2c_trial_85_colour2_distractors19_r.png,r,2,038,001,2021-04-26_22h40.01.498,searchDisc4,2020.2.10,MacIntel,60,,,space,0.177,2,1,0.713,,0,388,388,541,1,2c,85,2,19,
,,,,,,,,,,,,,,,,,,,,,,,,,,images/exp1b_trial_51_colour3_distractors4_r.png,r,2,038,001,2021-04-26_22h40.01.498,searchDisc4,2020.2.10,MacIntel,60,,,space,0.219,2,1,0.517,,0,389,389,165,1,1b,51,3,4,
,,,,,,,,,,,,,,,,,,,,,,,,,,images/exp2b_trial_23_colour1_distractors43_l.png,l,1,038,001,2021-04-26_22h40.01.498,searchDisc4,2020.2.10,MacIntel,60,,,space,0.239,1,1,0.549,,0,390,390,365,1,2b,23,1,43,
,,,,,,,,,,,,,,,,,,,,,,,,,,images/exp1b_trial_17_colour3_distractors43_r.png,r,2,038,001,2021-04-26_22h40.01.498,searchDisc4,2020.2.10,MacIntel,60,,,space,0.221,2,1,0.69,,0,391,391,131,1,1b,17,3,43,
,,,,,,,,,,,,,,,,,,,,,,,,,,images/exp1b_trial_99_colour1_distractors43_l.png,l,1,038,001,2021-04-26_22h40.01.498,searchDisc4,2020.2.10,MacIntel,60,,,space,0.204,1,1,0.691,,0,392,392,213,1,1b,99,1,43,
,,,,,,,,,,,,,,,,,,,,,,,,,,images/exp1a_trial_35_colour3_distractors43_l.png,l,1,038,001,2021-04-26_22h40.01.498,searchDisc4,2020.2.10,MacIntel,60,,,space,0.258,1,1,0.649,,0,393,393,35,1,1a,35,3,43,
,,,,,,,,,,,,,,,,,,,,,,,,,,images/exp2a_trial_4_colour1_distractors31_r.png,r,2,038,001,2021-04-26_22h40.01.498,searchDisc4,2020.2.10,MacIntel,60,,,space,0.279,2,1,0.611,,0,394,394,232,1,2a,4,1,31,
,,,,,,,,,,,,,,,,,,,,,,,,,,images/exp2c_trial_61_colour1_distractors43_l.png,l,1,038,001,2021-04-26_22h40.01.498,searchDisc4,2020.2.10,MacIntel,60,,,space,0.259,1,1,0.666,,0,395,395,517,1,2c,61,1,43,
,,,,,,,,,,,,,,,,,,,,,,,,,,images/exp2c_trial_45_colour2_distractors4_r.png,r,2,038,001,2021-04-26_22h40.01.498,searchDisc4,2020.2.10,MacIntel,60,,,space,0.206,2,1,0.591,,0,396,396,501,1,2c,45,2,4,
,,,,,,,,,,,,,,,,,,,,,,,,,,images/exp2c_trial_62_colour2_distractors1_l.png,l,1,038,001,2021-04-26_22h40.01.498,searchDisc4,2020.2.10,MacIntel,60,,,space,0.239,2,0,0.609,,0,397,397,518,1,2c,62,2,1,
,,,,,,,,,,,,,,,,,,,,,,,,,,images/exp2b_trial_49_colour2_distractors43_r.png,r,2,038,001,2021-04-26_22h40.01.498,searchDisc4,2020.2.10,MacIntel,60,,,space,0.338,2,1,0.615,,0,398,398,391,1,2b,49,2,43,
,,,,,,,,,,,,,,,,,,,,,,,,,,images/exp1a_trial_63_colour2_distractors4_l.png,l,1,038,001,2021-04-26_22h40.01.498,searchDisc4,2020.2.10,MacIntel,60,,,space,0.256,1,1,0.93,,0,399,399,63,1,1a,63,2,4,
,,,,,,,,,,,,,,,,,,,,,,,,,,images/exp2b_trial_1_colour1_distractors4_r.png,r,2,038,001,2021-04-26_22h40.01.498,searchDisc4,2020.2.10,MacIntel,60,,,space,0.283,2,1,0.612,,0,400,400,343,1,2b,1,1,4,
,,,,,,,,,,,,,,,,,,,,,,,,,,images/exp1a_trial_102_colour2_distractors9_l.png,l,1,038,001,2021-04-26_22h40.01.498,searchDisc4,2020.2.10,MacIntel,60,,,space,0.22,1,1,0.811,,0,401,401,102,1,1a,102,2,9,
,,,,,,,,,,,,,,,,,,,,,,,,,,images/exp1b_trial_86_colour2_distractors31_r.png,r,2,038,001,2021-04-26_22h40.01.498,searchDisc4,2020.2.10,MacIntel,60,,,space,0.219,2,1,0.811,,0,402,402,200,1,1b,86,2,31,
,,,,,,,,,,,,,,,,,,,,,,,,,,images/exp2c_trial_99_colour1_distractors43_l.png,l,1,038,001,2021-04-26_22h40.01.498,searchDisc4,2020.2.10,MacIntel,60,,,space,0.219,1,1,0.651,,0,403,403,555,1,2c,99,1,43,
,,,,,,,,,,,,,,,,,,,,,,,,,,images/exp1a_trial_45_colour2_distractors4_r.png,r,2,038,001,2021-04-26_22h40.01.498,searchDisc4,2020.2.10,MacIntel,60,,,space,0.237,2,1,0.676,,0,404,404,45,1,1a,45,2,4,
,,,,,,,,,,,,,,,,,,,,,,,,,,images/exp2c_trial_79_colour1_distractors19_r.png,r,2,038,001,2021-04-26_22h40.01.498,searchDisc4,2020.2.10,MacIntel,60,,,space,0.299,2,1,0.556,,0,405,405,535,1,2c,79,1,19,
,,,,,,,,,,,,,,,,,,,,,,,,,,images/exp2b_trial_71_colour3_distractors19_l.png,l,1,038,001,2021-04-26_22h40.01.498,searchDisc4,2020.2.10,MacIntel,60,,,space,0.179,1,1,0.809,,0,406,406,413,1,2b,71,3,19,
,,,,,,,,,,,,,,,,,,,,,,,,,,images/exp2b_trial_43_colour1_distractors43_r.png,r,2,038,001,2021-04-26_22h40.01.498,searchDisc4,2020.2.10,MacIntel,60,,,space,0.239,2,1,0.671,,0,407,407,385,1,2b,43,1,43,
,,,,,,,,,,,,,,,,,,,,,,,,,,images/exp1b_trial_13_colour3_distractors4_r.png,r,2,038,001,2021-04-26_22h40.01.498,searchDisc4,2020.2.10,MacIntel,60,,,space,0.199,2,1,0.851,,0,408,408,127,1,1b,13,3,4,
,,,,,,,,,,,,,,,,,,,,,,,,,,images/exp1a_trial_0_colour1_distractors1_r.png,r,2,038,001,2021-04-26_22h40.01.498,searchDisc4,2020.2.10,MacIntel,60,,,space,0.222,2,1,0.691,,0,409,409,0,1,1a,0,1,1,
,,,,,,,,,,,,,,,,,,,,,,,,,,images/exp2c_trial_19_colour1_distractors4_l.png,l,1,038,001,2021-04-26_22h40.01.498,searchDisc4,2020.2.10,MacIntel,60,,,space,0.219,1,1,0.61,,0,410,410,475,1,2c,19,1,4,
,,,,,,,,,,,,,,,,,,,,,,,,,,images/exp2b_trial_86_colour2_distractors31_r.png,r,2,038,001,2021-04-26_22h40.01.498,searchDisc4,2020.2.10,MacIntel,60,,,space,0.221,2,1,0.574,,0,411,411,428,1,2b,86,2,31,
,,,,,,,,,,,,,,,,,,,,,,,,,,images/exp2c_trial_76_colour1_distractors1_r.png,r,2,038,001,2021-04-26_22h40.01.498,searchDisc4,2020.2.10,MacIntel,60,,,space,0.198,2,1,0.531,,0,412,412,532,1,2c,76,1,1,
,,,,,,,,,,,,,,,,,,,,,,,,,,images/exp2a_trial_68_colour3_distractors1_l.png,l,1,038,001,2021-04-26_22h40.01.498,searchDisc4,2020.2.10,MacIntel,60,,,space,0.282,1,1,0.533,,0,413,413,296,1,2a,68,3,1,
,,,,,,,,,,,,,,,,,,,,,,,,,,images/exp2c_trial_0_colour1_distractors1_r.png,r,2,038,001,2021-04-26_22h40.01.498,searchDisc4,2020.2.10,MacIntel,60,,,space,0.218,2,1,0.551,,0,414,414,456,1,2c,0,1,1,
,,,,,,,,,,,,,,,,,,,,,,,,,,images/exp2b_trial_14_colour3_distractors9_r.png,r,2,038,001,2021-04-26_22h40.01.498,searchDisc4,2020.2.10,MacIntel,60,,,space,0.178,2,1,0.611,,0,415,415,356,1,2b,14,3,9,
,,,,,,,,,,,,,,,,,,,,,,,,,,images/exp2c_trial_14_colour3_distractors9_r.png,r,2,038,001,2021-04-26_22h40.01.498,searchDisc4,2020.2.10,MacIntel,60,,,space,0.199,2,1,0.708,,0,416,416,470,1,2c,14,3,9,
,,,,,,,,,,,,,,,,,,,,,,,,,,images/exp2b_trial_52_colour3_distractors9_r.png,r,2,038,001,2021-04-26_22h40.01.498,searchDisc4,2020.2.10,MacIntel,60,,,space,0.218,2,1,0.631,,0,417,417,394,1,2b,52,3,9,
,,,,,,,,,,,,,,,,,,,,,,,,,,images/exp1b_trial_105_colour2_distractors43_l.png,l,1,038,001,2021-04-26_22h40.01.498,searchDisc4,2020.2.10,MacIntel,60,,,space,0.22,1,1,0.59,,0,418,418,219,1,1b,105,2,43,
,,,,,,,,,,,,,,,,,,,,,,,,,,images/exp2b_trial_34_colour3_distractors31_l.png,l,1,038,001,2021-04-26_22h40.01.498,searchDisc4,2020.2.10,MacIntel,60,,,space,0.218,1,1,0.671,space,0,419,419,376,1,2b,34,3,31,0.213
,,,,,,,,,,,,,,,,,,,,,,,,,,images/exp2c_trial_44_colour2_distractors1_r.png,r,2,038,001,2021-04-26_22h40.01.498,searchDisc4,2020.2.10,MacIntel,60,,,space,0.739,2,1,0.59,,0,420,420,500,1,2c,44,2,1,
,,,,,,,,,,,,,,,,,,,,,,,,,,images/exp2a_trial_64_colour2_distractors9_l.png,l,1,038,001,2021-04-26_22h40.01.498,searchDisc4,2020.2.10,MacIntel,60,,,space,0.198,1,1,0.549,,0,421,421,292,1,2a,64,2,9,
,,,,,,,,,,,,,,,,,,,,,,,,,,images/exp2a_trial_58_colour1_distractors9_l.png,l,1,038,001,2021-04-26_22h40.01.498,searchDisc4,2020.2.10,MacIntel,60,,,space,0.198,1,1,0.59,,0,422,422,286,1,2a,58,1,9,
,,,,,,,,,,,,,,,,,,,,,,,,,,images/exp2c_trial_54_colour3_distractors31_r.png,r,2,038,001,2021-04-26_22h40.01.498,searchDisc4,2020.2.10,MacIntel,60,,,space,0.237,2,1,0.553,,0,423,423,510,1,2c,54,3,31,
,,,,,,,,,,,,,,,,,,,,,,,,,,images/exp2c_trial_49_colour2_distractors43_r.png,r,2,038,001,2021-04-26_22h40.01.498,searchDisc4,2020.2.10,MacIntel,60,,,space,0.224,2,1,0.552,,0,424,424,505,1,2c,49,2,43,
,,,,,,,,,,,,,,,,,,,,,,,,,,images/exp1b_trial_65_colour2_distractors19_l.png,l,1,038,001,2021-04-26_22h40.01.498,searchDisc4,2020.2.10,MacIntel,60,,,space,0.221,1,1,0.592,,0,425,425,179,1,1b,65,2,19,
,,,,,,,,,,,,,,,,,,,,,,,,,,images/exp2a_trial_46_colour2_distractors9_r.png,r,2,038,001,2021-04-26_22h40.01.498,searchDisc4,2020.2.10,MacIntel,60,,,space,0.197,2,1,0.55,,0,426,426,274,1,2a,46,2,9,
,,,,,,,,,,,,,,,,,,,,,,,,,,images/exp1a_trial_59_colour1_distractors19_l.png,l,1,038,001,2021-04-26_22h40.01.498,searchDisc4,2020.2.10,MacIntel,60,,,space,0.217,1,1,0.53,,0,427,427,59,1,1a,59,1,19,
,,,,,,,,,,,,,,,,,,,,,,,,,,images/exp2a_trial_80_colour1_distractors31_r.png,r,2,038,001,2021-04-26_22h40.01.498,searchDisc4,2020.2.10,MacIntel,60,,,space,0.337,2,1,0.613,,0,428,428,308,1,2a,80,1,31,
,,,,,,,,,,,,,,,,,,,,,,,,,,images/exp2c_trial_47_colour2_distractors19_r.png,r,2,038,001,2021-04-26_22h40.01.498,searchDisc4,2020.2.10,MacIntel,60,,,space,0.157,2,1,0.615,,0,429,429,503,1,2c,47,2,19,
,,,,,,,,,,,,,,,,,,,,,,,,,,images/exp2b_trial_31_colour3_distractors4_l.png,l,1,038,001,2021-04-26_22h40.01.498,searchDisc4,2020.2.10,MacIntel,60,,,space,0.119,1,1,0.672,,0,430,430,373,1,2b,31,3,4,
,,,,,,,,,,,,,,,,,,,,,,,,,,images/exp2c_trial_97_colour1_distractors19_l.png,l,1,038,001,2021-04-26_22h40.01.498,searchDisc4,2020.2.10,MacIntel,60,,,space,0.119,1,1,0.649,,0,431,431,553,1,2c,97,1,19,
,,,,,,,,,,,,,,,,,,,,,,,,,,images/exp1a_trial_17_colour3_distractors43_r.png,r,2,038,001,2021-04-26_22h40.01.498,searchDisc4,2020.2.10,MacIntel,60,,,space,0.199,2,1,0.568,,0,432,432,17,1,1a,17,3,43,
,,,,,,,,,,,,,,,,,,,,,,,,,,images/exp2b_trial_56_colour1_distractors1_l.png,l,1,038,001,2021-04-26_22h40.01.498,searchDisc4,2020.2.10,MacIntel,60,,,space,0.119,1,1,0.552,,0,433,433,398,1,2b,56,1,1,
,,,,,,,,,,,,,,,,,,,,,,,,,,images/exp1b_trial_34_colour3_distractors31_l.png,l,1,038,001,2021-04-26_22h40.01.498,searchDisc4,2020.2.10,MacIntel,60,,,space,0.138,1,1,0.591,,0,434,434,148,1,1b,34,3,31,
,,,,,,,,,,,,,,,,,,,,,,,,,,images/exp1b_trial_6_colour2_distractors1_r.png,r,2,038,001,2021-04-26_22h40.01.498,searchDisc4,2020.2.10,MacIntel,60,,,space,0.08,2,1,0.591,,0,435,435,120,1,1b,6,2,1,
,,,,,,,,,,,,,,,,,,,,,,,,,,images/exp2a_trial_77_colour1_distractors4_r.png,r,2,038,001,2021-04-26_22h40.01.498,searchDisc4,2020.2.10,MacIntel,60,,,space,0.118,2,1,0.518,,0,436,436,305,1,2a,77,1,4,
,,,,,,,,,,,,,,,,,,,,,,,,,,images/exp1a_trial_95_colour1_distractors4_l.png,l,1,038,001,2021-04-26_22h40.01.498,searchDisc4,2020.2.10,MacIntel,60,,,space,0.115,1,1,0.571,,0,437,437,95,1,1a,95,1,4,
,,,,,,,,,,,,,,,,,,,,,,,,,,images/exp1a_trial_30_colour3_distractors1_l.png,l,1,038,001,2021-04-26_22h40.01.498,searchDisc4,2020.2.10,MacIntel,60,,,space,0.098,1,1,0.49,,0,438,438,30,1,1a,30,3,1,
,,,,,,,,,,,,,,,,,,,,,,,,,,images/exp1b_trial_36_colour0_distractors0_r.png,r,2,038,001,2021-04-26_22h40.01.498,searchDisc4,2020.2.10,MacIntel,60,,,space,0.142,2,1,0.512,,0,439,439,150,1,1b,36,0,0,
,,,,,,,,,,,,,,,,,,,,,,,,,,images/exp2c_trial_83_colour2_distractors4_r.png,r,2,038,001,2021-04-26_22h40.01.498,searchDisc4,2020.2.10,MacIntel,60,,,space,0.122,2,1,0.533,,0,440,440,539,1,2c,83,2,4,
,,,,,,,,,,,,,,,,,,,,,,,,,,images/exp2b_trial_58_colour1_distractors9_l.png,l,1,038,001,2021-04-26_22h40.01.498,searchDisc4,2020.2.10,MacIntel,60,,,space,0.14,1,1,0.533,,0,441,441,400,1,2b,58,1,9,
,,,,,,,,,,,,,,,,,,,,,,,,,,images/exp2a_trial_91_colour3_distractors19_r.png,r,2,038,001,2021-04-26_22h40.01.498,searchDisc4,2020.2.10,MacIntel,60,,,space,0.162,2,1,0.547,,0,442,442,319,1,2a,91,3,19,
,,,,,,,,,,,,,,,,,,,,,,,,,,images/exp2c_trial_111_colour3_distractors43_l.png,l,1,038,001,2021-04-26_22h40.01.498,searchDisc4,2020.2.10,MacIntel,60,,,space,0.199,1,1,0.654,,0,443,443,567,1,2c,111,3,43,
,,,,,,,,,,,,,,,,,,,,,,,,,,images/exp2a_trial_41_colour1_distractors19_r.png,r,2,038,001,2021-04-26_22h40.01.498,searchDisc4,2020.2.10,MacIntel,60,,,space,0.199,2,1,0.614,,0,444,444,269,1,2a,41,1,19,
,,,,,,,,,,,,,,,,,,,,,,,,,,images/exp1b_trial_64_colour2_distractors9_l.png,l,1,038,001,2021-04-26_22h40.01.498,searchDisc4,2020.2.10,MacIntel,60,,,space,0.218,1,1,0.811,,0,445,445,178,1,1b,64,2,9,
,,,,,,,,,,,,,,,,,,,,,,,,,,images/exp2b_trial_22_colour1_distractors31_l.png,l,1,038,001,2021-04-26_22h40.01.498,searchDisc4,2020.2.10,MacIntel,60,,,space,0.275,1,1,0.701,,0,446,446,364,1,2b,22,1,31,
,,,,,,,,,,,,,,,,,,,,,,,,,,images/exp2a_trial_112_colour0_distractors0_r.png,r,2,038,001,2021-04-26_22h40.01.498,searchDisc4,2020.2.10,MacIntel,60,,,space,0.239,2,1,0.531,,0,447,447,340,1,2a,112,0,0,
,,,,,,,,,,,,,,,,,,,,,,,,,,images/exp1b_trial_8_colour2_distractors9_r.png,r,2,038,001,2021-04-26_22h40.01.498,searchDisc4,2020.2.10,MacIntel,60,,,space,0.297,2,1,0.511,,0,448,448,122,1,1b,8,2,9,
,,,,,,,,,,,,,,,,,,,,,,,,,,images/exp2c_trial_3_colour1_distractors19_r.png,r,2,038,001,2021-04-26_22h40.01.498,searchDisc4,2020.2.10,MacIntel,60,,,space,0.218,2,1,0.594,,0,449,449,459,1,2c,3,1,19,
,,,,,,,,,,,,,,,,,,,,,,,,,,images/exp2c_trial_113_colour0_distractors0_l.png,l,1,038,001,2021-04-26_22h40.01.498,searchDisc4,2020.2.10,MacIntel,60,,,space,0.239,1,1,0.512,,0,450,450,569,1,2c,113,0,0,
,,,,,,,,,,,,,,,,,,,,,,,,,,images/exp2a_trial_67_colour2_distractors43_l.png,l,1,038,001,2021-04-26_22h40.01.498,searchDisc4,2020.2.10,MacIntel,60,,,space,0.258,1,1,0.586,,0,451,451,295,1,2a,67,2,43,
,,,,,,,,,,,,,,,,,,,,,,,,,,images/exp2c_trial_34_colour3_distractors31_l.png,l,1,038,001,2021-04-26_22h40.01.498,searchDisc4,2020.2.10,MacIntel,60,,,space,0.259,1,1,0.509,,0,452,452,490,1,2c,34,3,31,
,,,,,,,,,,,,,,,,,,,,,,,,,,images/exp2b_trial_98_colour1_distractors31_l.png,l,1,038,001,2021-04-26_22h40.01.498,searchDisc4,2020.2.10,MacIntel,60,,,space,0.239,1,1,0.588,,0,453,453,440,1,2b,98,1,31,
,,,,,,,,,,,,,,,,,,,,,,,,,,images/exp2a_trial_15_colour3_distractors19_r.png,r,2,038,001,2021-04-26_22h40.01.498,searchDisc4,2020.2.10,MacIntel,60,,,space,0.221,2,1,0.691,,0,454,454,243,1,2a,15,3,19,
,,,,,,,,,,,,,,,,,,,,,,,,,,images/exp2c_trial_36_colour0_distractors0_r.png,r,2,038,001,2021-04-26_22h40.01.498,searchDisc4,2020.2.10,MacIntel,60,,,space,0.245,2,1,0.512,,0,455,455,492,1,2c,36,0,0,
,,,,,,,,,,,,,,,,,,,,,,,,,,images/exp1b_trial_46_colour2_distractors9_r.png,r,2,038,001,2021-04-26_22h40.01.498,searchDisc4,2020.2.10,MacIntel,60,,,space,0.221,2,1,0.532,,0,456,456,160,1,1b,46,2,9,
,,,,,,,,,,,,,,,,,,,,,,,,,,images/exp2a_trial_47_colour2_distractors19_r.png,r,2,038,001,2021-04-26_22h40.01.498,searchDisc4,2020.2.10,MacIntel,60,,,space,0.2,2,1,0.529,,0,457,457,275,1,2a,47,2,19,
,,,,,,,,,,,,,,,,,,,,,,,,,,images/exp1a_trial_91_colour3_distractors19_r.png,r,2,038,001,2021-04-26_22h40.01.498,searchDisc4,2020.2.10,MacIntel,60,,,space,0.141,2,1,0.75,,0,458,458,91,1,1a,91,3,19,
,,,,,,,,,,,,,,,,,,,,,,,,,,images/exp2a_trial_1_colour1_distractors4_r.png,r,2,038,001,2021-04-26_22h40.01.498,searchDisc4,2020.2.10,MacIntel,60,,,space,0.259,2,1,0.589,,0,459,459,229,1,2a,1,1,4,
,,,,,,,,,,,,,,,,,,,,,,,,,,images/exp2c_trial_37_colour0_distractors0_l.png,l,1,038,001,2021-04-26_22h40.01.498,searchDisc4,2020.2.10,MacIntel,60,,,space,0.228,1,1,0.507,,0,460,460,493,1,2c,37,0,0,
,,,,,,,,,,,,,,,,,,,,,,,,,,images/exp1a_trial_9_colour2_distractors19_r.png,r,2,038,001,2021-04-26_22h40.01.498,searchDisc4,2020.2.10,MacIntel,60,,,space,0.2,2,1,0.61,,0,461,461,9,1,1a,9,2,19,
,,,,,,,,,,,,,,,,,,,,,,,,,,images/exp1a_trial_22_colour1_distractors31_l.png,l,1,038,001,2021-04-26_22h40.01.498,searchDisc4,2020.2.10,MacIntel,60,,,space,0.163,1,1,0.568,,0,462,462,22,1,1a,22,1,31,
,,,,,,,,,,,,,,,,,,,,,,,,,,images/exp2b_trial_81_colour1_distractors43_r.png,r,2,038,001,2021-04-26_22h40.01.498,searchDisc4,2020.2.10,MacIntel,60,,,space,0.263,2,1,0.629,,0,463,463,423,1,2b,81,1,43,
,,,,,,,,,,,,,,,,,,,,,,,,,,images/exp1b_trial_47_colour2_distractors19_r.png,r,2,038,001,2021-04-26_22h40.01.498,searchDisc4,2020.2.10,MacIntel,60,,,space,0.203,2,1,0.572,,0,464,464,161,1,1b,47,2,19,
,,,,,,,,,,,,,,,,,,,,,,,,,,images/exp1b_trial_84_colour2_distractors9_r.png,r,2,038,001,2021-04-26_22h40.01.498,searchDisc4,2020.2.10,MacIntel,60,,,space,0.198,2,1,0.53,,0,465,465,198,1,1b,84,2,9,
,,,,,,,,,,,,,,,,,,,,,,,,,,images/exp1a_trial_16_colour3_distractors31_r.png,r,2,038,001,2021-04-26_22h40.01.498,searchDisc4,2020.2.10,MacIntel,60,,,space,0.219,2,1,0.571,,0,466,466,16,1,1a,16,3,31,
,,,,,,,,,,,,,,,,,,,,,,,,,,images/exp1b_trial_73_colour3_distractors43_l.png,l,1,038,001,2021-04-26_22h40.01.498,searchDisc4,2020.2.10,MacIntel,60,,,space,0.218,1,1,0.769,,0,467,467,187,1,1b,73,3,43,
,,,,,,,,,,,,,,,,,,,,,,,,,,images/exp1b_trial_76_colour1_distractors1_r.png,r,2,038,001,2021-04-26_22h40.01.498,searchDisc4,2020.2.10,MacIntel,60,,,space,0.223,2,1,0.656,,0,468,468,190,1,1b,76,1,1,
,,,,,,,,,,,,,,,,,,,,,,,,,,images/exp2a_trial_53_colour3_distractors19_r.png,r,2,038,001,2021-04-26_22h40.01.498,searchDisc4,2020.2.10,MacIntel,60,,,space,0.239,2,1,0.554,,0,469,469,281,1,2a,53,3,19,
,,,,,,,,,,,,,,,,,,,,,,,,,,images/exp2a_trial_93_colour3_distractors43_r.png,r,2,038,001,2021-04-26_22h40.01.498,searchDisc4,2020.2.10,MacIntel,60,,,space,0.178,2,1,0.543,,0,470,470,321,1,2a,93,3,43,
,,,,,,,,,,,,,,,,,,,,,,,,,,images/exp1a_trial_41_colour1_distractors19_r.png,r,2,038,001,2021-04-26_22h40.01.498,searchDisc4,2020.2.10,MacIntel,60,,,space,0.123,2,1,0.549,,0,471,471,41,1,1a,41,1,19,
,,,,,,,,,,,,,,,,,,,,,,,,,,images/exp2a_trial_104_colour2_distractors31_l.png,l,1,038,001,2021-04-26_22h40.01.498,searchDisc4,2020.2.10,MacIntel,60,,,space,0.099,1,1,0.627,,0,472,472,332,1,2a,104,2,31,
,,,,,,,,,,,,,,,,,,,,,,,,,,images/exp1b_trial_43_colour1_distractors43_r.png,r,2,038,001,2021-04-26_22h40.01.498,searchDisc4,2020.2.10,MacIntel,60,,,space,0.141,2,1,0.607,,0,473,473,157,1,1b,43,1,43,
,,,,,,,,,,,,,,,,,,,,,,,,,,images/exp1a_trial_69_colour3_distractors4_l.png,l,1,038,001,2021-04-26_22h40.01.498,searchDisc4,2020.2.10,MacIntel,60,,,space,0.14,1,1,0.514,,0,474,474,69,1,1a,69,3,4,
,,,,,,,,,,,,,,,,,,,,,,,,,,images/exp2b_trial_70_colour3_distractors9_l.png,l,1,038,001,2021-04-26_22h40.01.498,searchDisc4,2020.2.10,MacIntel,60,,,space,0.179,1,1,0.691,,0,475,475,412,1,2b,70,3,9,
,,,,,,,,,,,,,,,,,,,,,,,,,,images/exp2a_trial_60_colour1_distractors31_l.png,l,1,038,001,2021-04-26_22h40.01.498,searchDisc4,2020.2.10,MacIntel,60,,,space,0.257,1,1,0.571,,0,476,476,288,1,2a,60,1,31,
,,,,,,,,,,,,,,,,,,,,,,,,,,images/exp2a_trial_57_colour1_distractors4_l.png,l,1,038,001,2021-04-26_22h40.01.498,searchDisc4,2020.2.10,MacIntel,60,,,space,0.26,1,1,0.571,,0,477,477,285,1,2a,57,1,4,
,,,,,,,,,,,,,,,,,,,,,,,,,,images/exp1b_trial_7_colour2_distractors4_r.png,r,2,038,001,2021-04-26_22h40.01.498,searchDisc4,2020.2.10,MacIntel,60,,,space,0.298,2,1,0.65,,0,478,478,121,1,1b,7,2,4,
,,,,,,,,,,,,,,,,,,,,,,,,,,images/exp2a_trial_0_colour1_distractors1_r.png,r,2,038,001,2021-04-26_22h40.01.498,searchDisc4,2020.2.10,MacIntel,60,,,space,0.28,2,1,0.528,,0,479,479,228,1,2a,0,1,1,
,,,,,,,,,,,,,,,,,,,,,,,,,,images/exp2b_trial_25_colour2_distractors4_l.png,l,1,038,001,2021-04-26_22h40.01.498,searchDisc4,2020.2.10,MacIntel,60,,,space,0.237,1,1,0.549,,0,480,480,367,1,2b,25,2,4,
,,,,,,,,,,,,,,,,,,,,,,,,,,images/exp2c_trial_91_colour3_distractors19_r.png,r,2,038,001,2021-04-26_22h40.01.498,searchDisc4,2020.2.10,MacIntel,60,,,space,0.219,2,1,0.69,,0,481,481,547,1,2c,91,3,19,
,,,,,,,,,,,,,,,,,,,,,,,,,,images/exp1b_trial_15_colour3_distractors19_r.png,r,2,038,001,2021-04-26_22h40.01.498,searchDisc4,2020.2.10,MacIntel,60,,,space,0.218,2,1,0.531,,0,482,482,129,1,1b,15,3,19,
