X Scale,Y Scale,key_resp_10.keys,key_resp_10.rt,key_resp_11.keys,key_resp_11.rt,key_resp_12.keys,key_resp_12.rt,key_resp_13.keys,key_resp_13.rt,key_resp_5.keys,key_resp_5.rt,key_resp_8.keys,key_resp_8.rt,key_resp_6.keys,key_resp_6.rt,key_resp_7.keys,key_resp_7.rt,key_resp_4.keys,key_resp_4.corr,trials_2.thisRepN,trials_2.thisTrialN,trials_2.thisN,trials_2.thisIndex,trials_2.ran,ImageFile,targ_side,correctAnswer,participant,session,date,expName,psychopyVersion,OS,frameRate,key_resp_4.rt,key_resp_3.keys,key_resp_3.rt,key_resp_9.keys,key_resp_9.rt,key_resp_2.keys,key_resp_2.corr,key_resp_2.rt,key_resp.keys,trials.thisRepN,trials.thisTrialN,trials.thisN,trials.thisIndex,trials.ran,exp,trial,colour,distNo,key_resp.rt
20,18,space,12.59613,space,25.16641,space,6.12935,space,3.820635,space,9.169685,space,19.205125,space,6.11337,space,14.211775,,0,0,0,0,16,1,Practice arrays/exp1a_trial_33_colour3_distractors19_l.png,l,1,28,001,2021-04-24_02h26.06.522,searchDisc4,2020.2.10,Win32,60,,,,,,,,,,,,,,,,,,,
,,,,,,,,,,,,,,,,space,1.31837,1,1,0,1,1,13,1,Practice arrays/exp1a_trial_28_colour2_distractors31_l.png,l,1,28,001,2021-04-24_02h26.06.522,searchDisc4,2020.2.10,Win32,60,1.313875,,,,,,,,,,,,,,,,,,
,,,,,,,,,,,,,,,,space,1.138515,2,1,0,2,2,4,1,Practice arrays/exp1a_trial_8_colour2_distractors9_r.png,r,2,28,001,2021-04-24_02h26.06.522,searchDisc4,2020.2.10,Win32,60,0.92297,,,,,,,,,,,,,,,,,,
,,,,,,,,,,,,,,,,space,0.795965,1,1,0,3,3,14,1,Practice arrays/exp1a_trial_29_colour2_distractors43_l.png,l,1,28,001,2021-04-24_02h26.06.522,searchDisc4,2020.2.10,Win32,60,0.927715,,,,,,,,,,,,,,,,,,
,,,,,,,,,,,,,,,,space,0.81404,1,1,0,4,4,10,1,Practice arrays/exp1a_trial_20_colour1_distractors9_l.png,l,1,28,001,2021-04-24_02h26.06.522,searchDisc4,2020.2.10,Win32,60,0.83206,,,,,,,,,,,,,,,,,,
,,,,,,,,,,,,,,,,space,0.709035,2,1,0,5,5,5,1,Practice arrays/exp1a_trial_10_colour2_distractors31_r.png,r,2,28,001,2021-04-24_02h26.06.522,searchDisc4,2020.2.10,Win32,60,1.05761,,,,,,,,,,,,,,,,,,
,,,,,,,,,,,,,,,,space,0.73222,2,1,0,6,6,2,1,Practice arrays/exp1a_trial_5_colour1_distractors43_r.png,r,2,28,001,2021-04-24_02h26.06.522,searchDisc4,2020.2.10,Win32,60,0.804515,,,,,,,,,,,,,,,,,,
,,,,,,,,,,,,,,,,space,0.68177,1,1,0,7,7,9,1,Practice arrays/exp1a_trial_19_colour1_distractors4_l.png,l,1,28,001,2021-04-24_02h26.06.522,searchDisc4,2020.2.10,Win32,60,0.497495,,,,,,,,,,,,,,,,,,
,,,,,,,,,,,,,,,,space,0.62091,2,1,0,8,8,1,1,Practice arrays/exp1a_trial_3_colour1_distractors19_r.png,r,2,28,001,2021-04-24_02h26.06.522,searchDisc4,2020.2.10,Win32,60,0.488775,,,,,,,,,,,,,,,,,,
,,,,,,,,,,,,,,,,space,0.42567,1,1,0,9,9,12,1,Practice arrays/exp1a_trial_25_colour2_distractors4_l.png,l,1,28,001,2021-04-24_02h26.06.522,searchDisc4,2020.2.10,Win32,60,0.548615,,,,,,,,,,,,,,,,,,
,,,,,,,,,,,,,,,,space,0.40109,2,1,0,10,10,6,1,Practice arrays/exp1a_trial_12_colour3_distractors1_r.png,r,2,28,001,2021-04-24_02h26.06.522,searchDisc4,2020.2.10,Win32,60,0.66367,,,,,,,,,,,,,,,,,,
,,,,,,,,,,,,,,,,space,0.261795,2,1,0,11,11,7,1,Practice arrays/exp1a_trial_13_colour3_distractors4_r.png,r,2,28,001,2021-04-24_02h26.06.522,searchDisc4,2020.2.10,Win32,60,0.78161,,,,,,,,,,,,,,,,,,
,,,,,,,,,,,,,,,,space,0.733495,2,1,0,12,12,3,1,Practice arrays/exp1a_trial_7_colour2_distractors4_r.png,r,2,28,001,2021-04-24_02h26.06.522,searchDisc4,2020.2.10,Win32,60,0.80406,,,,,,,,,,,,,,,,,,
,,,,,,,,,,,,,,,,space,0.7961,2,1,0,13,13,8,1,Practice arrays/exp1a_trial_16_colour3_distractors31_r.png,r,2,28,001,2021-04-24_02h26.06.522,searchDisc4,2020.2.10,Win32,60,0.675115,,,,,,,,,,,,,,,,,,
,,,,,,,,,,,,,,,,space,0.488915,2,1,0,14,14,0,1,Practice arrays/exp1a_trial_0_colour1_distractors1_r.png,r,2,28,001,2021-04-24_02h26.06.522,searchDisc4,2020.2.10,Win32,60,0.6468,,,,,,,,,,,,,,,,,,
,,,,,,,,,,,,,,,,space,0.51192,2,1,0,15,15,18,1,Practice arrays/exp1a_trial_36_colour0_distractors0_r.png,r,2,28,001,2021-04-24_02h26.06.522,searchDisc4,2020.2.10,Win32,60,0.54111,,,,,,,,,,,,,,,,,,
,,,,,,,,,,,,,,,,space,0.45317,1,1,0,16,16,11,1,Practice arrays/exp1a_trial_21_colour1_distractors19_l.png,l,1,28,001,2021-04-24_02h26.06.522,searchDisc4,2020.2.10,Win32,60,0.85319,,,,,,,,,,,,,,,,,,
,,,,,,,,,,,,,,,,space,0.45045,1,1,0,17,17,19,1,Practice arrays/exp1a_trial_37_colour0_distractors0_l.png,l,1,28,001,2021-04-24_02h26.06.522,searchDisc4,2020.2.10,Win32,60,0.650335,,,,,,,,,,,,,,,,,,
,,,,,,,,,,,,,,,,space,1.485,1,1,0,18,18,15,1,Practice arrays/exp1a_trial_32_colour3_distractors9_l.png,l,1,28,001,2021-04-24_02h26.06.522,searchDisc4,2020.2.10,Win32,60,0.58681,,,,,,,,,,,,,,,,,,
,,,,,,,,,,,,,,,,space,0.47536,1,1,0,19,19,17,1,Practice arrays/exp1a_trial_35_colour3_distractors43_l.png,l,1,28,001,2021-04-24_02h26.06.522,searchDisc4,2020.2.10,Win32,60,1.372135,,,,,,,,,,,,,,,,,,
,,,,,,,,,,,,,,,,,,,,,,,,,images/exp2b_trial_85_colour2_distractors19_r.png,r,2,28,001,2021-04-24_02h26.06.522,searchDisc4,2020.2.10,Win32,60,,space,6.38391,space,0.745845,2,1,0.571835,,0,0,0,427,1,2b,85,2,19,
,,,,,,,,,,,,,,,,,,,,,,,,,images/exp2a_trial_25_colour2_distractors4_l.png,l,1,28,001,2021-04-24_02h26.06.522,searchDisc4,2020.2.10,Win32,60,,,,space,2.235635,1,1,0.58293,,0,1,1,253,1,2a,25,2,4,
,,,,,,,,,,,,,,,,,,,,,,,,,images/exp2c_trial_74_colour0_distractors0_r.png,r,2,28,001,2021-04-24_02h26.06.522,searchDisc4,2020.2.10,Win32,60,,,,space,1.099995,2,1,0.546965,,0,2,2,530,1,2c,74,0,0,
,,,,,,,,,,,,,,,,,,,,,,,,,images/exp2c_trial_107_colour3_distractors4_l.png,l,1,28,001,2021-04-24_02h26.06.522,searchDisc4,2020.2.10,Win32,60,,,,space,0.79497,1,1,0.55772,,0,3,3,563,1,2c,107,3,4,
,,,,,,,,,,,,,,,,,,,,,,,,,images/exp1a_trial_29_colour2_distractors43_l.png,l,1,28,001,2021-04-24_02h26.06.522,searchDisc4,2020.2.10,Win32,60,,,,space,0.58835,1,1,0.933325,,0,4,4,29,1,1a,29,2,43,
,,,,,,,,,,,,,,,,,,,,,,,,,images/exp2c_trial_1_colour1_distractors4_r.png,r,2,28,001,2021-04-24_02h26.06.522,searchDisc4,2020.2.10,Win32,60,,,,space,0.6774,2,1,0.5489,,0,5,5,457,1,2c,1,1,4,
,,,,,,,,,,,,,,,,,,,,,,,,,images/exp1b_trial_51_colour3_distractors4_r.png,r,2,28,001,2021-04-24_02h26.06.522,searchDisc4,2020.2.10,Win32,60,,,,space,0.584605,2,1,0.939875,,0,6,6,165,1,1b,51,3,4,
,,,,,,,,,,,,,,,,,,,,,,,,,images/exp2c_trial_30_colour3_distractors1_l.png,l,1,28,001,2021-04-24_02h26.06.522,searchDisc4,2020.2.10,Win32,60,,,,space,0.547595,2,0,0.67356,,0,7,7,486,1,2c,30,3,1,
,,,,,,,,,,,,,,,,,,,,,,,,,images/exp2c_trial_12_colour3_distractors1_r.png,r,2,28,001,2021-04-24_02h26.06.522,searchDisc4,2020.2.10,Win32,60,,,,space,1.616355,2,1,0.694215,,0,8,8,468,1,2c,12,3,1,
,,,,,,,,,,,,,,,,,,,,,,,,,images/exp2c_trial_4_colour1_distractors31_r.png,r,2,28,001,2021-04-24_02h26.06.522,searchDisc4,2020.2.10,Win32,60,,,,space,0.52075,2,1,0.633865,,0,9,9,460,1,2c,4,1,31,
,,,,,,,,,,,,,,,,,,,,,,,,,images/exp2b_trial_63_colour2_distractors4_l.png,l,1,28,001,2021-04-24_02h26.06.522,searchDisc4,2020.2.10,Win32,60,,,,space,0.45971,1,1,0.676855,,0,10,10,405,1,2b,63,2,4,
,,,,,,,,,,,,,,,,,,,,,,,,,images/exp1b_trial_26_colour2_distractors9_l.png,l,1,28,001,2021-04-24_02h26.06.522,searchDisc4,2020.2.10,Win32,60,,,,space,0.448415,1,1,0.672245,,0,11,11,140,1,1b,26,2,9,
,,,,,,,,,,,,,,,,,,,,,,,,,images/exp1a_trial_49_colour2_distractors43_r.png,r,2,28,001,2021-04-24_02h26.06.522,searchDisc4,2020.2.10,Win32,60,,,,space,0.40564,2,1,0.69538,,0,12,12,49,1,1a,49,2,43,
,,,,,,,,,,,,,,,,,,,,,,,,,images/exp1b_trial_108_colour3_distractors9_l.png,l,1,28,001,2021-04-24_02h26.06.522,searchDisc4,2020.2.10,Win32,60,,,,space,0.38257,1,1,0.87502,,0,13,13,222,1,1b,108,3,9,
,,,,,,,,,,,,,,,,,,,,,,,,,images/exp1a_trial_43_colour1_distractors43_r.png,r,2,28,001,2021-04-24_02h26.06.522,searchDisc4,2020.2.10,Win32,60,,,,space,0.31897,2,1,0.93656,,0,14,14,43,1,1a,43,1,43,
,,,,,,,,,,,,,,,,,,,,,,,,,images/exp2a_trial_74_colour0_distractors0_r.png,r,2,28,001,2021-04-24_02h26.06.522,searchDisc4,2020.2.10,Win32,60,,,,space,0.377435,2,1,0.741285,,0,15,15,302,1,2a,74,0,0,
,,,,,,,,,,,,,,,,,,,,,,,,,images/exp2c_trial_89_colour3_distractors4_r.png,r,2,28,001,2021-04-24_02h26.06.522,searchDisc4,2020.2.10,Win32,60,,,,space,0.35917,2,1,0.57637,,0,16,16,545,1,2c,89,3,4,
,,,,,,,,,,,,,,,,,,,,,,,,,images/exp2b_trial_83_colour2_distractors4_r.png,r,2,28,001,2021-04-24_02h26.06.522,searchDisc4,2020.2.10,Win32,60,,,,space,0.45202,2,1,0.560475,,0,17,17,425,1,2b,83,2,4,
,,,,,,,,,,,,,,,,,,,,,,,,,images/exp2b_trial_107_colour3_distractors4_l.png,l,1,28,001,2021-04-24_02h26.06.522,searchDisc4,2020.2.10,Win32,60,,,,space,0.372095,1,1,0.56138,,0,18,18,449,1,2b,107,3,4,
,,,,,,,,,,,,,,,,,,,,,,,,,images/exp2c_trial_54_colour3_distractors31_r.png,r,2,28,001,2021-04-24_02h26.06.522,searchDisc4,2020.2.10,Win32,60,,,,space,0.415425,2,1,0.623445,,0,19,19,510,1,2c,54,3,31,
,,,,,,,,,,,,,,,,,,,,,,,,,images/exp2b_trial_65_colour2_distractors19_l.png,l,1,28,001,2021-04-24_02h26.06.522,searchDisc4,2020.2.10,Win32,60,,,,space,0.34801,1,1,0.535575,,0,20,20,407,1,2b,65,2,19,
,,,,,,,,,,,,,,,,,,,,,,,,,images/exp2c_trial_83_colour2_distractors4_r.png,r,2,28,001,2021-04-24_02h26.06.522,searchDisc4,2020.2.10,Win32,60,,,,space,0.401885,2,1,0.57244,,0,21,21,539,1,2c,83,2,4,
,,,,,,,,,,,,,,,,,,,,,,,,,images/exp1a_trial_74_colour0_distractors0_r.png,r,2,28,001,2021-04-24_02h26.06.522,searchDisc4,2020.2.10,Win32,60,,,,space,0.35747,2,1,0.70686,,0,22,22,74,1,1a,74,0,0,
,,,,,,,,,,,,,,,,,,,,,,,,,images/exp1a_trial_107_colour3_distractors4_l.png,l,1,28,001,2021-04-24_02h26.06.522,searchDisc4,2020.2.10,Win32,60,,,,space,0.325825,1,1,0.69843,,0,23,23,107,1,1a,107,3,4,
,,,,,,,,,,,,,,,,,,,,,,,,,images/exp2a_trial_48_colour2_distractors31_r.png,r,2,28,001,2021-04-24_02h26.06.522,searchDisc4,2020.2.10,Win32,60,,,,space,0.39361,2,1,0.648215,,0,24,24,276,1,2a,48,2,31,
,,,,,,,,,,,,,,,,,,,,,,,,,images/exp2b_trial_109_colour3_distractors19_l.png,l,1,28,001,2021-04-24_02h26.06.522,searchDisc4,2020.2.10,Win32,60,,,,space,0.35305,1,1,0.607935,,0,25,25,451,1,2b,109,3,19,
,,,,,,,,,,,,,,,,,,,,,,,,,images/exp1b_trial_13_colour3_distractors4_r.png,r,2,28,001,2021-04-24_02h26.06.522,searchDisc4,2020.2.10,Win32,60,,,,space,0.373435,2,1,0.63237,,0,26,26,127,1,1b,13,3,4,
,,,,,,,,,,,,,,,,,,,,,,,,,images/exp2a_trial_94_colour1_distractors1_l.png,l,1,28,001,2021-04-24_02h26.06.522,searchDisc4,2020.2.10,Win32,60,,,,space,0.489415,1,1,0.50736,,0,27,27,322,1,2a,94,1,1,
,,,,,,,,,,,,,,,,,,,,,,,,,images/exp2a_trial_17_colour3_distractors43_r.png,r,2,28,001,2021-04-24_02h26.06.522,searchDisc4,2020.2.10,Win32,60,,,,space,0.46259,2,1,0.654075,,0,28,28,245,1,2a,17,3,43,
,,,,,,,,,,,,,,,,,,,,,,,,,images/exp2a_trial_85_colour2_distractors19_r.png,r,2,28,001,2021-04-24_02h26.06.522,searchDisc4,2020.2.10,Win32,60,,,,space,0.390025,2,1,0.87436,,0,29,29,313,1,2a,85,2,19,
,,,,,,,,,,,,,,,,,,,,,,,,,images/exp2c_trial_14_colour3_distractors9_r.png,r,2,28,001,2021-04-24_02h26.06.522,searchDisc4,2020.2.10,Win32,60,,,,space,0.283455,2,1,0.63717,,0,30,30,470,1,2c,14,3,9,
,,,,,,,,,,,,,,,,,,,,,,,,,images/exp2a_trial_101_colour2_distractors4_l.png,l,1,28,001,2021-04-24_02h26.06.522,searchDisc4,2020.2.10,Win32,60,,,,space,0.31847,1,1,0.6779,,0,31,31,329,1,2a,101,2,4,
,,,,,,,,,,,,,,,,,,,,,,,,,images/exp1a_trial_7_colour2_distractors4_r.png,r,2,28,001,2021-04-24_02h26.06.522,searchDisc4,2020.2.10,Win32,60,,,,space,0.5048,2,1,0.81307,,0,32,32,7,1,1a,7,2,4,
,,,,,,,,,,,,,,,,,,,,,,,,,images/exp1a_trial_104_colour2_distractors31_l.png,l,1,28,001,2021-04-24_02h26.06.522,searchDisc4,2020.2.10,Win32,60,,,,space,0.294785,1,1,0.64852,,0,33,33,104,1,1a,104,2,31,
,,,,,,,,,,,,,,,,,,,,,,,,,images/exp2b_trial_53_colour3_distractors19_r.png,r,2,28,001,2021-04-24_02h26.06.522,searchDisc4,2020.2.10,Win32,60,,,,space,0.70087,2,1,0.65782,,0,34,34,395,1,2b,53,3,19,
,,,,,,,,,,,,,,,,,,,,,,,,,images/exp2c_trial_20_colour1_distractors9_l.png,l,1,28,001,2021-04-24_02h26.06.522,searchDisc4,2020.2.10,Win32,60,,,,space,0.31625,1,1,0.597665,,0,35,35,476,1,2c,20,1,9,
,,,,,,,,,,,,,,,,,,,,,,,,,images/exp1a_trial_54_colour3_distractors31_r.png,r,2,28,001,2021-04-24_02h26.06.522,searchDisc4,2020.2.10,Win32,60,,,,space,0.40495,2,1,0.58208,,0,36,36,54,1,1a,54,3,31,
,,,,,,,,,,,,,,,,,,,,,,,,,images/exp2c_trial_109_colour3_distractors19_l.png,l,1,28,001,2021-04-24_02h26.06.522,searchDisc4,2020.2.10,Win32,60,,,,space,0.448105,1,1,0.64572,,0,37,37,565,1,2c,109,3,19,
,,,,,,,,,,,,,,,,,,,,,,,,,images/exp1a_trial_56_colour1_distractors1_l.png,l,1,28,001,2021-04-24_02h26.06.522,searchDisc4,2020.2.10,Win32,60,,,,space,0.42428,1,1,0.824915,,0,38,38,56,1,1a,56,1,1,
,,,,,,,,,,,,,,,,,,,,,,,,,images/exp1a_trial_39_colour1_distractors4_r.png,r,2,28,001,2021-04-24_02h26.06.522,searchDisc4,2020.2.10,Win32,60,,,,space,0.290145,2,1,0.562405,,0,39,39,39,1,1a,39,1,4,
,,,,,,,,,,,,,,,,,,,,,,,,,images/exp2b_trial_37_colour0_distractors0_l.png,l,1,28,001,2021-04-24_02h26.06.522,searchDisc4,2020.2.10,Win32,60,,,,space,0.418255,1,1,0.56649,,0,40,40,379,1,2b,37,0,0,
,,,,,,,,,,,,,,,,,,,,,,,,,images/exp2c_trial_62_colour2_distractors1_l.png,l,1,28,001,2021-04-24_02h26.06.522,searchDisc4,2020.2.10,Win32,60,,,,space,0.417325,1,1,0.58094,,0,41,41,518,1,2c,62,2,1,
,,,,,,,,,,,,,,,,,,,,,,,,,images/exp1a_trial_20_colour1_distractors9_l.png,l,1,28,001,2021-04-24_02h26.06.522,searchDisc4,2020.2.10,Win32,60,,,,space,0.383235,1,1,0.757765,,0,42,42,20,1,1a,20,1,9,
,,,,,,,,,,,,,,,,,,,,,,,,,images/exp2c_trial_98_colour1_distractors31_l.png,l,1,28,001,2021-04-24_02h26.06.522,searchDisc4,2020.2.10,Win32,60,,,,space,0.347045,1,1,0.739595,,0,43,43,554,1,2c,98,1,31,
,,,,,,,,,,,,,,,,,,,,,,,,,images/exp1a_trial_87_colour2_distractors43_r.png,r,2,28,001,2021-04-24_02h26.06.522,searchDisc4,2020.2.10,Win32,60,,,,space,0.306925,2,1,0.520825,,0,44,44,87,1,1a,87,2,43,
,,,,,,,,,,,,,,,,,,,,,,,,,images/exp1b_trial_24_colour2_distractors1_l.png,l,1,28,001,2021-04-24_02h26.06.522,searchDisc4,2020.2.10,Win32,60,,,,space,0.47697,1,1,0.575155,,0,45,45,138,1,1b,24,2,1,
,,,,,,,,,,,,,,,,,,,,,,,,,images/exp2a_trial_9_colour2_distractors19_r.png,r,2,28,001,2021-04-24_02h26.06.522,searchDisc4,2020.2.10,Win32,60,,,,space,0.5492,2,1,0.5922,,0,46,46,237,1,2a,9,2,19,
,,,,,,,,,,,,,,,,,,,,,,,,,images/exp2c_trial_45_colour2_distractors4_r.png,r,2,28,001,2021-04-24_02h26.06.522,searchDisc4,2020.2.10,Win32,60,,,,space,0.400035,2,1,0.689275,,0,47,47,501,1,2c,45,2,4,
,,,,,,,,,,,,,,,,,,,,,,,,,images/exp2a_trial_93_colour3_distractors43_r.png,r,2,28,001,2021-04-24_02h26.06.522,searchDisc4,2020.2.10,Win32,60,,,,space,0.38599,2,1,0.855915,,0,48,48,321,1,2a,93,3,43,
,,,,,,,,,,,,,,,,,,,,,,,,,images/exp2b_trial_106_colour3_distractors1_l.png,l,1,28,001,2021-04-24_02h26.06.522,searchDisc4,2020.2.10,Win32,60,,,,space,0.232245,1,1,0.7656,,0,49,49,448,1,2b,106,3,1,
,,,,,,,,,,,,,,,,,,,,,,,,,images/exp1b_trial_8_colour2_distractors9_r.png,r,2,28,001,2021-04-24_02h26.06.522,searchDisc4,2020.2.10,Win32,60,,,,space,0.306435,2,1,0.722985,,0,50,50,122,1,1b,8,2,9,
,,,,,,,,,,,,,,,,,,,,,,,,,images/exp2a_trial_57_colour1_distractors4_l.png,l,1,28,001,2021-04-24_02h26.06.522,searchDisc4,2020.2.10,Win32,60,,,,space,0.30612,1,1,0.655915,,0,51,51,285,1,2a,57,1,4,
,,,,,,,,,,,,,,,,,,,,,,,,,images/exp1b_trial_16_colour3_distractors31_r.png,r,2,28,001,2021-04-24_02h26.06.522,searchDisc4,2020.2.10,Win32,60,,,,space,0.276515,2,1,2.486055,,0,52,52,130,1,1b,16,3,31,
,,,,,,,,,,,,,,,,,,,,,,,,,images/exp1a_trial_76_colour1_distractors1_r.png,r,2,28,001,2021-04-24_02h26.06.522,searchDisc4,2020.2.10,Win32,60,,,,space,0.287895,1,0,0.724105,,0,53,53,76,1,1a,76,1,1,
,,,,,,,,,,,,,,,,,,,,,,,,,images/exp2a_trial_81_colour1_distractors43_r.png,r,2,28,001,2021-04-24_02h26.06.522,searchDisc4,2020.2.10,Win32,60,,,,space,0.89127,2,1,0.733645,,0,54,54,309,1,2a,81,1,43,
,,,,,,,,,,,,,,,,,,,,,,,,,images/exp2c_trial_42_colour1_distractors31_r.png,r,2,28,001,2021-04-24_02h26.06.522,searchDisc4,2020.2.10,Win32,60,,,,space,0.601305,2,1,0.889375,,0,55,55,498,1,2c,42,1,31,
,,,,,,,,,,,,,,,,,,,,,,,,,images/exp2a_trial_31_colour3_distractors4_l.png,l,1,28,001,2021-04-24_02h26.06.522,searchDisc4,2020.2.10,Win32,60,,,,space,0.254555,1,1,0.65607,,0,56,56,259,1,2a,31,3,4,
,,,,,,,,,,,,,,,,,,,,,,,,,images/exp2b_trial_76_colour1_distractors1_r.png,r,2,28,001,2021-04-24_02h26.06.522,searchDisc4,2020.2.10,Win32,60,,,,space,0.300805,2,1,0.602245,,0,57,57,418,1,2b,76,1,1,
,,,,,,,,,,,,,,,,,,,,,,,,,images/exp1b_trial_96_colour1_distractors9_l.png,l,1,28,001,2021-04-24_02h26.06.522,searchDisc4,2020.2.10,Win32,60,,,,space,0.357645,1,1,1.175845,,0,58,58,210,1,1b,96,1,9,
,,,,,,,,,,,,,,,,,,,,,,,,,images/exp2a_trial_26_colour2_distractors9_l.png,l,1,28,001,2021-04-24_02h26.06.522,searchDisc4,2020.2.10,Win32,60,,,,space,0.411375,1,1,0.62388,space,0,59,59,254,1,2a,26,2,9,0.358095
,,,,,,,,,,,,,,,,,,,,,,,,,images/exp2b_trial_35_colour3_distractors43_l.png,l,1,28,001,2021-04-24_02h26.06.522,searchDisc4,2020.2.10,Win32,60,,,,space,4.41483,1,1,0.79157,,0,60,60,377,1,2b,35,3,43,
,,,,,,,,,,,,,,,,,,,,,,,,,images/exp2b_trial_32_colour3_distractors9_l.png,l,1,28,001,2021-04-24_02h26.06.522,searchDisc4,2020.2.10,Win32,60,,,,space,0.398755,1,1,0.83812,,0,61,61,374,1,2b,32,3,9,
,,,,,,,,,,,,,,,,,,,,,,,,,images/exp1a_trial_2_colour1_distractors9_r.png,r,2,28,001,2021-04-24_02h26.06.522,searchDisc4,2020.2.10,Win32,60,,,,space,0.26099,2,1,0.85702,,0,62,62,2,1,1a,2,1,9,
,,,,,,,,,,,,,,,,,,,,,,,,,images/exp1a_trial_100_colour2_distractors1_l.png,l,1,28,001,2021-04-24_02h26.06.522,searchDisc4,2020.2.10,Win32,60,,,,space,0.34031,1,1,1.289705,,0,63,63,100,1,1a,100,2,1,
,,,,,,,,,,,,,,,,,,,,,,,,,images/exp2b_trial_1_colour1_distractors4_r.png,r,2,28,001,2021-04-24_02h26.06.522,searchDisc4,2020.2.10,Win32,60,,,,space,0.255155,2,1,0.803795,,0,64,64,343,1,2b,1,1,4,
,,,,,,,,,,,,,,,,,,,,,,,,,images/exp1b_trial_88_colour3_distractors1_r.png,r,2,28,001,2021-04-24_02h26.06.522,searchDisc4,2020.2.10,Win32,60,,,,space,0.422195,2,1,0.81394,,0,65,65,202,1,1b,88,3,1,
,,,,,,,,,,,,,,,,,,,,,,,,,images/exp2b_trial_87_colour2_distractors43_r.png,r,2,28,001,2021-04-24_02h26.06.522,searchDisc4,2020.2.10,Win32,60,,,,space,0.31904,2,1,0.720975,,0,66,66,429,1,2b,87,2,43,
,,,,,,,,,,,,,,,,,,,,,,,,,images/exp2c_trial_81_colour1_distractors43_r.png,r,2,28,001,2021-04-24_02h26.06.522,searchDisc4,2020.2.10,Win32,60,,,,space,0.31086,2,1,0.6212,,0,67,67,537,1,2c,81,1,43,
,,,,,,,,,,,,,,,,,,,,,,,,,images/exp1a_trial_38_colour1_distractors1_r.png,r,2,28,001,2021-04-24_02h26.06.522,searchDisc4,2020.2.10,Win32,60,,,,space,0.352325,2,1,0.753635,,0,68,68,38,1,1a,38,1,1,
,,,,,,,,,,,,,,,,,,,,,,,,,images/exp2a_trial_32_colour3_distractors9_l.png,l,1,28,001,2021-04-24_02h26.06.522,searchDisc4,2020.2.10,Win32,60,,,,space,0.310545,1,1,0.668685,,0,69,69,260,1,2a,32,3,9,
,,,,,,,,,,,,,,,,,,,,,,,,,images/exp1a_trial_53_colour3_distractors19_r.png,r,2,28,001,2021-04-24_02h26.06.522,searchDisc4,2020.2.10,Win32,60,,,,space,0.331085,2,1,0.80303,,0,70,70,53,1,1a,53,3,19,
,,,,,,,,,,,,,,,,,,,,,,,,,images/exp1b_trial_89_colour3_distractors4_r.png,r,2,28,001,2021-04-24_02h26.06.522,searchDisc4,2020.2.10,Win32,60,,,,space,0.304865,2,1,0.9122,,0,71,71,203,1,1b,89,3,4,
,,,,,,,,,,,,,,,,,,,,,,,,,images/exp1a_trial_113_colour0_distractors0_l.png,l,1,28,001,2021-04-24_02h26.06.522,searchDisc4,2020.2.10,Win32,60,,,,space,0.359725,1,1,0.907095,,0,72,72,113,1,1a,113,0,0,
,,,,,,,,,,,,,,,,,,,,,,,,,images/exp1a_trial_34_colour3_distractors31_l.png,l,1,28,001,2021-04-24_02h26.06.522,searchDisc4,2020.2.10,Win32,60,,,,space,0.589645,1,1,0.80227,,0,73,73,34,1,1a,34,3,31,
,,,,,,,,,,,,,,,,,,,,,,,,,images/exp2a_trial_0_colour1_distractors1_r.png,r,2,28,001,2021-04-24_02h26.06.522,searchDisc4,2020.2.10,Win32,60,,,,space,0.43243,2,1,0.658335,,0,74,74,228,1,2a,0,1,1,
,,,,,,,,,,,,,,,,,,,,,,,,,images/exp2a_trial_10_colour2_distractors31_r.png,r,2,28,001,2021-04-24_02h26.06.522,searchDisc4,2020.2.10,Win32,60,,,,space,0.366155,2,1,0.64323,,0,75,75,238,1,2a,10,2,31,
,,,,,,,,,,,,,,,,,,,,,,,,,images/exp1b_trial_2_colour1_distractors9_r.png,r,2,28,001,2021-04-24_02h26.06.522,searchDisc4,2020.2.10,Win32,60,,,,space,0.33179,2,1,0.564805,,0,76,76,116,1,1b,2,1,9,
,,,,,,,,,,,,,,,,,,,,,,,,,images/exp1a_trial_42_colour1_distractors31_r.png,r,2,28,001,2021-04-24_02h26.06.522,searchDisc4,2020.2.10,Win32,60,,,,space,0.292965,2,1,0.605065,,0,77,77,42,1,1a,42,1,31,
,,,,,,,,,,,,,,,,,,,,,,,,,images/exp2c_trial_100_colour2_distractors1_l.png,l,1,28,001,2021-04-24_02h26.06.522,searchDisc4,2020.2.10,Win32,60,,,,space,0.347835,1,1,0.55642,,0,78,78,556,1,2c,100,2,1,
,,,,,,,,,,,,,,,,,,,,,,,,,images/exp2c_trial_39_colour1_distractors4_r.png,r,2,28,001,2021-04-24_02h26.06.522,searchDisc4,2020.2.10,Win32,60,,,,space,0.299065,2,1,0.56683,,0,79,79,495,1,2c,39,1,4,
,,,,,,,,,,,,,,,,,,,,,,,,,images/exp1a_trial_15_colour3_distractors19_r.png,r,2,28,001,2021-04-24_02h26.06.522,searchDisc4,2020.2.10,Win32,60,,,,space,0.32504,2,1,0.786825,,0,80,80,15,1,1a,15,3,19,
,,,,,,,,,,,,,,,,,,,,,,,,,images/exp1a_trial_108_colour3_distractors9_l.png,l,1,28,001,2021-04-24_02h26.06.522,searchDisc4,2020.2.10,Win32,60,,,,space,0.260905,1,1,0.706155,,0,81,81,108,1,1a,108,3,9,
,,,,,,,,,,,,,,,,,,,,,,,,,images/exp2b_trial_56_colour1_distractors1_l.png,l,1,28,001,2021-04-24_02h26.06.522,searchDisc4,2020.2.10,Win32,60,,,,space,0.219545,1,1,0.540215,,0,82,82,398,1,2b,56,1,1,
,,,,,,,,,,,,,,,,,,,,,,,,,images/exp2c_trial_13_colour3_distractors4_r.png,r,2,28,001,2021-04-24_02h26.06.522,searchDisc4,2020.2.10,Win32,60,,,,space,0.450335,2,1,0.522105,,0,83,83,469,1,2c,13,3,4,
,,,,,,,,,,,,,,,,,,,,,,,,,images/exp1b_trial_90_colour3_distractors9_r.png,r,2,28,001,2021-04-24_02h26.06.522,searchDisc4,2020.2.10,Win32,60,,,,space,0.28784,2,1,0.81306,,0,84,84,204,1,1b,90,3,9,
,,,,,,,,,,,,,,,,,,,,,,,,,images/exp2b_trial_54_colour3_distractors31_r.png,r,2,28,001,2021-04-24_02h26.06.522,searchDisc4,2020.2.10,Win32,60,,,,space,0.290675,2,1,0.626215,,0,85,85,396,1,2b,54,3,31,
,,,,,,,,,,,,,,,,,,,,,,,,,images/exp1a_trial_45_colour2_distractors4_r.png,r,2,28,001,2021-04-24_02h26.06.522,searchDisc4,2020.2.10,Win32,60,,,,space,0.24996,2,1,0.797255,,0,86,86,45,1,1a,45,2,4,
,,,,,,,,,,,,,,,,,,,,,,,,,images/exp1b_trial_85_colour2_distractors19_r.png,r,2,28,001,2021-04-24_02h26.06.522,searchDisc4,2020.2.10,Win32,60,,,,space,0.26094,2,1,0.70911,,0,87,87,199,1,1b,85,2,19,
,,,,,,,,,,,,,,,,,,,,,,,,,images/exp1a_trial_88_colour3_distractors1_r.png,r,2,28,001,2021-04-24_02h26.06.522,searchDisc4,2020.2.10,Win32,60,,,,space,0.50145,2,1,0.57821,,0,88,88,88,1,1a,88,3,1,
,,,,,,,,,,,,,,,,,,,,,,,,,images/exp2a_trial_35_colour3_distractors43_l.png,l,1,28,001,2021-04-24_02h26.06.522,searchDisc4,2020.2.10,Win32,60,,,,space,0.502355,2,0,0.516915,,0,89,89,263,1,2a,35,3,43,
,,,,,,,,,,,,,,,,,,,,,,,,,images/exp1b_trial_4_colour1_distractors31_r.png,r,2,28,001,2021-04-24_02h26.06.522,searchDisc4,2020.2.10,Win32,60,,,,space,0.504755,2,1,0.718515,,0,90,90,118,1,1b,4,1,31,
,,,,,,,,,,,,,,,,,,,,,,,,,images/exp2c_trial_111_colour3_distractors43_l.png,l,1,28,001,2021-04-24_02h26.06.522,searchDisc4,2020.2.10,Win32,60,,,,space,0.281045,1,1,0.68614,,0,91,91,567,1,2c,111,3,43,
,,,,,,,,,,,,,,,,,,,,,,,,,images/exp1a_trial_28_colour2_distractors31_l.png,l,1,28,001,2021-04-24_02h26.06.522,searchDisc4,2020.2.10,Win32,60,,,,space,0.2509,1,1,0.72093,,0,92,92,28,1,1a,28,2,31,
,,,,,,,,,,,,,,,,,,,,,,,,,images/exp1b_trial_91_colour3_distractors19_r.png,r,2,28,001,2021-04-24_02h26.06.522,searchDisc4,2020.2.10,Win32,60,,,,space,0.294985,2,1,0.85094,,0,93,93,205,1,1b,91,3,19,
,,,,,,,,,,,,,,,,,,,,,,,,,images/exp1a_trial_31_colour3_distractors4_l.png,l,1,28,001,2021-04-24_02h26.06.522,searchDisc4,2020.2.10,Win32,60,,,,space,0.268475,2,0,0.708145,,0,94,94,31,1,1a,31,3,4,
,,,,,,,,,,,,,,,,,,,,,,,,,images/exp1a_trial_5_colour1_distractors43_r.png,r,2,28,001,2021-04-24_02h26.06.522,searchDisc4,2020.2.10,Win32,60,,,,space,0.550805,2,1,1.089705,,0,95,95,5,1,1a,5,1,43,
,,,,,,,,,,,,,,,,,,,,,,,,,images/exp2b_trial_93_colour3_distractors43_r.png,r,2,28,001,2021-04-24_02h26.06.522,searchDisc4,2020.2.10,Win32,60,,,,space,0.309825,2,1,0.737975,,0,96,96,435,1,2b,93,3,43,
,,,,,,,,,,,,,,,,,,,,,,,,,images/exp2b_trial_24_colour2_distractors1_l.png,l,1,28,001,2021-04-24_02h26.06.522,searchDisc4,2020.2.10,Win32,60,,,,space,0.423445,1,1,0.78342,,0,97,97,366,1,2b,24,2,1,
,,,,,,,,,,,,,,,,,,,,,,,,,images/exp1b_trial_92_colour3_distractors31_r.png,r,2,28,001,2021-04-24_02h26.06.522,searchDisc4,2020.2.10,Win32,60,,,,space,0.250125,2,1,1.68702,,0,98,98,206,1,1b,92,3,31,
,,,,,,,,,,,,,,,,,,,,,,,,,images/exp1a_trial_99_colour1_distractors43_l.png,l,1,28,001,2021-04-24_02h26.06.522,searchDisc4,2020.2.10,Win32,60,,,,space,0.285875,1,1,1.217315,,0,99,99,99,1,1a,99,1,43,
,,,,,,,,,,,,,,,,,,,,,,,,,images/exp1b_trial_59_colour1_distractors19_l.png,l,1,28,001,2021-04-24_02h26.06.522,searchDisc4,2020.2.10,Win32,60,,,,space,0.182405,1,1,0.80167,,0,100,100,173,1,1b,59,1,19,
,,,,,,,,,,,,,,,,,,,,,,,,,images/exp2a_trial_3_colour1_distractors19_r.png,r,2,28,001,2021-04-24_02h26.06.522,searchDisc4,2020.2.10,Win32,60,,,,space,0.234655,2,1,0.735815,,0,101,101,231,1,2a,3,1,19,
,,,,,,,,,,,,,,,,,,,,,,,,,images/exp2b_trial_97_colour1_distractors19_l.png,l,1,28,001,2021-04-24_02h26.06.522,searchDisc4,2020.2.10,Win32,60,,,,space,0.26515,1,1,0.71098,,0,102,102,439,1,2b,97,1,19,
,,,,,,,,,,,,,,,,,,,,,,,,,images/exp2c_trial_105_colour2_distractors43_l.png,l,1,28,001,2021-04-24_02h26.06.522,searchDisc4,2020.2.10,Win32,60,,,,space,0.311835,1,1,0.71089,,0,103,103,561,1,2c,105,2,43,
,,,,,,,,,,,,,,,,,,,,,,,,,images/exp2c_trial_52_colour3_distractors9_r.png,r,2,28,001,2021-04-24_02h26.06.522,searchDisc4,2020.2.10,Win32,60,,,,space,0.26641,2,1,0.60581,,0,104,104,508,1,2c,52,3,9,
,,,,,,,,,,,,,,,,,,,,,,,,,images/exp1a_trial_65_colour2_distractors19_l.png,l,1,28,001,2021-04-24_02h26.06.522,searchDisc4,2020.2.10,Win32,60,,,,space,0.27248,1,1,0.68086,,0,105,105,65,1,1a,65,2,19,
,,,,,,,,,,,,,,,,,,,,,,,,,images/exp2c_trial_113_colour0_distractors0_l.png,l,1,28,001,2021-04-24_02h26.06.522,searchDisc4,2020.2.10,Win32,60,,,,space,0.22595,1,1,1.009835,,0,106,106,569,1,2c,113,0,0,
,,,,,,,,,,,,,,,,,,,,,,,,,images/exp2c_trial_57_colour1_distractors4_l.png,l,1,28,001,2021-04-24_02h26.06.522,searchDisc4,2020.2.10,Win32,60,,,,space,0.30159,1,1,0.569425,,0,107,107,513,1,2c,57,1,4,
,,,,,,,,,,,,,,,,,,,,,,,,,images/exp2b_trial_73_colour3_distractors43_l.png,l,1,28,001,2021-04-24_02h26.06.522,searchDisc4,2020.2.10,Win32,60,,,,space,0.18134,1,1,0.562465,,0,108,108,415,1,2b,73,3,43,
,,,,,,,,,,,,,,,,,,,,,,,,,images/exp1b_trial_29_colour2_distractors43_l.png,l,1,28,001,2021-04-24_02h26.06.522,searchDisc4,2020.2.10,Win32,60,,,,space,0.143585,1,1,1.12594,,0,109,109,143,1,1b,29,2,43,
,,,,,,,,,,,,,,,,,,,,,,,,,images/exp2b_trial_103_colour2_distractors19_l.png,l,1,28,001,2021-04-24_02h26.06.522,searchDisc4,2020.2.10,Win32,60,,,,space,0.167715,1,1,0.64045,,0,110,110,445,1,2b,103,2,19,
,,,,,,,,,,,,,,,,,,,,,,,,,images/exp1a_trial_73_colour3_distractors43_l.png,l,1,28,001,2021-04-24_02h26.06.522,searchDisc4,2020.2.10,Win32,60,,,,space,0.149955,1,1,0.802735,,0,111,111,73,1,1a,73,3,43,
,,,,,,,,,,,,,,,,,,,,,,,,,images/exp2a_trial_24_colour2_distractors1_l.png,l,1,28,001,2021-04-24_02h26.06.522,searchDisc4,2020.2.10,Win32,60,,,,space,0.48669,1,1,0.84041,,0,112,112,252,1,2a,24,2,1,
,,,,,,,,,,,,,,,,,,,,,,,,,images/exp2b_trial_86_colour2_distractors31_r.png,r,2,28,001,2021-04-24_02h26.06.522,searchDisc4,2020.2.10,Win32,60,,,,space,0.30517,2,1,0.724445,,0,113,113,428,1,2b,86,2,31,
,,,,,,,,,,,,,,,,,,,,,,,,,images/exp1b_trial_37_colour0_distractors0_l.png,l,1,28,001,2021-04-24_02h26.06.522,searchDisc4,2020.2.10,Win32,60,,,,space,0.28637,1,1,0.60356,,0,114,114,151,1,1b,37,0,0,
,,,,,,,,,,,,,,,,,,,,,,,,,images/exp1b_trial_22_colour1_distractors31_l.png,l,1,28,001,2021-04-24_02h26.06.522,searchDisc4,2020.2.10,Win32,60,,,,space,0.28776,1,1,1.0219,,0,115,115,136,1,1b,22,1,31,
,,,,,,,,,,,,,,,,,,,,,,,,,images/exp2a_trial_65_colour2_distractors19_l.png,l,1,28,001,2021-04-24_02h26.06.522,searchDisc4,2020.2.10,Win32,60,,,,space,0.198565,1,1,0.730275,,0,116,116,293,1,2a,65,2,19,
,,,,,,,,,,,,,,,,,,,,,,,,,images/exp1b_trial_20_colour1_distractors9_l.png,l,1,28,001,2021-04-24_02h26.06.522,searchDisc4,2020.2.10,Win32,60,,,,space,0.18849,1,1,0.690205,,0,117,117,134,1,1b,20,1,9,
,,,,,,,,,,,,,,,,,,,,,,,,,images/exp2a_trial_96_colour1_distractors9_l.png,l,1,28,001,2021-04-24_02h26.06.522,searchDisc4,2020.2.10,Win32,60,,,,space,0.12365,1,1,1.564945,,0,118,118,324,1,2a,96,1,9,
,,,,,,,,,,,,,,,,,,,,,,,,,images/exp2b_trial_43_colour1_distractors43_r.png,r,2,28,001,2021-04-24_02h26.06.522,searchDisc4,2020.2.10,Win32,60,,,,space,0.078045,2,1,0.994465,space,0,119,119,385,1,2b,43,1,43,0.059945
,,,,,,,,,,,,,,,,,,,,,,,,,images/exp2b_trial_49_colour2_distractors43_r.png,r,2,28,001,2021-04-24_02h26.06.522,searchDisc4,2020.2.10,Win32,60,,,,space,3.38256,2,1,0.587045,,0,120,120,391,1,2b,49,2,43,
,,,,,,,,,,,,,,,,,,,,,,,,,images/exp1b_trial_34_colour3_distractors31_l.png,l,1,28,001,2021-04-24_02h26.06.522,searchDisc4,2020.2.10,Win32,60,,,,space,0.64241,1,1,1.162655,,0,121,121,148,1,1b,34,3,31,
,,,,,,,,,,,,,,,,,,,,,,,,,images/exp2c_trial_73_colour3_distractors43_l.png,l,1,28,001,2021-04-24_02h26.06.522,searchDisc4,2020.2.10,Win32,60,,,,space,0.253685,1,1,0.620355,,0,122,122,529,1,2c,73,3,43,
,,,,,,,,,,,,,,,,,,,,,,,,,images/exp2b_trial_59_colour1_distractors19_l.png,l,1,28,001,2021-04-24_02h26.06.522,searchDisc4,2020.2.10,Win32,60,,,,space,0.216925,1,1,0.57398,,0,123,123,401,1,2b,59,1,19,
,,,,,,,,,,,,,,,,,,,,,,,,,images/exp1b_trial_68_colour3_distractors1_l.png,l,1,28,001,2021-04-24_02h26.06.522,searchDisc4,2020.2.10,Win32,60,,,,space,0.41029,1,1,0.84706,,0,124,124,182,1,1b,68,3,1,
,,,,,,,,,,,,,,,,,,,,,,,,,images/exp1b_trial_33_colour3_distractors19_l.png,l,1,28,001,2021-04-24_02h26.06.522,searchDisc4,2020.2.10,Win32,60,,,,space,0.221205,1,1,2.21016,,0,125,125,147,1,1b,33,3,19,
,,,,,,,,,,,,,,,,,,,,,,,,,images/exp2b_trial_6_colour2_distractors1_r.png,r,2,28,001,2021-04-24_02h26.06.522,searchDisc4,2020.2.10,Win32,60,,,,space,0.23935,2,1,0.56291,,0,126,126,348,1,2b,6,2,1,
,,,,,,,,,,,,,,,,,,,,,,,,,images/exp1b_trial_3_colour1_distractors19_r.png,r,2,28,001,2021-04-24_02h26.06.522,searchDisc4,2020.2.10,Win32,60,,,,space,0.249885,2,1,0.700285,,0,127,127,117,1,1b,3,1,19,
,,,,,,,,,,,,,,,,,,,,,,,,,images/exp1a_trial_32_colour3_distractors9_l.png,l,1,28,001,2021-04-24_02h26.06.522,searchDisc4,2020.2.10,Win32,60,,,,space,0.23401,1,1,0.69463,,0,128,128,32,1,1a,32,3,9,
,,,,,,,,,,,,,,,,,,,,,,,,,images/exp1a_trial_36_colour0_distractors0_r.png,r,2,28,001,2021-04-24_02h26.06.522,searchDisc4,2020.2.10,Win32,60,,,,space,0.24472,2,1,0.66637,,0,129,129,36,1,1a,36,0,0,
,,,,,,,,,,,,,,,,,,,,,,,,,images/exp2a_trial_50_colour3_distractors1_r.png,r,2,28,001,2021-04-24_02h26.06.522,searchDisc4,2020.2.10,Win32,60,,,,space,0.26682,2,1,0.61822,,0,130,130,278,1,2a,50,3,1,
,,,,,,,,,,,,,,,,,,,,,,,,,images/exp2a_trial_5_colour1_distractors43_r.png,r,2,28,001,2021-04-24_02h26.06.522,searchDisc4,2020.2.10,Win32,60,,,,space,0.1363,2,1,0.92952,,0,131,131,233,1,2a,5,1,43,
,,,,,,,,,,,,,,,,,,,,,,,,,images/exp1b_trial_86_colour2_distractors31_r.png,r,2,28,001,2021-04-24_02h26.06.522,searchDisc4,2020.2.10,Win32,60,,,,space,0.405075,2,1,0.723075,,0,132,132,200,1,1b,86,2,31,
,,,,,,,,,,,,,,,,,,,,,,,,,images/exp1b_trial_17_colour3_distractors43_r.png,r,2,28,001,2021-04-24_02h26.06.522,searchDisc4,2020.2.10,Win32,60,,,,space,0.29472,2,1,2.764295,,0,133,133,131,1,1b,17,3,43,
,,,,,,,,,,,,,,,,,,,,,,,,,images/exp2a_trial_19_colour1_distractors4_l.png,l,1,28,001,2021-04-24_02h26.06.522,searchDisc4,2020.2.10,Win32,60,,,,space,0.222655,1,1,0.73595,,0,134,134,247,1,2a,19,1,4,
,,,,,,,,,,,,,,,,,,,,,,,,,images/exp1b_trial_87_colour2_distractors43_r.png,r,2,28,001,2021-04-24_02h26.06.522,searchDisc4,2020.2.10,Win32,60,,,,space,0.231555,2,1,0.98593,,0,135,135,201,1,1b,87,2,43,
,,,,,,,,,,,,,,,,,,,,,,,,,images/exp2c_trial_55_colour3_distractors43_r.png,r,2,28,001,2021-04-24_02h26.06.522,searchDisc4,2020.2.10,Win32,60,,,,space,0.190395,2,1,0.701995,,0,136,136,511,1,2c,55,3,43,
,,,,,,,,,,,,,,,,,,,,,,,,,images/exp2c_trial_40_colour1_distractors9_r.png,r,2,28,001,2021-04-24_02h26.06.522,searchDisc4,2020.2.10,Win32,60,,,,space,0.2936,2,1,0.739905,,0,137,137,496,1,2c,40,1,9,
,,,,,,,,,,,,,,,,,,,,,,,,,images/exp2b_trial_25_colour2_distractors4_l.png,l,1,28,001,2021-04-24_02h26.06.522,searchDisc4,2020.2.10,Win32,60,,,,space,0.2094,2,0,0.454745,,0,138,138,367,1,2b,25,2,4,
,,,,,,,,,,,,,,,,,,,,,,,,,images/exp1a_trial_51_colour3_distractors4_r.png,r,2,28,001,2021-04-24_02h26.06.522,searchDisc4,2020.2.10,Win32,60,,,,space,0.664835,2,1,0.729065,,0,139,139,51,1,1a,51,3,4,
,,,,,,,,,,,,,,,,,,,,,,,,,images/exp2a_trial_47_colour2_distractors19_r.png,r,2,28,001,2021-04-24_02h26.06.522,searchDisc4,2020.2.10,Win32,60,,,,space,0.23953,2,1,0.62149,,0,140,140,275,1,2a,47,2,19,
,,,,,,,,,,,,,,,,,,,,,,,,,images/exp2b_trial_9_colour2_distractors19_r.png,r,2,28,001,2021-04-24_02h26.06.522,searchDisc4,2020.2.10,Win32,60,,,,space,0.26685,2,1,0.589265,,0,141,141,351,1,2b,9,2,19,
,,,,,,,,,,,,,,,,,,,,,,,,,images/exp1b_trial_71_colour3_distractors19_l.png,l,1,28,001,2021-04-24_02h26.06.522,searchDisc4,2020.2.10,Win32,60,,,,space,0.275785,1,1,2.22101,,0,142,142,185,1,1b,71,3,19,
,,,,,,,,,,,,,,,,,,,,,,,,,images/exp1b_trial_109_colour3_distractors19_l.png,l,1,28,001,2021-04-24_02h26.06.522,searchDisc4,2020.2.10,Win32,60,,,,space,0.323815,,0,,,0,143,143,223,1,1b,109,3,19,
,,,,,,,,,,,,,,,,,,,,,,,,,images/exp1a_trial_10_colour2_distractors31_r.png,r,2,28,001,2021-04-24_02h26.06.522,searchDisc4,2020.2.10,Win32,60,,,,space,0.76725,2,1,0.617595,,0,144,144,10,1,1a,10,2,31,
,,,,,,,,,,,,,,,,,,,,,,,,,images/exp2b_trial_5_colour1_distractors43_r.png,r,2,28,001,2021-04-24_02h26.06.522,searchDisc4,2020.2.10,Win32,60,,,,space,0.3516,2,1,0.55685,,0,145,145,347,1,2b,5,1,43,
,,,,,,,,,,,,,,,,,,,,,,,,,images/exp2a_trial_108_colour3_distractors9_l.png,l,1,28,001,2021-04-24_02h26.06.522,searchDisc4,2020.2.10,Win32,60,,,,space,0.25674,2,0,0.454175,,0,146,146,336,1,2a,108,3,9,
,,,,,,,,,,,,,,,,,,,,,,,,,images/exp2a_trial_15_colour3_distractors19_r.png,r,2,28,001,2021-04-24_02h26.06.522,searchDisc4,2020.2.10,Win32,60,,,,space,0.452555,2,1,0.57802,,0,147,147,243,1,2a,15,3,19,
,,,,,,,,,,,,,,,,,,,,,,,,,images/exp2c_trial_22_colour1_distractors31_l.png,l,1,28,001,2021-04-24_02h26.06.522,searchDisc4,2020.2.10,Win32,60,,,,space,0.20269,1,1,0.73836,,0,148,148,478,1,2c,22,1,31,
,,,,,,,,,,,,,,,,,,,,,,,,,images/exp2b_trial_67_colour2_distractors43_l.png,l,1,28,001,2021-04-24_02h26.06.522,searchDisc4,2020.2.10,Win32,60,,,,space,0.217295,1,1,0.589125,,0,149,149,409,1,2b,67,2,43,
,,,,,,,,,,,,,,,,,,,,,,,,,images/exp2c_trial_11_colour2_distractors43_r.png,r,2,28,001,2021-04-24_02h26.06.522,searchDisc4,2020.2.10,Win32,60,,,,space,0.25036,2,1,0.674125,,0,150,150,467,1,2c,11,2,43,
,,,,,,,,,,,,,,,,,,,,,,,,,images/exp2a_trial_68_colour3_distractors1_l.png,l,1,28,001,2021-04-24_02h26.06.522,searchDisc4,2020.2.10,Win32,60,,,,space,0.272315,1,1,0.523045,,0,151,151,296,1,2a,68,3,1,
,,,,,,,,,,,,,,,,,,,,,,,,,images/exp1a_trial_0_colour1_distractors1_r.png,r,2,28,001,2021-04-24_02h26.06.522,searchDisc4,2020.2.10,Win32,60,,,,space,0.333095,2,1,0.689065,,0,152,152,0,1,1a,0,1,1,
,,,,,,,,,,,,,,,,,,,,,,,,,images/exp2a_trial_30_colour3_distractors1_l.png,l,1,28,001,2021-04-24_02h26.06.522,searchDisc4,2020.2.10,Win32,60,,,,space,0.167195,1,1,0.78714,,0,153,153,258,1,2a,30,3,1,
,,,,,,,,,,,,,,,,,,,,,,,,,images/exp1b_trial_104_colour2_distractors31_l.png,l,1,28,001,2021-04-24_02h26.06.522,searchDisc4,2020.2.10,Win32,60,,,,space,0.21,1,1,1.227855,,0,154,154,218,1,1b,104,2,31,
,,,,,,,,,,,,,,,,,,,,,,,,,images/exp2a_trial_34_colour3_distractors31_l.png,l,1,28,001,2021-04-24_02h26.06.522,searchDisc4,2020.2.10,Win32,60,,,,space,0.241475,1,1,0.70644,,0,155,155,262,1,2a,34,3,31,
,,,,,,,,,,,,,,,,,,,,,,,,,images/exp2a_trial_95_colour1_distractors4_l.png,l,1,28,001,2021-04-24_02h26.06.522,searchDisc4,2020.2.10,Win32,60,,,,space,0.24816,1,1,0.606115,,0,156,156,323,1,2a,95,1,4,
,,,,,,,,,,,,,,,,,,,,,,,,,images/exp2b_trial_18_colour1_distractors1_l.png,l,1,28,001,2021-04-24_02h26.06.522,searchDisc4,2020.2.10,Win32,60,,,,space,0.313235,1,1,0.786975,,0,157,157,360,1,2b,18,1,1,
,,,,,,,,,,,,,,,,,,,,,,,,,images/exp2b_trial_68_colour3_distractors1_l.png,l,1,28,001,2021-04-24_02h26.06.522,searchDisc4,2020.2.10,Win32,60,,,,space,0.23168,1,1,0.53872,,0,158,158,410,1,2b,68,3,1,
,,,,,,,,,,,,,,,,,,,,,,,,,images/exp1a_trial_13_colour3_distractors4_r.png,r,2,28,001,2021-04-24_02h26.06.522,searchDisc4,2020.2.10,Win32,60,,,,space,0.253885,2,1,0.643295,,0,159,159,13,1,1a,13,3,4,
,,,,,,,,,,,,,,,,,,,,,,,,,images/exp1b_trial_97_colour1_distractors19_l.png,l,1,28,001,2021-04-24_02h26.06.522,searchDisc4,2020.2.10,Win32,60,,,,space,0.28315,1,1,0.70663,,0,160,160,211,1,1b,97,1,19,
,,,,,,,,,,,,,,,,,,,,,,,,,images/exp2b_trial_2_colour1_distractors9_r.png,r,2,28,001,2021-04-24_02h26.06.522,searchDisc4,2020.2.10,Win32,60,,,,space,0.317885,2,1,0.740315,,0,161,161,344,1,2b,2,1,9,
,,,,,,,,,,,,,,,,,,,,,,,,,images/exp2c_trial_94_colour1_distractors1_l.png,l,1,28,001,2021-04-24_02h26.06.522,searchDisc4,2020.2.10,Win32,60,,,,space,0.19459,1,1,0.67913,,0,162,162,550,1,2c,94,1,1,
,,,,,,,,,,,,,,,,,,,,,,,,,images/exp2b_trial_11_colour2_distractors43_r.png,r,2,28,001,2021-04-24_02h26.06.522,searchDisc4,2020.2.10,Win32,60,,,,space,0.39197,2,1,0.73909,,0,163,163,353,1,2b,11,2,43,
,,,,,,,,,,,,,,,,,,,,,,,,,images/exp1b_trial_0_colour1_distractors1_r.png,r,2,28,001,2021-04-24_02h26.06.522,searchDisc4,2020.2.10,Win32,60,,,,space,0.23112,2,1,0.8704,,0,164,164,114,1,1b,0,1,1,
,,,,,,,,,,,,,,,,,,,,,,,,,images/exp2c_trial_110_colour3_distractors31_l.png,l,1,28,001,2021-04-24_02h26.06.522,searchDisc4,2020.2.10,Win32,60,,,,space,0.240505,1,1,0.651155,,0,165,165,566,1,2c,110,3,31,
,,,,,,,,,,,,,,,,,,,,,,,,,images/exp2b_trial_112_colour0_distractors0_r.png,r,2,28,001,2021-04-24_02h26.06.522,searchDisc4,2020.2.10,Win32,60,,,,space,0.201725,2,1,0.74906,,0,166,166,454,1,2b,112,0,0,
,,,,,,,,,,,,,,,,,,,,,,,,,images/exp2a_trial_88_colour3_distractors1_r.png,r,2,28,001,2021-04-24_02h26.06.522,searchDisc4,2020.2.10,Win32,60,,,,space,0.2527,2,1,0.651255,,0,167,167,316,1,2a,88,3,1,
,,,,,,,,,,,,,,,,,,,,,,,,,images/exp2c_trial_69_colour3_distractors4_l.png,l,1,28,001,2021-04-24_02h26.06.522,searchDisc4,2020.2.10,Win32,60,,,,space,0.217685,1,1,0.663725,,0,168,168,525,1,2c,69,3,4,
,,,,,,,,,,,,,,,,,,,,,,,,,images/exp1a_trial_26_colour2_distractors9_l.png,l,1,28,001,2021-04-24_02h26.06.522,searchDisc4,2020.2.10,Win32,60,,,,space,0.222565,1,1,0.78027,,0,169,169,26,1,1a,26,2,9,
,,,,,,,,,,,,,,,,,,,,,,,,,images/exp2c_trial_25_colour2_distractors4_l.png,l,1,28,001,2021-04-24_02h26.06.522,searchDisc4,2020.2.10,Win32,60,,,,space,0.33161,1,1,0.60558,,0,170,170,481,1,2c,25,2,4,
,,,,,,,,,,,,,,,,,,,,,,,,,images/exp2b_trial_104_colour2_distractors31_l.png,l,1,28,001,2021-04-24_02h26.06.522,searchDisc4,2020.2.10,Win32,60,,,,space,0.168015,1,1,0.53078,,0,171,171,446,1,2b,104,2,31,
,,,,,,,,,,,,,,,,,,,,,,,,,images/exp1a_trial_98_colour1_distractors31_l.png,l,1,28,001,2021-04-24_02h26.06.522,searchDisc4,2020.2.10,Win32,60,,,,space,0.12463,1,1,0.72182,,0,172,172,98,1,1a,98,1,31,
,,,,,,,,,,,,,,,,,,,,,,,,,images/exp2b_trial_69_colour3_distractors4_l.png,l,1,28,001,2021-04-24_02h26.06.522,searchDisc4,2020.2.10,Win32,60,,,,space,0.198875,1,1,0.71287,,0,173,173,411,1,2b,69,3,4,
,,,,,,,,,,,,,,,,,,,,,,,,,images/exp1b_trial_77_colour1_distractors4_r.png,r,2,28,001,2021-04-24_02h26.06.522,searchDisc4,2020.2.10,Win32,60,,,,space,0.11463,2,1,0.78121,,0,174,174,191,1,1b,77,1,4,
,,,,,,,,,,,,,,,,,,,,,,,,,images/exp1b_trial_27_colour2_distractors19_l.png,l,1,28,001,2021-04-24_02h26.06.522,searchDisc4,2020.2.10,Win32,60,,,,space,0.13475,2,0,0.67865,,0,175,175,141,1,1b,27,2,19,
,,,,,,,,,,,,,,,,,,,,,,,,,images/exp2a_trial_73_colour3_distractors43_l.png,l,1,28,001,2021-04-24_02h26.06.522,searchDisc4,2020.2.10,Win32,60,,,,space,1.223,2,0,0.99106,,0,176,176,301,1,2a,73,3,43,
,,,,,,,,,,,,,,,,,,,,,,,,,images/exp2b_trial_100_colour2_distractors1_l.png,l,1,28,001,2021-04-24_02h26.06.522,searchDisc4,2020.2.10,Win32,60,,,,space,0.717075,1,1,0.725455,,0,177,177,442,1,2b,100,2,1,
,,,,,,,,,,,,,,,,,,,,,,,,,images/exp2c_trial_16_colour3_distractors31_r.png,r,2,28,001,2021-04-24_02h26.06.522,searchDisc4,2020.2.10,Win32,60,,,,space,0.23254,2,1,0.72077,,0,178,178,472,1,2c,16,3,31,
,,,,,,,,,,,,,,,,,,,,,,,,,images/exp1b_trial_58_colour1_distractors9_l.png,l,1,28,001,2021-04-24_02h26.06.522,searchDisc4,2020.2.10,Win32,60,,,,space,0.158035,1,1,0.723705,space,0,179,179,172,1,1b,58,1,9,0.136105
,,,,,,,,,,,,,,,,,,,,,,,,,images/exp2b_trial_15_colour3_distractors19_r.png,r,2,28,001,2021-04-24_02h26.06.522,searchDisc4,2020.2.10,Win32,60,,,,space,2.44136,2,1,0.88691,,0,180,180,357,1,2b,15,3,19,
,,,,,,,,,,,,,,,,,,,,,,,,,images/exp2a_trial_59_colour1_distractors19_l.png,l,1,28,001,2021-04-24_02h26.06.522,searchDisc4,2020.2.10,Win32,60,,,,space,0.151535,1,1,0.878255,,0,181,181,287,1,2a,59,1,19,
,,,,,,,,,,,,,,,,,,,,,,,,,images/exp2a_trial_4_colour1_distractors31_r.png,r,2,28,001,2021-04-24_02h26.06.522,searchDisc4,2020.2.10,Win32,60,,,,space,0.17336,2,1,1.611255,,0,182,182,232,1,2a,4,1,31,
,,,,,,,,,,,,,,,,,,,,,,,,,images/exp1b_trial_55_colour3_distractors43_r.png,r,2,28,001,2021-04-24_02h26.06.522,searchDisc4,2020.2.10,Win32,60,,,,space,0.1416,2,1,4.60305,,0,183,183,169,1,1b,55,3,43,
,,,,,,,,,,,,,,,,,,,,,,,,,images/exp2c_trial_51_colour3_distractors4_r.png,r,2,28,001,2021-04-24_02h26.06.522,searchDisc4,2020.2.10,Win32,60,,,,space,0.215435,2,1,0.66477,,0,184,184,507,1,2c,51,3,4,
,,,,,,,,,,,,,,,,,,,,,,,,,images/exp1b_trial_64_colour2_distractors9_l.png,l,1,28,001,2021-04-24_02h26.06.522,searchDisc4,2020.2.10,Win32,60,,,,space,0.226345,1,1,1.17373,,0,185,185,178,1,1b,64,2,9,
,,,,,,,,,,,,,,,,,,,,,,,,,images/exp2c_trial_70_colour3_distractors9_l.png,l,1,28,001,2021-04-24_02h26.06.522,searchDisc4,2020.2.10,Win32,60,,,,space,0.250295,1,1,1.111655,,0,186,186,526,1,2c,70,3,9,
,,,,,,,,,,,,,,,,,,,,,,,,,images/exp2b_trial_19_colour1_distractors4_l.png,l,1,28,001,2021-04-24_02h26.06.522,searchDisc4,2020.2.10,Win32,60,,,,space,0.234515,1,1,0.548565,,0,187,187,361,1,2b,19,1,4,
,,,,,,,,,,,,,,,,,,,,,,,,,images/exp2a_trial_39_colour1_distractors4_r.png,r,2,28,001,2021-04-24_02h26.06.522,searchDisc4,2020.2.10,Win32,60,,,,space,0.264815,2,1,0.69621,,0,188,188,267,1,2a,39,1,4,
,,,,,,,,,,,,,,,,,,,,,,,,,images/exp1a_trial_77_colour1_distractors4_r.png,r,2,28,001,2021-04-24_02h26.06.522,searchDisc4,2020.2.10,Win32,60,,,,space,0.2337,2,1,0.61493,,0,189,189,77,1,1a,77,1,4,
,,,,,,,,,,,,,,,,,,,,,,,,,images/exp2b_trial_0_colour1_distractors1_r.png,r,2,28,001,2021-04-24_02h26.06.522,searchDisc4,2020.2.10,Win32,60,,,,space,0.29532,2,1,0.61943,,0,190,190,342,1,2b,0,1,1,
,,,,,,,,,,,,,,,,,,,,,,,,,images/exp1a_trial_50_colour3_distractors1_r.png,r,2,28,001,2021-04-24_02h26.06.522,searchDisc4,2020.2.10,Win32,60,,,,space,0.1836,2,1,0.777255,,0,191,191,50,1,1a,50,3,1,
,,,,,,,,,,,,,,,,,,,,,,,,,images/exp2b_trial_3_colour1_distractors19_r.png,r,2,28,001,2021-04-24_02h26.06.522,searchDisc4,2020.2.10,Win32,60,,,,space,0.181705,2,1,0.54174,,0,192,192,345,1,2b,3,1,19,
,,,,,,,,,,,,,,,,,,,,,,,,,images/exp2b_trial_105_colour2_distractors43_l.png,l,1,28,001,2021-04-24_02h26.06.522,searchDisc4,2020.2.10,Win32,60,,,,space,0.151255,1,1,0.710485,,0,193,193,447,1,2b,105,2,43,
,,,,,,,,,,,,,,,,,,,,,,,,,images/exp2c_trial_61_colour1_distractors43_l.png,l,1,28,001,2021-04-24_02h26.06.522,searchDisc4,2020.2.10,Win32,60,,,,space,0.237365,1,1,0.641965,,0,194,194,517,1,2c,61,1,43,
,,,,,,,,,,,,,,,,,,,,,,,,,images/exp2b_trial_92_colour3_distractors31_r.png,r,2,28,001,2021-04-24_02h26.06.522,searchDisc4,2020.2.10,Win32,60,,,,space,0.267875,2,1,0.680515,,0,195,195,434,1,2b,92,3,31,
,,,,,,,,,,,,,,,,,,,,,,,,,images/exp1a_trial_101_colour2_distractors4_l.png,l,1,28,001,2021-04-24_02h26.06.522,searchDisc4,2020.2.10,Win32,60,,,,space,0.22074,1,1,0.46941,,0,196,196,101,1,1a,101,2,4,
,,,,,,,,,,,,,,,,,,,,,,,,,images/exp2a_trial_41_colour1_distractors19_r.png,r,2,28,001,2021-04-24_02h26.06.522,searchDisc4,2020.2.10,Win32,60,,,,space,0.23374,2,1,0.72591,,0,197,197,269,1,2a,41,1,19,
,,,,,,,,,,,,,,,,,,,,,,,,,images/exp2a_trial_40_colour1_distractors9_r.png,r,2,28,001,2021-04-24_02h26.06.522,searchDisc4,2020.2.10,Win32,60,,,,space,0.18856,2,1,0.61442,,0,198,198,268,1,2a,40,1,9,
,,,,,,,,,,,,,,,,,,,,,,,,,images/exp1a_trial_85_colour2_distractors19_r.png,r,2,28,001,2021-04-24_02h26.06.522,searchDisc4,2020.2.10,Win32,60,,,,space,0.233245,2,1,1.119665,,0,199,199,85,1,1a,85,2,19,
,,,,,,,,,,,,,,,,,,,,,,,,,images/exp1a_trial_93_colour3_distractors43_r.png,r,2,28,001,2021-04-24_02h26.06.522,searchDisc4,2020.2.10,Win32,60,,,,space,0.08409,2,1,0.714055,,0,200,200,93,1,1a,93,3,43,
,,,,,,,,,,,,,,,,,,,,,,,,,images/exp2b_trial_96_colour1_distractors9_l.png,l,1,28,001,2021-04-24_02h26.06.522,searchDisc4,2020.2.10,Win32,60,,,,space,0.026715,1,1,1.02759,,0,201,201,438,1,2b,96,1,9,
,,,,,,,,,,,,,,,,,,,,,,,,,images/exp1b_trial_18_colour1_distractors1_l.png,l,1,28,001,2021-04-24_02h26.06.522,searchDisc4,2020.2.10,Win32,60,,,,space,0.50138,1,1,0.87258,,0,202,202,132,1,1b,18,1,1,
,,,,,,,,,,,,,,,,,,,,,,,,,images/exp1b_trial_70_colour3_distractors9_l.png,l,1,28,001,2021-04-24_02h26.06.522,searchDisc4,2020.2.10,Win32,60,,,,space,0.100435,1,1,0.934125,,0,203,203,184,1,1b,70,3,9,
,,,,,,,,,,,,,,,,,,,,,,,,,images/exp2b_trial_47_colour2_distractors19_r.png,r,2,28,001,2021-04-24_02h26.06.522,searchDisc4,2020.2.10,Win32,60,,,,space,0.038495,2,1,0.79289,,0,204,204,389,1,2b,47,2,19,
,,,,,,,,,,,,,,,,,,,,,,,,,images/exp2b_trial_29_colour2_distractors43_l.png,l,1,28,001,2021-04-24_02h26.06.522,searchDisc4,2020.2.10,Win32,60,,,,space,0.022525,1,1,1.31345,,0,205,205,371,1,2b,29,2,43,
,,,,,,,,,,,,,,,,,,,,,,,,,images/exp2a_trial_97_colour1_distractors19_l.png,l,1,28,001,2021-04-24_02h26.06.522,searchDisc4,2020.2.10,Win32,60,,,,space,0.033325,1,1,1.14732,,0,206,206,325,1,2a,97,1,19,
,,,,,,,,,,,,,,,,,,,,,,,,,images/exp2c_trial_53_colour3_distractors19_r.png,r,2,28,001,2021-04-24_02h26.06.522,searchDisc4,2020.2.10,Win32,60,,,,space,0.034775,2,1,1.740165,,0,207,207,509,1,2c,53,3,19,
,,,,,,,,,,,,,,,,,,,,,,,,,images/exp1b_trial_76_colour1_distractors1_r.png,r,2,28,001,2021-04-24_02h26.06.522,searchDisc4,2020.2.10,Win32,60,,,,space,0.038125,2,1,1.524695,,0,208,208,190,1,1b,76,1,1,
,,,,,,,,,,,,,,,,,,,,,,,,,images/exp2c_trial_48_colour2_distractors31_r.png,r,2,28,001,2021-04-24_02h26.06.522,searchDisc4,2020.2.10,Win32,60,,,,space,0.06071,2,1,1.142715,,0,209,209,504,1,2c,48,2,31,
,,,,,,,,,,,,,,,,,,,,,,,,,images/exp2c_trial_104_colour2_distractors31_l.png,l,1,28,001,2021-04-24_02h26.06.522,searchDisc4,2020.2.10,Win32,60,,,,space,0.117475,1,1,0.722475,,0,210,210,560,1,2c,104,2,31,
,,,,,,,,,,,,,,,,,,,,,,,,,images/exp2a_trial_22_colour1_distractors31_l.png,l,1,28,001,2021-04-24_02h26.06.522,searchDisc4,2020.2.10,Win32,60,,,,space,0.093275,1,1,1.100695,,0,211,211,250,1,2a,22,1,31,
,,,,,,,,,,,,,,,,,,,,,,,,,images/exp1a_trial_27_colour2_distractors19_l.png,l,1,28,001,2021-04-24_02h26.06.522,searchDisc4,2020.2.10,Win32,60,,,,space,0.11405,1,1,0.730585,,0,212,212,27,1,1a,27,2,19,
,,,,,,,,,,,,,,,,,,,,,,,,,images/exp1a_trial_33_colour3_distractors19_l.png,l,1,28,001,2021-04-24_02h26.06.522,searchDisc4,2020.2.10,Win32,60,,,,space,0.0349,1,1,0.670445,,0,213,213,33,1,1a,33,3,19,
,,,,,,,,,,,,,,,,,,,,,,,,,images/exp2a_trial_44_colour2_distractors1_r.png,r,2,28,001,2021-04-24_02h26.06.522,searchDisc4,2020.2.10,Win32,60,,,,space,0.033635,2,1,1.64774,,0,214,214,272,1,2a,44,2,1,
,,,,,,,,,,,,,,,,,,,,,,,,,images/exp2a_trial_38_colour1_distractors1_r.png,r,2,28,001,2021-04-24_02h26.06.522,searchDisc4,2020.2.10,Win32,60,,,,space,0.057175,2,1,0.994595,,0,215,215,266,1,2a,38,1,1,
,,,,,,,,,,,,,,,,,,,,,,,,,images/exp1b_trial_54_colour3_distractors31_r.png,r,2,28,001,2021-04-24_02h26.06.522,searchDisc4,2020.2.10,Win32,60,,,,space,0.058105,2,1,0.80034,,0,216,216,168,1,1b,54,3,31,
,,,,,,,,,,,,,,,,,,,,,,,,,images/exp1a_trial_44_colour2_distractors1_r.png,r,2,28,001,2021-04-24_02h26.06.522,searchDisc4,2020.2.10,Win32,60,,,,space,0.03823,2,1,0.838435,,0,217,217,44,1,1a,44,2,1,
,,,,,,,,,,,,,,,,,,,,,,,,,images/exp2c_trial_2_colour1_distractors9_r.png,r,2,28,001,2021-04-24_02h26.06.522,searchDisc4,2020.2.10,Win32,60,,,,space,0.03429,1,0,0.704175,,0,218,218,458,1,2c,2,1,9,
,,,,,,,,,,,,,,,,,,,,,,,,,images/exp2b_trial_82_colour2_distractors1_r.png,r,2,28,001,2021-04-24_02h26.06.522,searchDisc4,2020.2.10,Win32,60,,,,space,0.04929,1,0,0.543555,,0,219,219,424,1,2b,82,2,1,
,,,,,,,,,,,,,,,,,,,,,,,,,images/exp2c_trial_71_colour3_distractors19_l.png,l,1,28,001,2021-04-24_02h26.06.522,searchDisc4,2020.2.10,Win32,60,,,,space,0.00802,1,1,0.9348,,0,220,220,527,1,2c,71,3,19,
,,,,,,,,,,,,,,,,,,,,,,,,,images/exp2b_trial_13_colour3_distractors4_r.png,r,2,28,001,2021-04-24_02h26.06.522,searchDisc4,2020.2.10,Win32,60,,,,space,0.01117,2,1,1.21854,,0,221,221,355,1,2b,13,3,4,
,,,,,,,,,,,,,,,,,,,,,,,,,images/exp1b_trial_81_colour1_distractors43_r.png,r,2,28,001,2021-04-24_02h26.06.522,searchDisc4,2020.2.10,Win32,60,,,,space,0.014155,2,1,1.336395,,0,222,222,195,1,1b,81,1,43,
,,,,,,,,,,,,,,,,,,,,,,,,,images/exp2b_trial_55_colour3_distractors43_r.png,r,2,28,001,2021-04-24_02h26.06.522,searchDisc4,2020.2.10,Win32,60,,,,space,0.09075,2,1,1.00685,,0,223,223,397,1,2b,55,3,43,
,,,,,,,,,,,,,,,,,,,,,,,,,images/exp2c_trial_59_colour1_distractors19_l.png,l,1,28,001,2021-04-24_02h26.06.522,searchDisc4,2020.2.10,Win32,60,,,,space,0.108625,1,1,0.88172,,0,224,224,515,1,2c,59,1,19,
,,,,,,,,,,,,,,,,,,,,,,,,,images/exp1b_trial_39_colour1_distractors4_r.png,r,2,28,001,2021-04-24_02h26.06.522,searchDisc4,2020.2.10,Win32,60,,,,space,0.066235,1,0,0.95712,,0,225,225,153,1,1b,39,1,4,
,,,,,,,,,,,,,,,,,,,,,,,,,images/exp2a_trial_76_colour1_distractors1_r.png,r,2,28,001,2021-04-24_02h26.06.522,searchDisc4,2020.2.10,Win32,60,,,,space,0.05535,2,1,1.870395,,0,226,226,304,1,2a,76,1,1,
,,,,,,,,,,,,,,,,,,,,,,,,,images/exp2a_trial_7_colour2_distractors4_r.png,r,2,28,001,2021-04-24_02h26.06.522,searchDisc4,2020.2.10,Win32,60,,,,space,0.00951,2,1,0.458275,,0,227,227,235,1,2a,7,2,4,
,,,,,,,,,,,,,,,,,,,,,,,,,images/exp1a_trial_109_colour3_distractors19_l.png,l,1,28,001,2021-04-24_02h26.06.522,searchDisc4,2020.2.10,Win32,60,,,,space,0.100215,1,1,0.852525,,0,228,228,109,1,1a,109,3,19,
,,,,,,,,,,,,,,,,,,,,,,,,,images/exp1b_trial_12_colour3_distractors1_r.png,r,2,28,001,2021-04-24_02h26.06.522,searchDisc4,2020.2.10,Win32,60,,,,space,0.042665,2,1,1.29124,,0,229,229,126,1,1b,12,3,1,
,,,,,,,,,,,,,,,,,,,,,,,,,images/exp2c_trial_18_colour1_distractors1_l.png,l,1,28,001,2021-04-24_02h26.06.522,searchDisc4,2020.2.10,Win32,60,,,,space,0.01715,1,1,0.77279,,0,230,230,474,1,2c,18,1,1,
,,,,,,,,,,,,,,,,,,,,,,,,,images/exp2b_trial_46_colour2_distractors9_r.png,r,2,28,001,2021-04-24_02h26.06.522,searchDisc4,2020.2.10,Win32,60,,,,space,0.00871,2,1,0.996945,,0,231,231,388,1,2b,46,2,9,
,,,,,,,,,,,,,,,,,,,,,,,,,images/exp2b_trial_98_colour1_distractors31_l.png,l,1,28,001,2021-04-24_02h26.06.522,searchDisc4,2020.2.10,Win32,60,,,,space,1.48311,1,1,1.069325,,0,232,232,440,1,2b,98,1,31,
,,,,,,,,,,,,,,,,,,,,,,,,,images/exp2c_trial_102_colour2_distractors9_l.png,l,1,28,001,2021-04-24_02h26.06.522,searchDisc4,2020.2.10,Win32,60,,,,space,0.10688,1,1,1.309145,,0,233,233,558,1,2c,102,2,9,
,,,,,,,,,,,,,,,,,,,,,,,,,images/exp2a_trial_66_colour2_distractors31_l.png,l,1,28,001,2021-04-24_02h26.06.522,searchDisc4,2020.2.10,Win32,60,,,,space,0.182755,1,1,1.469295,,0,234,234,294,1,2a,66,2,31,
,,,,,,,,,,,,,,,,,,,,,,,,,images/exp2a_trial_102_colour2_distractors9_l.png,l,1,28,001,2021-04-24_02h26.06.522,searchDisc4,2020.2.10,Win32,60,,,,space,0.12397,1,1,0.81223,,0,235,235,330,1,2a,102,2,9,
,,,,,,,,,,,,,,,,,,,,,,,,,images/exp2a_trial_62_colour2_distractors1_l.png,l,1,28,001,2021-04-24_02h26.06.522,searchDisc4,2020.2.10,Win32,60,,,,space,0.10065,1,1,0.87137,,0,236,236,290,1,2a,62,2,1,
,,,,,,,,,,,,,,,,,,,,,,,,,images/exp2a_trial_113_colour0_distractors0_l.png,l,1,28,001,2021-04-24_02h26.06.522,searchDisc4,2020.2.10,Win32,60,,,,space,0.06932,1,1,1.2229,,0,237,237,341,1,2a,113,0,0,
,,,,,,,,,,,,,,,,,,,,,,,,,images/exp2c_trial_76_colour1_distractors1_r.png,r,2,28,001,2021-04-24_02h26.06.522,searchDisc4,2020.2.10,Win32,60,,,,space,0.032405,2,1,0.6246,,0,238,238,532,1,2c,76,1,1,
,,,,,,,,,,,,,,,,,,,,,,,,,images/exp2c_trial_112_colour0_distractors0_r.png,r,2,28,001,2021-04-24_02h26.06.522,searchDisc4,2020.2.10,Win32,60,,,,space,0.015595,2,1,1.383585,space,0,239,239,568,1,2c,112,0,0,0.00969
,,,,,,,,,,,,,,,,,,,,,,,,,images/exp2b_trial_52_colour3_distractors9_r.png,r,2,28,001,2021-04-24_02h26.06.522,searchDisc4,2020.2.10,Win32,60,,,,space,4.803685,2,1,0.64166,,0,240,240,394,1,2b,52,3,9,
,,,,,,,,,,,,,,,,,,,,,,,,,images/exp2b_trial_34_colour3_distractors31_l.png,l,1,28,001,2021-04-24_02h26.06.522,searchDisc4,2020.2.10,Win32,60,,,,space,0.22659,1,1,1.33512,,0,241,241,376,1,2b,34,3,31,
,,,,,,,,,,,,,,,,,,,,,,,,,images/exp2a_trial_71_colour3_distractors19_l.png,l,1,28,001,2021-04-24_02h26.06.522,searchDisc4,2020.2.10,Win32,60,,,,space,0.08248,1,1,0.462335,,0,242,242,299,1,2a,71,3,19,
,,,,,,,,,,,,,,,,,,,,,,,,,images/exp2b_trial_94_colour1_distractors1_l.png,l,1,28,001,2021-04-24_02h26.06.522,searchDisc4,2020.2.10,Win32,60,,,,space,0.1543,1,1,0.60556,,0,243,243,436,1,2b,94,1,1,
,,,,,,,,,,,,,,,,,,,,,,,,,images/exp2a_trial_90_colour3_distractors9_r.png,r,2,28,001,2021-04-24_02h26.06.522,searchDisc4,2020.2.10,Win32,60,,,,space,0.04113,2,1,0.79047,,0,244,244,318,1,2a,90,3,9,
,,,,,,,,,,,,,,,,,,,,,,,,,images/exp1b_trial_42_colour1_distractors31_r.png,r,2,28,001,2021-04-24_02h26.06.522,searchDisc4,2020.2.10,Win32,60,,,,space,1.592135,2,1,0.68711,,0,245,245,156,1,1b,42,1,31,
,,,,,,,,,,,,,,,,,,,,,,,,,images/exp1a_trial_12_colour3_distractors1_r.png,r,2,28,001,2021-04-24_02h26.06.522,searchDisc4,2020.2.10,Win32,60,,,,space,0.06234,2,1,0.93957,,0,246,246,12,1,1a,12,3,1,
,,,,,,,,,,,,,,,,,,,,,,,,,images/exp2a_trial_55_colour3_distractors43_r.png,r,2,28,001,2021-04-24_02h26.06.522,searchDisc4,2020.2.10,Win32,60,,,,space,0.09945,2,1,0.959115,,0,247,247,283,1,2a,55,3,43,
,,,,,,,,,,,,,,,,,,,,,,,,,images/exp2c_trial_108_colour3_distractors9_l.png,l,1,28,001,2021-04-24_02h26.06.522,searchDisc4,2020.2.10,Win32,60,,,,space,0.17501,1,1,0.7752,,0,248,248,564,1,2c,108,3,9,
,,,,,,,,,,,,,,,,,,,,,,,,,images/exp2b_trial_72_colour3_distractors31_l.png,l,1,28,001,2021-04-24_02h26.06.522,searchDisc4,2020.2.10,Win32,60,,,,space,0.099095,1,1,0.89358,,0,249,249,414,1,2b,72,3,31,
,,,,,,,,,,,,,,,,,,,,,,,,,images/exp1a_trial_102_colour2_distractors9_l.png,l,1,28,001,2021-04-24_02h26.06.522,searchDisc4,2020.2.10,Win32,60,,,,space,0.060175,1,1,0.629005,,0,250,250,102,1,1a,102,2,9,
,,,,,,,,,,,,,,,,,,,,,,,,,images/exp2c_trial_37_colour0_distractors0_l.png,l,1,28,001,2021-04-24_02h26.06.522,searchDisc4,2020.2.10,Win32,60,,,,space,0.021225,1,1,0.57879,,0,251,251,493,1,2c,37,0,0,
,,,,,,,,,,,,,,,,,,,,,,,,,images/exp1a_trial_92_colour3_distractors31_r.png,r,2,28,001,2021-04-24_02h26.06.522,searchDisc4,2020.2.10,Win32,60,,,,space,0.03413,2,1,0.84143,,0,252,252,92,1,1a,92,3,31,
,,,,,,,,,,,,,,,,,,,,,,,,,images/exp2c_trial_67_colour2_distractors43_l.png,l,1,28,001,2021-04-24_02h26.06.522,searchDisc4,2020.2.10,Win32,60,,,,space,0.022895,1,1,0.806095,,0,253,253,523,1,2c,67,2,43,
,,,,,,,,,,,,,,,,,,,,,,,,,images/exp2c_trial_97_colour1_distractors19_l.png,l,1,28,001,2021-04-24_02h26.06.522,searchDisc4,2020.2.10,Win32,60,,,,space,0.04383,1,1,0.96502,,0,254,254,553,1,2c,97,1,19,
,,,,,,,,,,,,,,,,,,,,,,,,,images/exp2b_trial_74_colour0_distractors0_r.png,r,2,28,001,2021-04-24_02h26.06.522,searchDisc4,2020.2.10,Win32,60,,,,space,0.03139,2,1,0.806545,,0,255,255,416,1,2b,74,0,0,
,,,,,,,,,,,,,,,,,,,,,,,,,images/exp1a_trial_67_colour2_distractors43_l.png,l,1,28,001,2021-04-24_02h26.06.522,searchDisc4,2020.2.10,Win32,60,,,,space,0.00063,1,1,1.29351,,0,256,256,67,1,1a,67,2,43,
,,,,,,,,,,,,,,,,,,,,,,,,,images/exp2b_trial_38_colour1_distractors1_r.png,r,2,28,001,2021-04-24_02h26.06.522,searchDisc4,2020.2.10,Win32,60,,,,space,0.034885,2,1,0.75818,,0,257,257,380,1,2b,38,1,1,
,,,,,,,,,,,,,,,,,,,,,,,,,images/exp2c_trial_85_colour2_distractors19_r.png,r,2,28,001,2021-04-24_02h26.06.522,searchDisc4,2020.2.10,Win32,60,,,,space,0.950285,2,1,0.757845,,0,258,258,541,1,2c,85,2,19,
,,,,,,,,,,,,,,,,,,,,,,,,,images/exp1a_trial_66_colour2_distractors31_l.png,l,1,28,001,2021-04-24_02h26.06.522,searchDisc4,2020.2.10,Win32,60,,,,space,0.000555,1,1,0.938985,,0,259,259,66,1,1a,66,2,31,
,,,,,,,,,,,,,,,,,,,,,,,,,images/exp2c_trial_63_colour2_distractors4_l.png,l,1,28,001,2021-04-24_02h26.06.522,searchDisc4,2020.2.10,Win32,60,,,,space,0.032225,1,1,0.7322,,0,260,260,519,1,2c,63,2,4,
,,,,,,,,,,,,,,,,,,,,,,,,,images/exp2a_trial_106_colour3_distractors1_l.png,l,1,28,001,2021-04-24_02h26.06.522,searchDisc4,2020.2.10,Win32,60,,,,space,0.000555,1,1,0.890605,,0,261,261,334,1,2a,106,3,1,
,,,,,,,,,,,,,,,,,,,,,,,,,images/exp1b_trial_72_colour3_distractors31_l.png,l,1,28,001,2021-04-24_02h26.06.522,searchDisc4,2020.2.10,Win32,60,,,,space,0.00704,1,1,1.268975,,0,262,262,186,1,1b,72,3,31,
,,,,,,,,,,,,,,,,,,,,,,,,,images/exp1b_trial_38_colour1_distractors1_r.png,r,2,28,001,2021-04-24_02h26.06.522,searchDisc4,2020.2.10,Win32,60,,,,space,0.01943,2,1,0.84057,,0,263,263,152,1,1b,38,1,1,
,,,,,,,,,,,,,,,,,,,,,,,,,images/exp1a_trial_22_colour1_distractors31_l.png,l,1,28,001,2021-04-24_02h26.06.522,searchDisc4,2020.2.10,Win32,60,,,,space,0.000605,1,1,0.666825,,0,264,264,22,1,1a,22,1,31,
,,,,,,,,,,,,,,,,,,,,,,,,,images/exp2a_trial_33_colour3_distractors19_l.png,l,1,28,001,2021-04-24_02h26.06.522,searchDisc4,2020.2.10,Win32,60,,,,space,0.023095,1,1,0.81258,,0,265,265,261,1,2a,33,3,19,
,,,,,,,,,,,,,,,,,,,,,,,,,images/exp1b_trial_25_colour2_distractors4_l.png,l,1,28,001,2021-04-24_02h26.06.522,searchDisc4,2020.2.10,Win32,60,,,,space,0.00063,1,1,1.12235,,0,266,266,139,1,1b,25,2,4,
,,,,,,,,,,,,,,,,,,,,,,,,,images/exp1b_trial_52_colour3_distractors9_r.png,r,2,28,001,2021-04-24_02h26.06.522,searchDisc4,2020.2.10,Win32,60,,,,space,0.002945,1,0,1.139055,,0,267,267,166,1,1b,52,3,9,
,,,,,,,,,,,,,,,,,,,,,,,,,images/exp2b_trial_48_colour2_distractors31_r.png,r,2,28,001,2021-04-24_02h26.06.522,searchDisc4,2020.2.10,Win32,60,,,,space,0.00398,2,1,0.963385,,0,268,268,390,1,2b,48,2,31,
,,,,,,,,,,,,,,,,,,,,,,,,,images/exp2a_trial_69_colour3_distractors4_l.png,l,1,28,001,2021-04-24_02h26.06.522,searchDisc4,2020.2.10,Win32,60,,,,space,0.012455,1,1,0.754365,,0,269,269,297,1,2a,69,3,4,
,,,,,,,,,,,,,,,,,,,,,,,,,images/exp2b_trial_66_colour2_distractors31_l.png,l,1,28,001,2021-04-24_02h26.06.522,searchDisc4,2020.2.10,Win32,60,,,,space,1.03414,1,1,0.720415,,0,270,270,408,1,2b,66,2,31,
,,,,,,,,,,,,,,,,,,,,,,,,,images/exp2c_trial_79_colour1_distractors19_r.png,r,2,28,001,2021-04-24_02h26.06.522,searchDisc4,2020.2.10,Win32,60,,,,space,0.032625,2,1,0.685525,,0,271,271,535,1,2c,79,1,19,
,,,,,,,,,,,,,,,,,,,,,,,,,images/exp1b_trial_106_colour3_distractors1_l.png,l,1,28,001,2021-04-24_02h26.06.522,searchDisc4,2020.2.10,Win32,60,,,,space,0.75514,1,1,1.57809,,0,272,272,220,1,1b,106,3,1,
,,,,,,,,,,,,,,,,,,,,,,,,,images/exp2a_trial_78_colour1_distractors9_r.png,r,2,28,001,2021-04-24_02h26.06.522,searchDisc4,2020.2.10,Win32,60,,,,space,0.03791,2,1,1.05391,,0,273,273,306,1,2a,78,1,9,
,,,,,,,,,,,,,,,,,,,,,,,,,images/exp2a_trial_27_colour2_distractors19_l.png,l,1,28,001,2021-04-24_02h26.06.522,searchDisc4,2020.2.10,Win32,60,,,,space,0.001335,1,1,0.737375,,0,274,274,255,1,2a,27,2,19,
,,,,,,,,,,,,,,,,,,,,,,,,,images/exp2a_trial_89_colour3_distractors4_r.png,r,2,28,001,2021-04-24_02h26.06.522,searchDisc4,2020.2.10,Win32,60,,,,space,0.87726,2,1,0.647925,,0,275,275,317,1,2a,89,3,4,
,,,,,,,,,,,,,,,,,,,,,,,,,images/exp2b_trial_110_colour3_distractors31_l.png,l,1,28,001,2021-04-24_02h26.06.522,searchDisc4,2020.2.10,Win32,60,,,,space,0.031645,1,1,0.96404,,0,276,276,452,1,2b,110,3,31,
,,,,,,,,,,,,,,,,,,,,,,,,,images/exp1a_trial_75_colour0_distractors0_l.png,l,1,28,001,2021-04-24_02h26.06.522,searchDisc4,2020.2.10,Win32,60,,,,space,0.000625,1,1,0.931255,,0,277,277,75,1,1a,75,0,0,
,,,,,,,,,,,,,,,,,,,,,,,,,images/exp2c_trial_34_colour3_distractors31_l.png,l,1,28,001,2021-04-24_02h26.06.522,searchDisc4,2020.2.10,Win32,60,,,,space,0.015345,1,1,0.610495,,0,278,278,490,1,2c,34,3,31,
,,,,,,,,,,,,,,,,,,,,,,,,,images/exp2c_trial_28_colour2_distractors31_l.png,l,1,28,001,2021-04-24_02h26.06.522,searchDisc4,2020.2.10,Win32,60,,,,space,0.01245,1,1,1.512175,,0,279,279,484,1,2c,28,2,31,
,,,,,,,,,,,,,,,,,,,,,,,,,images/exp2c_trial_36_colour0_distractors0_r.png,r,2,28,001,2021-04-24_02h26.06.522,searchDisc4,2020.2.10,Win32,60,,,,space,1.3652,1,0,0.925455,,0,280,280,492,1,2c,36,0,0,
,,,,,,,,,,,,,,,,,,,,,,,,,images/exp2a_trial_99_colour1_distractors43_l.png,l,1,28,001,2021-04-24_02h26.06.522,searchDisc4,2020.2.10,Win32,60,,,,space,0.02775,1,1,0.98782,,0,281,281,327,1,2a,99,1,43,
,,,,,,,,,,,,,,,,,,,,,,,,,images/exp2b_trial_79_colour1_distractors19_r.png,r,2,28,001,2021-04-24_02h26.06.522,searchDisc4,2020.2.10,Win32,60,,,,space,0.577145,2,1,0.638395,,0,282,282,421,1,2b,79,1,19,
,,,,,,,,,,,,,,,,,,,,,,,,,images/exp1a_trial_110_colour3_distractors31_l.png,l,1,28,001,2021-04-24_02h26.06.522,searchDisc4,2020.2.10,Win32,60,,,,space,0.003115,1,1,0.757875,,0,283,283,110,1,1a,110,3,31,
,,,,,,,,,,,,,,,,,,,,,,,,,images/exp1a_trial_94_colour1_distractors1_l.png,l,1,28,001,2021-04-24_02h26.06.522,searchDisc4,2020.2.10,Win32,60,,,,space,0.05067,1,1,0.824515,,0,284,284,94,1,1a,94,1,1,
,,,,,,,,,,,,,,,,,,,,,,,,,images/exp2a_trial_77_colour1_distractors4_r.png,r,2,28,001,2021-04-24_02h26.06.522,searchDisc4,2020.2.10,Win32,60,,,,space,0.032215,1,0,0.756305,,0,285,285,305,1,2a,77,1,4,
,,,,,,,,,,,,,,,,,,,,,,,,,images/exp1a_trial_1_colour1_distractors4_r.png,r,2,28,001,2021-04-24_02h26.06.522,searchDisc4,2020.2.10,Win32,60,,,,space,0.04156,2,1,0.847645,,0,286,286,1,1,1a,1,1,4,
,,,,,,,,,,,,,,,,,,,,,,,,,images/exp2c_trial_9_colour2_distractors19_r.png,r,2,28,001,2021-04-24_02h26.06.522,searchDisc4,2020.2.10,Win32,60,,,,space,0.04389,2,1,0.75968,,0,287,287,465,1,2c,9,2,19,
,,,,,,,,,,,,,,,,,,,,,,,,,images/exp2c_trial_5_colour1_distractors43_r.png,r,2,28,001,2021-04-24_02h26.06.522,searchDisc4,2020.2.10,Win32,60,,,,space,0.00056,2,1,0.726935,,0,288,288,461,1,2c,5,1,43,
,,,,,,,,,,,,,,,,,,,,,,,,,images/exp2b_trial_113_colour0_distractors0_l.png,l,1,28,001,2021-04-24_02h26.06.522,searchDisc4,2020.2.10,Win32,60,,,,space,0.000605,1,1,0.7235,,0,289,289,455,1,2b,113,0,0,
,,,,,,,,,,,,,,,,,,,,,,,,,images/exp2b_trial_99_colour1_distractors43_l.png,l,1,28,001,2021-04-24_02h26.06.522,searchDisc4,2020.2.10,Win32,60,,,,space,0.866845,1,1,0.77899,,0,290,290,441,1,2b,99,1,43,
,,,,,,,,,,,,,,,,,,,,,,,,,images/exp2a_trial_45_colour2_distractors4_r.png,r,2,28,001,2021-04-24_02h26.06.522,searchDisc4,2020.2.10,Win32,60,,,,space,0.87593,2,1,0.869975,,0,291,291,273,1,2a,45,2,4,
,,,,,,,,,,,,,,,,,,,,,,,,,images/exp1b_trial_5_colour1_distractors43_r.png,r,2,28,001,2021-04-24_02h26.06.522,searchDisc4,2020.2.10,Win32,60,,,,space,0.099855,2,1,0.977845,,0,292,292,119,1,1b,5,1,43,
,,,,,,,,,,,,,,,,,,,,,,,,,images/exp2a_trial_87_colour2_distractors43_r.png,r,2,28,001,2021-04-24_02h26.06.522,searchDisc4,2020.2.10,Win32,60,,,,space,0.05213,2,1,0.634625,,0,293,293,315,1,2a,87,2,43,
,,,,,,,,,,,,,,,,,,,,,,,,,images/exp1b_trial_23_colour1_distractors43_l.png,l,1,28,001,2021-04-24_02h26.06.522,searchDisc4,2020.2.10,Win32,60,,,,space,0.553195,1,1,0.753115,,0,294,294,137,1,1b,23,1,43,
,,,,,,,,,,,,,,,,,,,,,,,,,images/exp1a_trial_82_colour2_distractors1_r.png,r,2,28,001,2021-04-24_02h26.06.522,searchDisc4,2020.2.10,Win32,60,,,,space,0.092535,2,1,0.806245,,0,295,295,82,1,1a,82,2,1,
,,,,,,,,,,,,,,,,,,,,,,,,,images/exp2c_trial_66_colour2_distractors31_l.png,l,1,28,001,2021-04-24_02h26.06.522,searchDisc4,2020.2.10,Win32,60,,,,space,0.033605,1,1,1.12559,,0,296,296,522,1,2c,66,2,31,
,,,,,,,,,,,,,,,,,,,,,,,,,images/exp2a_trial_1_colour1_distractors4_r.png,r,2,28,001,2021-04-24_02h26.06.522,searchDisc4,2020.2.10,Win32,60,,,,space,0.031855,2,1,0.712895,,0,297,297,229,1,2a,1,1,4,
,,,,,,,,,,,,,,,,,,,,,,,,,images/exp2a_trial_54_colour3_distractors31_r.png,r,2,28,001,2021-04-24_02h26.06.522,searchDisc4,2020.2.10,Win32,60,,,,space,0.033915,2,1,0.70099,,0,298,298,282,1,2a,54,3,31,
,,,,,,,,,,,,,,,,,,,,,,,,,images/exp2b_trial_102_colour2_distractors9_l.png,l,1,28,001,2021-04-24_02h26.06.522,searchDisc4,2020.2.10,Win32,60,,,,space,0.635895,1,1,0.77842,space,0,299,299,444,1,2b,102,2,9,0.099875
,,,,,,,,,,,,,,,,,,,,,,,,,images/exp2a_trial_103_colour2_distractors19_l.png,l,1,28,001,2021-04-24_02h26.06.522,searchDisc4,2020.2.10,Win32,60,,,,space,1.659325,1,1,0.805665,,0,300,300,331,1,2a,103,2,19,
,,,,,,,,,,,,,,,,,,,,,,,,,images/exp2a_trial_23_colour1_distractors43_l.png,l,1,28,001,2021-04-24_02h26.06.522,searchDisc4,2020.2.10,Win32,60,,,,space,1.083355,1,1,0.601355,,0,301,301,251,1,2a,23,1,43,
,,,,,,,,,,,,,,,,,,,,,,,,,images/exp2c_trial_7_colour2_distractors4_r.png,r,2,28,001,2021-04-24_02h26.06.522,searchDisc4,2020.2.10,Win32,60,,,,space,0.050535,2,1,0.77895,,0,302,302,463,1,2c,7,2,4,
,,,,,,,,,,,,,,,,,,,,,,,,,images/exp1a_trial_79_colour1_distractors19_r.png,r,2,28,001,2021-04-24_02h26.06.522,searchDisc4,2020.2.10,Win32,60,,,,space,0.03377,2,1,0.78496,,0,303,303,79,1,1a,79,1,19,
,,,,,,,,,,,,,,,,,,,,,,,,,images/exp2b_trial_101_colour2_distractors4_l.png,l,1,28,001,2021-04-24_02h26.06.522,searchDisc4,2020.2.10,Win32,60,,,,space,0.01108,1,1,0.78056,,0,304,304,443,1,2b,101,2,4,
,,,,,,,,,,,,,,,,,,,,,,,,,images/exp1a_trial_68_colour3_distractors1_l.png,l,1,28,001,2021-04-24_02h26.06.522,searchDisc4,2020.2.10,Win32,60,,,,space,0.04498,1,1,0.75356,,0,305,305,68,1,1a,68,3,1,
,,,,,,,,,,,,,,,,,,,,,,,,,images/exp1b_trial_103_colour2_distractors19_l.png,l,1,28,001,2021-04-24_02h26.06.522,searchDisc4,2020.2.10,Win32,60,,,,space,0.02711,2,0,0.698275,,0,306,306,217,1,1b,103,2,19,
,,,,,,,,,,,,,,,,,,,,,,,,,images/exp2a_trial_53_colour3_distractors19_r.png,r,2,28,001,2021-04-24_02h26.06.522,searchDisc4,2020.2.10,Win32,60,,,,space,0.68106,2,1,0.78991,,0,307,307,281,1,2a,53,3,19,
,,,,,,,,,,,,,,,,,,,,,,,,,images/exp2b_trial_40_colour1_distractors9_r.png,r,2,28,001,2021-04-24_02h26.06.522,searchDisc4,2020.2.10,Win32,60,,,,space,0.03924,2,1,0.711515,,0,308,308,382,1,2b,40,1,9,
,,,,,,,,,,,,,,,,,,,,,,,,,images/exp2a_trial_61_colour1_distractors43_l.png,l,1,28,001,2021-04-24_02h26.06.522,searchDisc4,2020.2.10,Win32,60,,,,space,0.010065,2,0,0.87063,,0,309,309,289,1,2a,61,1,43,
,,,,,,,,,,,,,,,,,,,,,,,,,images/exp1b_trial_61_colour1_distractors43_l.png,l,1,28,001,2021-04-24_02h26.06.522,searchDisc4,2020.2.10,Win32,60,,,,space,0.580445,1,1,0.71382,,0,310,310,175,1,1b,61,1,43,
,,,,,,,,,,,,,,,,,,,,,,,,,images/exp1a_trial_37_colour0_distractors0_l.png,l,1,28,001,2021-04-24_02h26.06.522,searchDisc4,2020.2.10,Win32,60,,,,space,0.567545,1,1,0.497205,,0,311,311,37,1,1a,37,0,0,
,,,,,,,,,,,,,,,,,,,,,,,,,images/exp2c_trial_106_colour3_distractors1_l.png,l,1,28,001,2021-04-24_02h26.06.522,searchDisc4,2020.2.10,Win32,60,,,,space,0.182385,1,1,0.45901,,0,312,312,562,1,2c,106,3,1,
,,,,,,,,,,,,,,,,,,,,,,,,,images/exp2b_trial_89_colour3_distractors4_r.png,r,2,28,001,2021-04-24_02h26.06.522,searchDisc4,2020.2.10,Win32,60,,,,space,0.18456,1,0,0.445455,,0,313,313,431,1,2b,89,3,4,
,,,,,,,,,,,,,,,,,,,,,,,,,images/exp1b_trial_113_colour0_distractors0_l.png,l,1,28,001,2021-04-24_02h26.06.522,searchDisc4,2020.2.10,Win32,60,,,,space,0.08511,1,1,0.906335,,0,314,314,227,1,1b,113,0,0,
,,,,,,,,,,,,,,,,,,,,,,,,,images/exp2c_trial_26_colour2_distractors9_l.png,l,1,28,001,2021-04-24_02h26.06.522,searchDisc4,2020.2.10,Win32,60,,,,space,0.009435,1,1,0.813405,,0,315,315,482,1,2c,26,2,9,
,,,,,,,,,,,,,,,,,,,,,,,,,images/exp1b_trial_19_colour1_distractors4_l.png,l,1,28,001,2021-04-24_02h26.06.522,searchDisc4,2020.2.10,Win32,60,,,,space,0.08632,1,1,0.66448,,0,316,316,133,1,1b,19,1,4,
,,,,,,,,,,,,,,,,,,,,,,,,,images/exp2a_trial_18_colour1_distractors1_l.png,l,1,28,001,2021-04-24_02h26.06.522,searchDisc4,2020.2.10,Win32,60,,,,space,0.12753,1,1,0.62642,,0,317,317,246,1,2a,18,1,1,
,,,,,,,,,,,,,,,,,,,,,,,,,images/exp1b_trial_94_colour1_distractors1_l.png,l,1,28,001,2021-04-24_02h26.06.522,searchDisc4,2020.2.10,Win32,60,,,,space,0.138585,1,1,0.538645,,0,318,318,208,1,1b,94,1,1,
,,,,,,,,,,,,,,,,,,,,,,,,,images/exp2a_trial_11_colour2_distractors43_r.png,r,2,28,001,2021-04-24_02h26.06.522,searchDisc4,2020.2.10,Win32,60,,,,space,0.088575,1,0,0.85667,,0,319,319,239,1,2a,11,2,43,
,,,,,,,,,,,,,,,,,,,,,,,,,images/exp1b_trial_84_colour2_distractors9_r.png,r,2,28,001,2021-04-24_02h26.06.522,searchDisc4,2020.2.10,Win32,60,,,,space,0.08959,2,1,1.204075,,0,320,320,198,1,1b,84,2,9,
,,,,,,,,,,,,,,,,,,,,,,,,,images/exp1b_trial_101_colour2_distractors4_l.png,l,1,28,001,2021-04-24_02h26.06.522,searchDisc4,2020.2.10,Win32,60,,,,space,0.091195,1,1,1.09291,,0,321,321,215,1,1b,101,2,4,
,,,,,,,,,,,,,,,,,,,,,,,,,images/exp2b_trial_84_colour2_distractors9_r.png,r,2,28,001,2021-04-24_02h26.06.522,searchDisc4,2020.2.10,Win32,60,,,,space,0.081395,1,0,0.714795,,0,322,322,426,1,2b,84,2,9,
,,,,,,,,,,,,,,,,,,,,,,,,,images/exp2b_trial_28_colour2_distractors31_l.png,l,1,28,001,2021-04-24_02h26.06.522,searchDisc4,2020.2.10,Win32,60,,,,space,0.08347,2,0,0.92177,,0,323,323,370,1,2b,28,2,31,
,,,,,,,,,,,,,,,,,,,,,,,,,images/exp1a_trial_105_colour2_distractors43_l.png,l,1,28,001,2021-04-24_02h26.06.522,searchDisc4,2020.2.10,Win32,60,,,,space,0.821415,1,1,0.802165,,0,324,324,105,1,1a,105,2,43,
,,,,,,,,,,,,,,,,,,,,,,,,,images/exp2a_trial_8_colour2_distractors9_r.png,r,2,28,001,2021-04-24_02h26.06.522,searchDisc4,2020.2.10,Win32,60,,,,space,0.086855,2,1,0.957035,,0,325,325,236,1,2a,8,2,9,
,,,,,,,,,,,,,,,,,,,,,,,,,images/exp2a_trial_58_colour1_distractors9_l.png,l,1,28,001,2021-04-24_02h26.06.522,searchDisc4,2020.2.10,Win32,60,,,,space,0.060795,1,1,0.74379,,0,326,326,286,1,2a,58,1,9,
,,,,,,,,,,,,,,,,,,,,,,,,,images/exp1b_trial_32_colour3_distractors9_l.png,l,1,28,001,2021-04-24_02h26.06.522,searchDisc4,2020.2.10,Win32,60,,,,space,0.08299,1,1,1.30743,,0,327,327,146,1,1b,32,3,9,
,,,,,,,,,,,,,,,,,,,,,,,,,images/exp2a_trial_105_colour2_distractors43_l.png,l,1,28,001,2021-04-24_02h26.06.522,searchDisc4,2020.2.10,Win32,60,,,,space,0.081315,1,1,0.862115,,0,328,328,333,1,2a,105,2,43,
,,,,,,,,,,,,,,,,,,,,,,,,,images/exp1b_trial_21_colour1_distractors19_l.png,l,1,28,001,2021-04-24_02h26.06.522,searchDisc4,2020.2.10,Win32,60,,,,space,0.11787,1,1,0.62205,,0,329,329,135,1,1b,21,1,19,
,,,,,,,,,,,,,,,,,,,,,,,,,images/exp1b_trial_105_colour2_distractors43_l.png,l,1,28,001,2021-04-24_02h26.06.522,searchDisc4,2020.2.10,Win32,60,,,,space,0.058945,1,1,1.47117,,0,330,330,219,1,1b,105,2,43,
,,,,,,,,,,,,,,,,,,,,,,,,,images/exp2b_trial_23_colour1_distractors43_l.png,l,1,28,001,2021-04-24_02h26.06.522,searchDisc4,2020.2.10,Win32,60,,,,space,0.1182,1,1,0.8945,,0,331,331,365,1,2b,23,1,43,
,,,,,,,,,,,,,,,,,,,,,,,,,images/exp2a_trial_60_colour1_distractors31_l.png,l,1,28,001,2021-04-24_02h26.06.522,searchDisc4,2020.2.10,Win32,60,,,,space,0.040225,1,1,0.820215,,0,332,332,288,1,2a,60,1,31,
,,,,,,,,,,,,,,,,,,,,,,,,,images/exp1b_trial_57_colour1_distractors4_l.png,l,1,28,001,2021-04-24_02h26.06.522,searchDisc4,2020.2.10,Win32,60,,,,space,0.150125,1,1,0.996535,,0,333,333,171,1,1b,57,1,4,
,,,,,,,,,,,,,,,,,,,,,,,,,images/exp2b_trial_90_colour3_distractors9_r.png,r,2,28,001,2021-04-24_02h26.06.522,searchDisc4,2020.2.10,Win32,60,,,,space,0.12305,2,1,0.90516,,0,334,334,432,1,2b,90,3,9,
,,,,,,,,,,,,,,,,,,,,,,,,,images/exp2c_trial_47_colour2_distractors19_r.png,r,2,28,001,2021-04-24_02h26.06.522,searchDisc4,2020.2.10,Win32,60,,,,space,0.06398,2,1,0.740085,,0,335,335,503,1,2c,47,2,19,
,,,,,,,,,,,,,,,,,,,,,,,,,images/exp1a_trial_103_colour2_distractors19_l.png,l,1,28,001,2021-04-24_02h26.06.522,searchDisc4,2020.2.10,Win32,60,,,,space,0.03534,1,1,1.4187,,0,336,336,103,1,1a,103,2,19,
,,,,,,,,,,,,,,,,,,,,,,,,,images/exp2b_trial_16_colour3_distractors31_r.png,r,2,28,001,2021-04-24_02h26.06.522,searchDisc4,2020.2.10,Win32,60,,,,space,0.01895,2,1,0.81282,,0,337,337,358,1,2b,16,3,31,
,,,,,,,,,,,,,,,,,,,,,,,,,images/exp2c_trial_27_colour2_distractors19_l.png,l,1,28,001,2021-04-24_02h26.06.522,searchDisc4,2020.2.10,Win32,60,,,,space,0.071735,1,1,0.812915,,0,338,338,483,1,2c,27,2,19,
,,,,,,,,,,,,,,,,,,,,,,,,,images/exp1b_trial_10_colour2_distractors31_r.png,r,2,28,001,2021-04-24_02h26.06.522,searchDisc4,2020.2.10,Win32,60,,,,space,0.034085,2,1,1.06561,,0,339,339,124,1,1b,10,2,31,
,,,,,,,,,,,,,,,,,,,,,,,,,images/exp1a_trial_111_colour3_distractors43_l.png,l,1,28,001,2021-04-24_02h26.06.522,searchDisc4,2020.2.10,Win32,60,,,,space,0.00948,1,1,0.90363,,0,340,340,111,1,1a,111,3,43,
,,,,,,,,,,,,,,,,,,,,,,,,,images/exp2a_trial_82_colour2_distractors1_r.png,r,2,28,001,2021-04-24_02h26.06.522,searchDisc4,2020.2.10,Win32,60,,,,space,0.02553,2,1,0.955235,,0,341,341,310,1,2a,82,2,1,
,,,,,,,,,,,,,,,,,,,,,,,,,images/exp1a_trial_90_colour3_distractors9_r.png,r,2,28,001,2021-04-24_02h26.06.522,searchDisc4,2020.2.10,Win32,60,,,,space,0.0159,2,1,0.92859,,0,342,342,90,1,1a,90,3,9,
,,,,,,,,,,,,,,,,,,,,,,,,,images/exp2a_trial_86_colour2_distractors31_r.png,r,2,28,001,2021-04-24_02h26.06.522,searchDisc4,2020.2.10,Win32,60,,,,space,0.044025,2,1,0.805015,,0,343,343,314,1,2a,86,2,31,
,,,,,,,,,,,,,,,,,,,,,,,,,images/exp2c_trial_29_colour2_distractors43_l.png,l,1,28,001,2021-04-24_02h26.06.522,searchDisc4,2020.2.10,Win32,60,,,,space,0.004895,1,1,0.882915,,0,344,344,485,1,2c,29,2,43,
,,,,,,,,,,,,,,,,,,,,,,,,,images/exp2a_trial_107_colour3_distractors4_l.png,l,1,28,001,2021-04-24_02h26.06.522,searchDisc4,2020.2.10,Win32,60,,,,space,0.0238,2,0,0.91275,,0,345,345,335,1,2a,107,3,4,
,,,,,,,,,,,,,,,,,,,,,,,,,images/exp2a_trial_20_colour1_distractors9_l.png,l,1,28,001,2021-04-24_02h26.06.522,searchDisc4,2020.2.10,Win32,60,,,,space,0.69798,1,1,0.81445,,0,346,346,248,1,2a,20,1,9,
,,,,,,,,,,,,,,,,,,,,,,,,,images/exp1a_trial_81_colour1_distractors43_r.png,r,2,28,001,2021-04-24_02h26.06.522,searchDisc4,2020.2.10,Win32,60,,,,space,0.08551,2,1,0.83653,,0,347,347,81,1,1a,81,1,43,
,,,,,,,,,,,,,,,,,,,,,,,,,images/exp2a_trial_29_colour2_distractors43_l.png,l,1,28,001,2021-04-24_02h26.06.522,searchDisc4,2020.2.10,Win32,60,,,,space,0.01622,1,1,0.78388,,0,348,348,257,1,2a,29,2,43,
,,,,,,,,,,,,,,,,,,,,,,,,,images/exp2a_trial_104_colour2_distractors31_l.png,l,1,28,001,2021-04-24_02h26.06.522,searchDisc4,2020.2.10,Win32,60,,,,space,0.02059,1,1,0.952295,,0,349,349,332,1,2a,104,2,31,
,,,,,,,,,,,,,,,,,,,,,,,,,images/exp2a_trial_42_colour1_distractors31_r.png,r,2,28,001,2021-04-24_02h26.06.522,searchDisc4,2020.2.10,Win32,60,,,,space,0.01347,2,1,0.82139,,0,350,350,270,1,2a,42,1,31,
,,,,,,,,,,,,,,,,,,,,,,,,,images/exp2c_trial_72_colour3_distractors31_l.png,l,1,28,001,2021-04-24_02h26.06.522,searchDisc4,2020.2.10,Win32,60,,,,space,0.016365,1,1,0.937645,,0,351,351,528,1,2c,72,3,31,
,,,,,,,,,,,,,,,,,,,,,,,,,images/exp2a_trial_52_colour3_distractors9_r.png,r,2,28,001,2021-04-24_02h26.06.522,searchDisc4,2020.2.10,Win32,60,,,,space,0.033105,2,1,0.78756,,0,352,352,280,1,2a,52,3,9,
,,,,,,,,,,,,,,,,,,,,,,,,,images/exp1b_trial_1_colour1_distractors4_r.png,r,2,28,001,2021-04-24_02h26.06.522,searchDisc4,2020.2.10,Win32,60,,,,space,0.003125,2,1,0.90555,,0,353,353,115,1,1b,1,1,4,
,,,,,,,,,,,,,,,,,,,,,,,,,images/exp2c_trial_49_colour2_distractors43_r.png,r,2,28,001,2021-04-24_02h26.06.522,searchDisc4,2020.2.10,Win32,60,,,,space,0.7729,2,1,0.596385,,0,354,354,505,1,2c,49,2,43,
,,,,,,,,,,,,,,,,,,,,,,,,,images/exp1b_trial_110_colour3_distractors31_l.png,l,1,28,001,2021-04-24_02h26.06.522,searchDisc4,2020.2.10,Win32,60,,,,space,0.06725,1,1,1.16408,,0,355,355,224,1,1b,110,3,31,
,,,,,,,,,,,,,,,,,,,,,,,,,images/exp1b_trial_7_colour2_distractors4_r.png,r,2,28,001,2021-04-24_02h26.06.522,searchDisc4,2020.2.10,Win32,60,,,,space,0.002365,2,1,0.98973,,0,356,356,121,1,1b,7,2,4,
,,,,,,,,,,,,,,,,,,,,,,,,,images/exp2b_trial_71_colour3_distractors19_l.png,l,1,28,001,2021-04-24_02h26.06.522,searchDisc4,2020.2.10,Win32,60,,,,space,0.01464,1,1,0.85433,,0,357,357,413,1,2b,71,3,19,
,,,,,,,,,,,,,,,,,,,,,,,,,images/exp2a_trial_100_colour2_distractors1_l.png,l,1,28,001,2021-04-24_02h26.06.522,searchDisc4,2020.2.10,Win32,60,,,,space,0.604875,1,1,0.62174,,0,358,358,328,1,2a,100,2,1,
,,,,,,,,,,,,,,,,,,,,,,,,,images/exp2c_trial_90_colour3_distractors9_r.png,r,2,28,001,2021-04-24_02h26.06.522,searchDisc4,2020.2.10,Win32,60,,,,space,0.00065,2,1,0.74349,space,0,359,359,546,1,2c,90,3,9,0.013705
,,,,,,,,,,,,,,,,,,,,,,,,,images/exp1b_trial_48_colour2_distractors31_r.png,r,2,28,001,2021-04-24_02h26.06.522,searchDisc4,2020.2.10,Win32,60,,,,space,4.78111,2,1,0.69791,,0,360,360,162,1,1b,48,2,31,
,,,,,,,,,,,,,,,,,,,,,,,,,images/exp2b_trial_41_colour1_distractors19_r.png,r,2,28,001,2021-04-24_02h26.06.522,searchDisc4,2020.2.10,Win32,60,,,,space,0.065885,2,1,0.6451,,0,361,361,383,1,2b,41,1,19,
,,,,,,,,,,,,,,,,,,,,,,,,,images/exp1a_trial_78_colour1_distractors9_r.png,r,2,28,001,2021-04-24_02h26.06.522,searchDisc4,2020.2.10,Win32,60,,,,space,0.29099,2,1,0.63741,,0,362,362,78,1,1a,78,1,9,
,,,,,,,,,,,,,,,,,,,,,,,,,images/exp2b_trial_20_colour1_distractors9_l.png,l,1,28,001,2021-04-24_02h26.06.522,searchDisc4,2020.2.10,Win32,60,,,,space,0.13356,1,1,0.695415,,0,363,363,362,1,2b,20,1,9,
,,,,,,,,,,,,,,,,,,,,,,,,,images/exp2b_trial_4_colour1_distractors31_r.png,r,2,28,001,2021-04-24_02h26.06.522,searchDisc4,2020.2.10,Win32,60,,,,space,0.114625,2,1,0.640155,,0,364,364,346,1,2b,4,1,31,
,,,,,,,,,,,,,,,,,,,,,,,,,images/exp2a_trial_84_colour2_distractors9_r.png,r,2,28,001,2021-04-24_02h26.06.522,searchDisc4,2020.2.10,Win32,60,,,,space,0.10681,2,1,0.73884,,0,365,365,312,1,2a,84,2,9,
,,,,,,,,,,,,,,,,,,,,,,,,,images/exp1b_trial_80_colour1_distractors31_r.png,r,2,28,001,2021-04-24_02h26.06.522,searchDisc4,2020.2.10,Win32,60,,,,space,0.05158,2,1,2.05199,,0,366,366,194,1,1b,80,1,31,
,,,,,,,,,,,,,,,,,,,,,,,,,images/exp1a_trial_47_colour2_distractors19_r.png,r,2,28,001,2021-04-24_02h26.06.522,searchDisc4,2020.2.10,Win32,60,,,,space,0.03159,2,1,0.853225,,0,367,367,47,1,1a,47,2,19,
,,,,,,,,,,,,,,,,,,,,,,,,,images/exp2b_trial_80_colour1_distractors31_r.png,r,2,28,001,2021-04-24_02h26.06.522,searchDisc4,2020.2.10,Win32,60,,,,space,0.09419,2,1,0.787975,,0,368,368,422,1,2b,80,1,31,
,,,,,,,,,,,,,,,,,,,,,,,,,images/exp2a_trial_109_colour3_distractors19_l.png,l,1,28,001,2021-04-24_02h26.06.522,searchDisc4,2020.2.10,Win32,60,,,,space,0.1334,1,1,0.747385,,0,369,369,337,1,2a,109,3,19,
,,,,,,,,,,,,,,,,,,,,,,,,,images/exp1b_trial_82_colour2_distractors1_r.png,r,2,28,001,2021-04-24_02h26.06.522,searchDisc4,2020.2.10,Win32,60,,,,space,0.066915,2,1,0.6634,,0,370,370,196,1,1b,82,2,1,
,,,,,,,,,,,,,,,,,,,,,,,,,images/exp1b_trial_49_colour2_distractors43_r.png,r,2,28,001,2021-04-24_02h26.06.522,searchDisc4,2020.2.10,Win32,60,,,,space,0.087385,2,1,0.97007,,0,371,371,163,1,1b,49,2,43,
,,,,,,,,,,,,,,,,,,,,,,,,,images/exp2a_trial_51_colour3_distractors4_r.png,r,2,28,001,2021-04-24_02h26.06.522,searchDisc4,2020.2.10,Win32,60,,,,space,0.07118,1,0,0.83197,,0,372,372,279,1,2a,51,3,4,
,,,,,,,,,,,,,,,,,,,,,,,,,images/exp1a_trial_60_colour1_distractors31_l.png,l,1,28,001,2021-04-24_02h26.06.522,searchDisc4,2020.2.10,Win32,60,,,,space,0.07881,1,1,0.80442,,0,373,373,60,1,1a,60,1,31,
,,,,,,,,,,,,,,,,,,,,,,,,,images/exp2b_trial_60_colour1_distractors31_l.png,l,1,28,001,2021-04-24_02h26.06.522,searchDisc4,2020.2.10,Win32,60,,,,space,0.1105,1,1,0.921335,,0,374,374,402,1,2b,60,1,31,
,,,,,,,,,,,,,,,,,,,,,,,,,images/exp2c_trial_31_colour3_distractors4_l.png,l,1,28,001,2021-04-24_02h26.06.522,searchDisc4,2020.2.10,Win32,60,,,,space,0.05576,1,1,0.690315,,0,375,375,487,1,2c,31,3,4,
,,,,,,,,,,,,,,,,,,,,,,,,,images/exp2c_trial_24_colour2_distractors1_l.png,l,1,28,001,2021-04-24_02h26.06.522,searchDisc4,2020.2.10,Win32,60,,,,space,0.168205,1,1,0.69987,,0,376,376,480,1,2c,24,2,1,
,,,,,,,,,,,,,,,,,,,,,,,,,images/exp2b_trial_51_colour3_distractors4_r.png,r,2,28,001,2021-04-24_02h26.06.522,searchDisc4,2020.2.10,Win32,60,,,,space,0.03896,2,1,0.941165,,0,377,377,393,1,2b,51,3,4,
,,,,,,,,,,,,,,,,,,,,,,,,,images/exp2c_trial_15_colour3_distractors19_r.png,r,2,28,001,2021-04-24_02h26.06.522,searchDisc4,2020.2.10,Win32,60,,,,space,0.07793,2,1,0.81568,,0,378,378,471,1,2c,15,3,19,
,,,,,,,,,,,,,,,,,,,,,,,,,images/exp1b_trial_65_colour2_distractors19_l.png,l,1,28,001,2021-04-24_02h26.06.522,searchDisc4,2020.2.10,Win32,60,,,,space,0.10545,1,1,0.921175,,0,379,379,179,1,1b,65,2,19,
,,,,,,,,,,,,,,,,,,,,,,,,,images/exp2b_trial_26_colour2_distractors9_l.png,l,1,28,001,2021-04-24_02h26.06.522,searchDisc4,2020.2.10,Win32,60,,,,space,0.039375,1,1,1.07703,,0,380,380,368,1,2b,26,2,9,
,,,,,,,,,,,,,,,,,,,,,,,,,images/exp1b_trial_98_colour1_distractors31_l.png,l,1,28,001,2021-04-24_02h26.06.522,searchDisc4,2020.2.10,Win32,60,,,,space,0.150515,1,1,0.884535,,0,381,381,212,1,1b,98,1,31,
,,,,,,,,,,,,,,,,,,,,,,,,,images/exp2c_trial_87_colour2_distractors43_r.png,r,2,28,001,2021-04-24_02h26.06.522,searchDisc4,2020.2.10,Win32,60,,,,space,0.084015,2,1,0.5874,,0,382,382,543,1,2c,87,2,43,
,,,,,,,,,,,,,,,,,,,,,,,,,images/exp2c_trial_96_colour1_distractors9_l.png,l,1,28,001,2021-04-24_02h26.06.522,searchDisc4,2020.2.10,Win32,60,,,,space,0.103055,1,1,0.809255,,0,383,383,552,1,2c,96,1,9,
,,,,,,,,,,,,,,,,,,,,,,,,,images/exp1b_trial_43_colour1_distractors43_r.png,r,2,28,001,2021-04-24_02h26.06.522,searchDisc4,2020.2.10,Win32,60,,,,space,0.04954,2,1,0.892695,,0,384,384,157,1,1b,43,1,43,
,,,,,,,,,,,,,,,,,,,,,,,,,images/exp2c_trial_17_colour3_distractors43_r.png,r,2,28,001,2021-04-24_02h26.06.522,searchDisc4,2020.2.10,Win32,60,,,,space,0.013565,2,1,1.14208,,0,385,385,473,1,2c,17,3,43,
,,,,,,,,,,,,,,,,,,,,,,,,,images/exp1a_trial_3_colour1_distractors19_r.png,r,2,28,001,2021-04-24_02h26.06.522,searchDisc4,2020.2.10,Win32,60,,,,space,0.00829,2,1,0.69928,,0,386,386,3,1,1a,3,1,19,
,,,,,,,,,,,,,,,,,,,,,,,,,images/exp2c_trial_23_colour1_distractors43_l.png,l,1,28,001,2021-04-24_02h26.06.522,searchDisc4,2020.2.10,Win32,60,,,,space,0.023855,1,1,0.834205,,0,387,387,479,1,2c,23,1,43,
,,,,,,,,,,,,,,,,,,,,,,,,,images/exp2c_trial_44_colour2_distractors1_r.png,r,2,28,001,2021-04-24_02h26.06.522,searchDisc4,2020.2.10,Win32,60,,,,space,0.0239,2,1,0.815065,,0,388,388,500,1,2c,44,2,1,
,,,,,,,,,,,,,,,,,,,,,,,,,images/exp2b_trial_75_colour0_distractors0_l.png,l,1,28,001,2021-04-24_02h26.06.522,searchDisc4,2020.2.10,Win32,60,,,,space,0.00675,1,1,0.694895,,0,389,389,417,1,2b,75,0,0,
,,,,,,,,,,,,,,,,,,,,,,,,,images/exp1b_trial_66_colour2_distractors31_l.png,l,1,28,001,2021-04-24_02h26.06.522,searchDisc4,2020.2.10,Win32,60,,,,space,0.031915,1,1,0.905245,,0,390,390,180,1,1b,66,2,31,
,,,,,,,,,,,,,,,,,,,,,,,,,images/exp1b_trial_75_colour0_distractors0_l.png,l,1,28,001,2021-04-24_02h26.06.522,searchDisc4,2020.2.10,Win32,60,,,,space,0.0056,1,1,0.709475,,0,391,391,189,1,1b,75,0,0,
,,,,,,,,,,,,,,,,,,,,,,,,,images/exp2a_trial_6_colour2_distractors1_r.png,r,2,28,001,2021-04-24_02h26.06.522,searchDisc4,2020.2.10,Win32,60,,,,space,0.037775,2,1,0.856625,,0,392,392,234,1,2a,6,2,1,
,,,,,,,,,,,,,,,,,,,,,,,,,images/exp2a_trial_43_colour1_distractors43_r.png,r,2,28,001,2021-04-24_02h26.06.522,searchDisc4,2020.2.10,Win32,60,,,,space,0.009415,2,1,0.93779,,0,393,393,271,1,2a,43,1,43,
,,,,,,,,,,,,,,,,,,,,,,,,,images/exp1a_trial_84_colour2_distractors9_r.png,r,2,28,001,2021-04-24_02h26.06.522,searchDisc4,2020.2.10,Win32,60,,,,space,0.036255,2,1,0.78115,,0,394,394,84,1,1a,84,2,9,
,,,,,,,,,,,,,,,,,,,,,,,,,images/exp1b_trial_41_colour1_distractors19_r.png,r,2,28,001,2021-04-24_02h26.06.522,searchDisc4,2020.2.10,Win32,60,,,,space,0.01541,2,1,0.753585,,0,395,395,155,1,1b,41,1,19,
,,,,,,,,,,,,,,,,,,,,,,,,,images/exp1a_trial_95_colour1_distractors4_l.png,l,1,28,001,2021-04-24_02h26.06.522,searchDisc4,2020.2.10,Win32,60,,,,space,1.314165,2,0,0.644075,,0,396,396,95,1,1a,95,1,4,
,,,,,,,,,,,,,,,,,,,,,,,,,images/exp2c_trial_33_colour3_distractors19_l.png,l,1,28,001,2021-04-24_02h26.06.522,searchDisc4,2020.2.10,Win32,60,,,,space,0.02094,1,1,0.954285,,0,397,397,489,1,2c,33,3,19,
,,,,,,,,,,,,,,,,,,,,,,,,,images/exp2c_trial_0_colour1_distractors1_r.png,r,2,28,001,2021-04-24_02h26.06.522,searchDisc4,2020.2.10,Win32,60,,,,space,0.03087,2,1,0.723035,,0,398,398,456,1,2c,0,1,1,
,,,,,,,,,,,,,,,,,,,,,,,,,images/exp1a_trial_25_colour2_distractors4_l.png,l,1,28,001,2021-04-24_02h26.06.522,searchDisc4,2020.2.10,Win32,60,,,,space,0.024505,1,1,0.74704,,0,399,399,25,1,1a,25,2,4,
,,,,,,,,,,,,,,,,,,,,,,,,,images/exp2a_trial_37_colour0_distractors0_l.png,l,1,28,001,2021-04-24_02h26.06.522,searchDisc4,2020.2.10,Win32,60,,,,space,0.02293,1,1,0.78932,,0,400,400,265,1,2a,37,0,0,
,,,,,,,,,,,,,,,,,,,,,,,,,images/exp2c_trial_75_colour0_distractors0_l.png,l,1,28,001,2021-04-24_02h26.06.522,searchDisc4,2020.2.10,Win32,60,,,,space,0.000685,1,1,0.685705,,0,401,401,531,1,2c,75,0,0,
,,,,,,,,,,,,,,,,,,,,,,,,,images/exp1b_trial_11_colour2_distractors43_r.png,r,2,28,001,2021-04-24_02h26.06.522,searchDisc4,2020.2.10,Win32,60,,,,space,0.97457,2,1,0.758295,,0,402,402,125,1,1b,11,2,43,
,,,,,,,,,,,,,,,,,,,,,,,,,images/exp2a_trial_49_colour2_distractors43_r.png,r,2,28,001,2021-04-24_02h26.06.522,searchDisc4,2020.2.10,Win32,60,,,,space,0.048235,2,1,0.91294,,0,403,403,277,1,2a,49,2,43,
,,,,,,,,,,,,,,,,,,,,,,,,,images/exp1b_trial_30_colour3_distractors1_l.png,l,1,28,001,2021-04-24_02h26.06.522,searchDisc4,2020.2.10,Win32,60,,,,space,0.715665,1,1,1.37181,,0,404,404,144,1,1b,30,3,1,
,,,,,,,,,,,,,,,,,,,,,,,,,images/exp1b_trial_15_colour3_distractors19_r.png,r,2,28,001,2021-04-24_02h26.06.522,searchDisc4,2020.2.10,Win32,60,,,,space,0.0149,2,1,1.1599,,0,405,405,129,1,1b,15,3,19,
,,,,,,,,,,,,,,,,,,,,,,,,,images/exp2a_trial_28_colour2_distractors31_l.png,l,1,28,001,2021-04-24_02h26.06.522,searchDisc4,2020.2.10,Win32,60,,,,space,0.032425,1,1,0.724975,,0,406,406,256,1,2a,28,2,31,
,,,,,,,,,,,,,,,,,,,,,,,,,images/exp2c_trial_32_colour3_distractors9_l.png,l,1,28,001,2021-04-24_02h26.06.522,searchDisc4,2020.2.10,Win32,60,,,,space,0.03635,1,1,1.023,,0,407,407,488,1,2c,32,3,9,
,,,,,,,,,,,,,,,,,,,,,,,,,images/exp1a_trial_59_colour1_distractors19_l.png,l,1,28,001,2021-04-24_02h26.06.522,searchDisc4,2020.2.10,Win32,60,,,,space,0.034525,1,1,0.87893,,0,408,408,59,1,1a,59,1,19,
,,,,,,,,,,,,,,,,,,,,,,,,,images/exp1a_trial_19_colour1_distractors4_l.png,l,1,28,001,2021-04-24_02h26.06.522,searchDisc4,2020.2.10,Win32,60,,,,space,0.052895,1,1,0.890405,,0,409,409,19,1,1a,19,1,4,
,,,,,,,,,,,,,,,,,,,,,,,,,images/exp1b_trial_73_colour3_distractors43_l.png,l,1,28,001,2021-04-24_02h26.06.522,searchDisc4,2020.2.10,Win32,60,,,,space,0.076805,1,1,1.820725,,0,410,410,187,1,1b,73,3,43,
,,,,,,,,,,,,,,,,,,,,,,,,,images/exp2b_trial_62_colour2_distractors1_l.png,l,1,28,001,2021-04-24_02h26.06.522,searchDisc4,2020.2.10,Win32,60,,,,space,0.023065,1,1,0.98865,,0,411,411,404,1,2b,62,2,1,
,,,,,,,,,,,,,,,,,,,,,,,,,images/exp1a_trial_83_colour2_distractors4_r.png,r,2,28,001,2021-04-24_02h26.06.522,searchDisc4,2020.2.10,Win32,60,,,,space,1.23333,2,1,1.040455,,0,412,412,83,1,1a,83,2,4,
,,,,,,,,,,,,,,,,,,,,,,,,,images/exp1a_trial_35_colour3_distractors43_l.png,l,1,28,001,2021-04-24_02h26.06.522,searchDisc4,2020.2.10,Win32,60,,,,space,0.97331,1,1,0.881035,,0,413,413,35,1,1a,35,3,43,
,,,,,,,,,,,,,,,,,,,,,,,,,images/exp1b_trial_31_colour3_distractors4_l.png,l,1,28,001,2021-04-24_02h26.06.522,searchDisc4,2020.2.10,Win32,60,,,,space,0.567025,1,1,0.948975,,0,414,414,145,1,1b,31,3,4,
,,,,,,,,,,,,,,,,,,,,,,,,,images/exp1b_trial_112_colour0_distractors0_r.png,r,2,28,001,2021-04-24_02h26.06.522,searchDisc4,2020.2.10,Win32,60,,,,space,0.55688,2,1,0.66276,,0,415,415,226,1,1b,112,0,0,
,,,,,,,,,,,,,,,,,,,,,,,,,images/exp2a_trial_91_colour3_distractors19_r.png,r,2,28,001,2021-04-24_02h26.06.522,searchDisc4,2020.2.10,Win32,60,,,,space,0.607545,2,1,0.685895,,0,416,416,319,1,2a,91,3,19,
,,,,,,,,,,,,,,,,,,,,,,,,,images/exp2c_trial_80_colour1_distractors31_r.png,r,2,28,001,2021-04-24_02h26.06.522,searchDisc4,2020.2.10,Win32,60,,,,space,0.554635,2,1,0.679225,,0,417,417,536,1,2c,80,1,31,
,,,,,,,,,,,,,,,,,,,,,,,,,images/exp1a_trial_91_colour3_distractors19_r.png,r,2,28,001,2021-04-24_02h26.06.522,searchDisc4,2020.2.10,Win32,60,,,,space,0.542455,2,1,0.58504,,0,418,418,91,1,1a,91,3,19,
,,,,,,,,,,,,,,,,,,,,,,,,,images/exp2c_trial_64_colour2_distractors9_l.png,l,1,28,001,2021-04-24_02h26.06.522,searchDisc4,2020.2.10,Win32,60,,,,space,0.464705,1,1,0.650885,space,0,419,419,520,1,2c,64,2,9,15.06322
,,,,,,,,,,,,,,,,,,,,,,,,,images/exp2b_trial_88_colour3_distractors1_r.png,r,2,28,001,2021-04-24_02h26.06.522,searchDisc4,2020.2.10,Win32,60,,,,space,0.88854,1,0,0.662005,,0,420,420,430,1,2b,88,3,1,
,,,,,,,,,,,,,,,,,,,,,,,,,images/exp2a_trial_98_colour1_distractors31_l.png,l,1,28,001,2021-04-24_02h26.06.522,searchDisc4,2020.2.10,Win32,60,,,,space,0.725725,1,1,0.75063,,0,421,421,326,1,2a,98,1,31,
,,,,,,,,,,,,,,,,,,,,,,,,,images/exp1a_trial_80_colour1_distractors31_r.png,r,2,28,001,2021-04-24_02h26.06.522,searchDisc4,2020.2.10,Win32,60,,,,space,0.014595,1,0,0.95396,,0,422,422,80,1,1a,80,1,31,
,,,,,,,,,,,,,,,,,,,,,,,,,images/exp2b_trial_8_colour2_distractors9_r.png,r,2,28,001,2021-04-24_02h26.06.522,searchDisc4,2020.2.10,Win32,60,,,,space,0.51676,2,1,0.87622,,0,423,423,350,1,2b,8,2,9,
,,,,,,,,,,,,,,,,,,,,,,,,,images/exp2a_trial_56_colour1_distractors1_l.png,l,1,28,001,2021-04-24_02h26.06.522,searchDisc4,2020.2.10,Win32,60,,,,space,0.000575,1,1,0.72123,,0,424,424,284,1,2a,56,1,1,
,,,,,,,,,,,,,,,,,,,,,,,,,images/exp2b_trial_77_colour1_distractors4_r.png,r,2,28,001,2021-04-24_02h26.06.522,searchDisc4,2020.2.10,Win32,60,,,,space,0.01698,2,1,0.75646,,0,425,425,419,1,2b,77,1,4,
,,,,,,,,,,,,,,,,,,,,,,,,,images/exp1b_trial_40_colour1_distractors9_r.png,r,2,28,001,2021-04-24_02h26.06.522,searchDisc4,2020.2.10,Win32,60,,,,space,0.00059,2,1,0.899055,,0,426,426,154,1,1b,40,1,9,
,,,,,,,,,,,,,,,,,,,,,,,,,images/exp2b_trial_61_colour1_distractors43_l.png,l,1,28,001,2021-04-24_02h26.06.522,searchDisc4,2020.2.10,Win32,60,,,,space,0.00059,1,1,0.734915,,0,427,427,403,1,2b,61,1,43,
,,,,,,,,,,,,,,,,,,,,,,,,,images/exp1a_trial_86_colour2_distractors31_r.png,r,2,28,001,2021-04-24_02h26.06.522,searchDisc4,2020.2.10,Win32,60,,,,space,0.003165,2,1,0.739095,,0,428,428,86,1,1a,86,2,31,
,,,,,,,,,,,,,,,,,,,,,,,,,images/exp2c_trial_19_colour1_distractors4_l.png,l,1,28,001,2021-04-24_02h26.06.522,searchDisc4,2020.2.10,Win32,60,,,,space,0.005225,1,1,0.772385,,0,429,429,475,1,2c,19,1,4,
,,,,,,,,,,,,,,,,,,,,,,,,,images/exp1b_trial_111_colour3_distractors43_l.png,l,1,28,001,2021-04-24_02h26.06.522,searchDisc4,2020.2.10,Win32,60,,,,space,0.00063,1,1,1.670925,,0,430,430,225,1,1b,111,3,43,
,,,,,,,,,,,,,,,,,,,,,,,,,images/exp1a_trial_30_colour3_distractors1_l.png,l,1,28,001,2021-04-24_02h26.06.522,searchDisc4,2020.2.10,Win32,60,,,,space,0.00776,1,1,0.734745,,0,431,431,30,1,1a,30,3,1,
,,,,,,,,,,,,,,,,,,,,,,,,,images/exp2c_trial_65_colour2_distractors19_l.png,l,1,28,001,2021-04-24_02h26.06.522,searchDisc4,2020.2.10,Win32,60,,,,space,0.00838,1,1,0.62228,,0,432,432,521,1,2c,65,2,19,
,,,,,,,,,,,,,,,,,,,,,,,,,images/exp2b_trial_57_colour1_distractors4_l.png,l,1,28,001,2021-04-24_02h26.06.522,searchDisc4,2020.2.10,Win32,60,,,,space,0.00057,1,1,0.625715,,0,433,433,399,1,2b,57,1,4,
,,,,,,,,,,,,,,,,,,,,,,,,,images/exp2b_trial_81_colour1_distractors43_r.png,r,2,28,001,2021-04-24_02h26.06.522,searchDisc4,2020.2.10,Win32,60,,,,space,0.02163,2,1,0.606115,,0,434,434,423,1,2b,81,1,43,
,,,,,,,,,,,,,,,,,,,,,,,,,images/exp2b_trial_44_colour2_distractors1_r.png,r,2,28,001,2021-04-24_02h26.06.522,searchDisc4,2020.2.10,Win32,60,,,,space,0.007385,2,1,0.67634,,0,435,435,386,1,2b,44,2,1,
,,,,,,,,,,,,,,,,,,,,,,,,,images/exp2b_trial_95_colour1_distractors4_l.png,l,1,28,001,2021-04-24_02h26.06.522,searchDisc4,2020.2.10,Win32,60,,,,space,0.018705,1,1,0.672,,0,436,436,437,1,2b,95,1,4,
,,,,,,,,,,,,,,,,,,,,,,,,,images/exp2a_trial_13_colour3_distractors4_r.png,r,2,28,001,2021-04-24_02h26.06.522,searchDisc4,2020.2.10,Win32,60,,,,space,0.010255,2,1,0.801745,,0,437,437,241,1,2a,13,3,4,
,,,,,,,,,,,,,,,,,,,,,,,,,images/exp2b_trial_111_colour3_distractors43_l.png,l,1,28,001,2021-04-24_02h26.06.522,searchDisc4,2020.2.10,Win32,60,,,,space,0.000605,1,1,1.03804,,0,438,438,453,1,2b,111,3,43,
,,,,,,,,,,,,,,,,,,,,,,,,,images/exp1b_trial_9_colour2_distractors19_r.png,r,2,28,001,2021-04-24_02h26.06.522,searchDisc4,2020.2.10,Win32,60,,,,space,0.00157,2,1,2.32885,,0,439,439,123,1,1b,9,2,19,
,,,,,,,,,,,,,,,,,,,,,,,,,images/exp1b_trial_102_colour2_distractors9_l.png,l,1,28,001,2021-04-24_02h26.06.522,searchDisc4,2020.2.10,Win32,60,,,,space,0.02219,1,1,0.722315,,0,440,440,216,1,1b,102,2,9,
,,,,,,,,,,,,,,,,,,,,,,,,,images/exp1a_trial_58_colour1_distractors9_l.png,l,1,28,001,2021-04-24_02h26.06.522,searchDisc4,2020.2.10,Win32,60,,,,space,0.033135,1,1,0.74457,,0,441,441,58,1,1a,58,1,9,
,,,,,,,,,,,,,,,,,,,,,,,,,images/exp2b_trial_10_colour2_distractors31_r.png,r,2,28,001,2021-04-24_02h26.06.522,searchDisc4,2020.2.10,Win32,60,,,,space,0.02214,2,1,0.65619,,0,442,442,352,1,2b,10,2,31,
,,,,,,,,,,,,,,,,,,,,,,,,,images/exp1b_trial_60_colour1_distractors31_l.png,l,1,28,001,2021-04-24_02h26.06.522,searchDisc4,2020.2.10,Win32,60,,,,space,0.0006,1,1,0.75342,,0,443,443,174,1,1b,60,1,31,
,,,,,,,,,,,,,,,,,,,,,,,,,images/exp1b_trial_99_colour1_distractors43_l.png,l,1,28,001,2021-04-24_02h26.06.522,searchDisc4,2020.2.10,Win32,60,,,,space,0.01647,1,1,1.40236,,0,444,444,213,1,1b,99,1,43,
,,,,,,,,,,,,,,,,,,,,,,,,,images/exp2c_trial_77_colour1_distractors4_r.png,r,2,28,001,2021-04-24_02h26.06.522,searchDisc4,2020.2.10,Win32,60,,,,space,0.000645,2,1,0.656305,,0,445,445,533,1,2c,77,1,4,
,,,,,,,,,,,,,,,,,,,,,,,,,images/exp2a_trial_21_colour1_distractors19_l.png,l,1,28,001,2021-04-24_02h26.06.522,searchDisc4,2020.2.10,Win32,60,,,,space,1.24236,1,1,0.76493,,0,446,446,249,1,2a,21,1,19,
,,,,,,,,,,,,,,,,,,,,,,,,,images/exp2b_trial_91_colour3_distractors19_r.png,r,2,28,001,2021-04-24_02h26.06.522,searchDisc4,2020.2.10,Win32,60,,,,space,0.015,2,1,0.755605,,0,447,447,433,1,2b,91,3,19,
,,,,,,,,,,,,,,,,,,,,,,,,,images/exp1a_trial_97_colour1_distractors19_l.png,l,1,28,001,2021-04-24_02h26.06.522,searchDisc4,2020.2.10,Win32,60,,,,space,0.82399,2,0,0.511775,,0,448,448,97,1,1a,97,1,19,
,,,,,,,,,,,,,,,,,,,,,,,,,images/exp2c_trial_82_colour2_distractors1_r.png,r,2,28,001,2021-04-24_02h26.06.522,searchDisc4,2020.2.10,Win32,60,,,,space,0.034545,2,1,0.8069,,0,449,449,538,1,2c,82,2,1,
,,,,,,,,,,,,,,,,,,,,,,,,,images/exp2a_trial_12_colour3_distractors1_r.png,r,2,28,001,2021-04-24_02h26.06.522,searchDisc4,2020.2.10,Win32,60,,,,space,0.00452,2,1,0.64857,,0,450,450,240,1,2a,12,3,1,
,,,,,,,,,,,,,,,,,,,,,,,,,images/exp2c_trial_103_colour2_distractors19_l.png,l,1,28,001,2021-04-24_02h26.06.522,searchDisc4,2020.2.10,Win32,60,,,,space,0.00059,1,1,0.563405,,0,451,451,559,1,2c,103,2,19,
,,,,,,,,,,,,,,,,,,,,,,,,,images/exp2a_trial_80_colour1_distractors31_r.png,r,2,28,001,2021-04-24_02h26.06.522,searchDisc4,2020.2.10,Win32,60,,,,space,0.01658,2,1,0.83704,,0,452,452,308,1,2a,80,1,31,
,,,,,,,,,,,,,,,,,,,,,,,,,images/exp2a_trial_92_colour3_distractors31_r.png,r,2,28,001,2021-04-24_02h26.06.522,searchDisc4,2020.2.10,Win32,60,,,,space,0.639015,2,1,0.551715,,0,453,453,320,1,2a,92,3,31,
,,,,,,,,,,,,,,,,,,,,,,,,,images/exp1a_trial_48_colour2_distractors31_r.png,r,2,28,001,2021-04-24_02h26.06.522,searchDisc4,2020.2.10,Win32,60,,,,space,0.002355,2,1,0.852975,,0,454,454,48,1,1a,48,2,31,
,,,,,,,,,,,,,,,,,,,,,,,,,images/exp2c_trial_6_colour2_distractors1_r.png,r,2,28,001,2021-04-24_02h26.06.522,searchDisc4,2020.2.10,Win32,60,,,,space,0.04998,2,1,1.09067,,0,455,455,462,1,2c,6,2,1,
,,,,,,,,,,,,,,,,,,,,,,,,,images/exp2c_trial_60_colour1_distractors31_l.png,l,1,28,001,2021-04-24_02h26.06.522,searchDisc4,2020.2.10,Win32,60,,,,space,1.3161,1,1,0.74495,,0,456,456,516,1,2c,60,1,31,
,,,,,,,,,,,,,,,,,,,,,,,,,images/exp1a_trial_8_colour2_distractors9_r.png,r,2,28,001,2021-04-24_02h26.06.522,searchDisc4,2020.2.10,Win32,60,,,,space,0.02038,2,1,0.941895,,0,457,457,8,1,1a,8,2,9,
,,,,,,,,,,,,,,,,,,,,,,,,,images/exp2c_trial_35_colour3_distractors43_l.png,l,1,28,001,2021-04-24_02h26.06.522,searchDisc4,2020.2.10,Win32,60,,,,space,0.018215,1,1,0.67548,,0,458,458,491,1,2c,35,3,43,
,,,,,,,,,,,,,,,,,,,,,,,,,images/exp1a_trial_61_colour1_distractors43_l.png,l,1,28,001,2021-04-24_02h26.06.522,searchDisc4,2020.2.10,Win32,60,,,,space,0.021385,2,0,0.68704,,0,459,459,61,1,1a,61,1,43,
,,,,,,,,,,,,,,,,,,,,,,,,,images/exp2c_trial_41_colour1_distractors19_r.png,r,2,28,001,2021-04-24_02h26.06.522,searchDisc4,2020.2.10,Win32,60,,,,space,0.036605,2,1,1.219515,,0,460,460,497,1,2c,41,1,19,
,,,,,,,,,,,,,,,,,,,,,,,,,images/exp2c_trial_50_colour3_distractors1_r.png,r,2,28,001,2021-04-24_02h26.06.522,searchDisc4,2020.2.10,Win32,60,,,,space,0.000535,2,1,0.675905,,0,461,461,506,1,2c,50,3,1,
,,,,,,,,,,,,,,,,,,,,,,,,,images/exp2c_trial_56_colour1_distractors1_l.png,l,1,28,001,2021-04-24_02h26.06.522,searchDisc4,2020.2.10,Win32,60,,,,space,0.65564,1,1,0.539785,,0,462,462,512,1,2c,56,1,1,
,,,,,,,,,,,,,,,,,,,,,,,,,images/exp1b_trial_78_colour1_distractors9_r.png,r,2,28,001,2021-04-24_02h26.06.522,searchDisc4,2020.2.10,Win32,60,,,,space,0.025205,2,1,0.85393,,0,463,463,192,1,1b,78,1,9,
,,,,,,,,,,,,,,,,,,,,,,,,,images/exp2c_trial_91_colour3_distractors19_r.png,r,2,28,001,2021-04-24_02h26.06.522,searchDisc4,2020.2.10,Win32,60,,,,space,0.004865,1,0,0.717235,,0,464,464,547,1,2c,91,3,19,
,,,,,,,,,,,,,,,,,,,,,,,,,images/exp2b_trial_36_colour0_distractors0_r.png,r,2,28,001,2021-04-24_02h26.06.522,searchDisc4,2020.2.10,Win32,60,,,,space,0.01465,2,1,0.63681,,0,465,465,378,1,2b,36,0,0,
,,,,,,,,,,,,,,,,,,,,,,,,,images/exp1a_trial_52_colour3_distractors9_r.png,r,2,28,001,2021-04-24_02h26.06.522,searchDisc4,2020.2.10,Win32,60,,,,space,0.00947,2,1,1.07926,,0,466,466,52,1,1a,52,3,9,
,,,,,,,,,,,,,,,,,,,,,,,,,images/exp1b_trial_95_colour1_distractors4_l.png,l,1,28,001,2021-04-24_02h26.06.522,searchDisc4,2020.2.10,Win32,60,,,,space,0.01478,1,1,0.65325,,0,467,467,209,1,1b,95,1,4,
,,,,,,,,,,,,,,,,,,,,,,,,,images/exp2b_trial_33_colour3_distractors19_l.png,l,1,28,001,2021-04-24_02h26.06.522,searchDisc4,2020.2.10,Win32,60,,,,space,0.65293,1,1,0.71933,,0,468,468,375,1,2b,33,3,19,
,,,,,,,,,,,,,,,,,,,,,,,,,images/exp1b_trial_62_colour2_distractors1_l.png,l,1,28,001,2021-04-24_02h26.06.522,searchDisc4,2020.2.10,Win32,60,,,,space,0.00092,1,1,0.646685,,0,469,469,176,1,1b,62,2,1,
,,,,,,,,,,,,,,,,,,,,,,,,,images/exp1b_trial_14_colour3_distractors9_r.png,r,2,28,001,2021-04-24_02h26.06.522,searchDisc4,2020.2.10,Win32,60,,,,space,0.000635,2,1,0.92294,,0,470,470,128,1,1b,14,3,9,
,,,,,,,,,,,,,,,,,,,,,,,,,images/exp2c_trial_88_colour3_distractors1_r.png,r,2,28,001,2021-04-24_02h26.06.522,searchDisc4,2020.2.10,Win32,60,,,,space,0.04032,2,1,0.89066,,0,471,471,544,1,2c,88,3,1,
,,,,,,,,,,,,,,,,,,,,,,,,,images/exp2c_trial_95_colour1_distractors4_l.png,l,1,28,001,2021-04-24_02h26.06.522,searchDisc4,2020.2.10,Win32,60,,,,space,1.017365,1,1,0.63667,,0,472,472,551,1,2c,95,1,4,
,,,,,,,,,,,,,,,,,,,,,,,,,images/exp2b_trial_70_colour3_distractors9_l.png,l,1,28,001,2021-04-24_02h26.06.522,searchDisc4,2020.2.10,Win32,60,,,,space,0.619895,1,1,0.693055,,0,473,473,412,1,2b,70,3,9,
,,,,,,,,,,,,,,,,,,,,,,,,,images/exp2c_trial_92_colour3_distractors31_r.png,r,2,28,001,2021-04-24_02h26.06.522,searchDisc4,2020.2.10,Win32,60,,,,space,0.52472,1,0,0.683805,,0,474,474,548,1,2c,92,3,31,
,,,,,,,,,,,,,,,,,,,,,,,,,images/exp1a_trial_40_colour1_distractors9_r.png,r,2,28,001,2021-04-24_02h26.06.522,searchDisc4,2020.2.10,Win32,60,,,,space,0.000515,2,1,0.882145,,0,475,475,40,1,1a,40,1,9,
,,,,,,,,,,,,,,,,,,,,,,,,,images/exp2c_trial_3_colour1_distractors19_r.png,r,2,28,001,2021-04-24_02h26.06.522,searchDisc4,2020.2.10,Win32,60,,,,space,0.039945,2,1,0.50565,,0,476,476,459,1,2c,3,1,19,
,,,,,,,,,,,,,,,,,,,,,,,,,images/exp1a_trial_89_colour3_distractors4_r.png,r,2,28,001,2021-04-24_02h26.06.522,searchDisc4,2020.2.10,Win32,60,,,,space,0.13469,2,1,0.703375,,0,477,477,89,1,1a,89,3,4,
,,,,,,,,,,,,,,,,,,,,,,,,,images/exp1b_trial_28_colour2_distractors31_l.png,l,1,28,001,2021-04-24_02h26.06.522,searchDisc4,2020.2.10,Win32,60,,,,space,0.53888,1,1,0.638725,,0,478,478,142,1,1b,28,2,31,
