ImageFile,targ_side,correctAnswer,trials_2.thisRepN,trials_2.thisTrialN,trials_2.thisN,trials_2.thisIndex,trials.thisRepN,trials.thisTrialN,trials.thisN,trials.thisIndex,text_2.started,text_2.stopped,key_resp_5.keys,key_resp_5.rt,key_resp_5.started,key_resp_5.stopped,text_5.started,text_5.stopped,key_resp_8.keys,key_resp_8.rt,key_resp_8.started,key_resp_8.stopped,image_2.started,image_2.stopped,key_resp_6.keys,key_resp_6.rt,key_resp_6.started,key_resp_6.stopped,text_3.started,text_3.stopped,image_3.started,image_3.stopped,fix.started,fix.stopped,key_resp_7.keys,key_resp_7.rt,key_resp_7.started,key_resp_7.stopped,image.started,image.stopped,key_resp_4.keys,key_resp_4.corr,key_resp_4.rt,key_resp_4.started,key_resp_4.stopped,text_4.started,text_4.stopped,text.started,text.stopped,key_resp_3.keys,key_resp_3.rt,key_resp_3.started,key_resp_3.stopped,fix2experiment.started,fix2experiment.stopped,key_resp_9.keys,key_resp_9.rt,key_resp_9.started,key_resp_9.stopped,dispStimuli.started,dispStimuli.stopped,key_resp_2.keys,key_resp_2.corr,key_resp_2.rt,key_resp_2.started,key_resp_2.stopped,breakMessage.started,breakMessage.stopped,key_resp.keys,key_resp.started,key_resp.stopped,key_resp.rt,participant,session,date,expName,psychopyVersion,frameRate,
,,,,,,,,,,,17.311586008174345,None,space,0.7110870686592534,18.279371576820267,None,,,,,,,,,,,,,,,,,,,,,,,,,,,,,,,,,,,,,,,,,,,,,,,,,,,,,,,,,,001,2021_Jan_05_0955,searchDisc3,2020.2.2,59.95223048767103,
,,,,,,,,,,,,,,,,,19.01347699924372,None,space,12.032853145617992,19.01347699924372,None,,,,,,,,,,,,,,,,,,,,,,,,,,,,,,,,,,,,,,,,,,,,,,,,,,,,001,2021_Jan_05_0955,searchDisc3,2020.2.2,59.95223048767103,
,,,,,,,,,,,,,,,,,,,,,,,31.09184941701824,None,space,0.6584980998595711,32.059720744902734,None,,,,,,,,,,,,,,,,,,,,,,,,,,,,,,,,,,,,,,,,,,,,,,001,2021_Jan_05_0955,searchDisc3,2020.2.2,59.95223048767103,
Practice arrays/exp1a_trial_19_colour1_distractors4_l.png,l,1,0,0,0,9,,,,,,,,,,,,,,,,,,,,,,,31.09184941701824,None,31.09184941701824,None,32.79360824925243,None,space,1.3166397229069844,32.79360824925243,None,34.22815827568411,None,1,1,1.2903551584167872,34.22815827568411,None,35.562887436535675,None,,,,,,,,,,,,,,,,,,,,,,,,,,,001,2021_Jan_05_0955,searchDisc3,2020.2.2,59.95223048767103,
Practice arrays/exp1a_trial_28_colour2_distractors31_l.png,l,1,0,1,1,13,,,,,,,,,,,,,,,,,,,,,,,,,,,36.56403942621546,None,space,0.7546025187766645,36.56403942621546,None,37.431364774965914,None,1,1,1.8869158932357095,37.431364774965914,None,39.333422932541,None,,,,,,,,,,,,,,,,,,,,,,,,,,,001,2021_Jan_05_0955,searchDisc3,2020.2.2,59.95223048767103,
Practice arrays/exp1a_trial_7_colour2_distractors4_r.png,r,2,0,2,2,3,,,,,,,,,,,,,,,,,,,,,,,,,,,40.33453940250911,None,space,0.9596675614011474,40.33453940250911,None,41.40190711891046,None,2,1,0.7164575805363711,41.40190711891046,None,42.136066620849306,None,,,,,,,,,,,,,,,,,,,,,,,,,,,001,2021_Jan_05_0955,searchDisc3,2020.2.2,59.95223048767103,
Practice arrays/exp1a_trial_8_colour2_distractors9_r.png,r,2,0,3,3,4,,,,,,,,,,,,,,,,,,,,,,,,,,,43.137119411403546,None,space,24.26155637644115,43.137119411403546,None,67.51088022251497,None,2,1,0.5992656705784611,67.51088022251497,None,68.12835212994833,None,,,,,,,,,,,,,,,,,,,,,,,,,,,001,2021_Jan_05_0955,searchDisc3,2020.2.2,59.95223048767103,
Practice arrays/exp1a_trial_25_colour2_distractors4_l.png,l,1,0,4,4,12,,,,,,,,,,,,,,,,,,,,,,,,,,,69.12931468134047,None,space,0.42117830624920316,69.12931468134047,None,69.66300333949039,None,1,1,0.6792777536611538,69.66300333949039,None,70.3637308209727,None,,,,,,,,,,,,,,,,,,,,,,,,,,,001,2021_Jan_05_0955,searchDisc3,2020.2.2,59.95223048767103,
Practice arrays/exp1a_trial_13_colour3_distractors4_r.png,r,2,0,5,5,7,,,,,,,,,,,,,,,,,,,,,,,,,,,71.36494201011374,None,space,0.4732133600045927,71.36494201011374,None,71.94853134115692,None,2,1,0.6257083136588335,71.94853134115692,None,72.59944230900146,None,,,,,,,,,,,,,,,,,,,,,,,,,,,001,2021_Jan_05_0955,searchDisc3,2020.2.2,59.95223048767103,
Practice arrays/exp1a_trial_37_colour0_distractors0_l.png,l,1,0,6,6,19,,,,,,,,,,,,,,,,,,,,,,,,,,,73.60031526116654,None,space,0.41391725130961277,73.60031526116654,None,74.11729686902254,None,1,1,0.6008816561079584,74.11729686902254,None,74.734899335308,None,,,,,,,,,,,,,,,,,,,,,,,,,,,001,2021_Jan_05_0955,searchDisc3,2020.2.2,59.95223048767103,
Practice arrays/exp1a_trial_32_colour3_distractors9_l.png,l,1,0,7,7,15,,,,,,,,,,,,,,,,,,,,,,,,,,,75.73590444627916,None,space,0.43022718516294844,75.73590444627916,None,76.2695835045306,None,1,1,0.6166869545122609,76.2695835045306,None,76.90368950294214,None,,,,,,,,,,,,,,,,,,,,,,,,,,,001,2021_Jan_05_0955,searchDisc3,2020.2.2,59.95223048767103,
Practice arrays/exp1a_trial_21_colour1_distractors19_l.png,l,1,0,8,8,11,,,,,,,,,,,,,,,,,,,,,,,,,,,77.90473877353361,None,space,0.4056821250997018,77.90473877353361,None,78.42154918290908,None,1,1,0.6485324291570578,78.42154918290908,None,79.0890763218631,None,,,,,,,,,,,,,,,,,,,,,,,,,,,001,2021_Jan_05_0955,searchDisc3,2020.2.2,59.95223048767103,
Practice arrays/exp1a_trial_29_colour2_distractors43_l.png,l,1,0,9,9,14,,,,,,,,,,,,,,,,,,,,,,,,,,,80.09024111143663,None,space,0.4678809277829714,80.09024111143663,None,80.65700755320722,None,1,1,0.5650544571108185,80.65700755320722,None,81.24114759932854,None,,,,,,,,,,,,,,,,,,,,,,,,,,,001,2021_Jan_05_0955,searchDisc3,2020.2.2,59.95223048767103,
Practice arrays/exp1a_trial_12_colour3_distractors1_r.png,r,2,0,10,10,6,,,,,,,,,,,,,,,,,,,,,,,,,,,82.24225734936772,None,space,1.1078825533622876,82.24225734936772,None,83.45978020035545,None,2,1,0.6103238115028944,83.45978020035545,None,84.09399499779101,None,,,,,,,,,,,,,,,,,,,,,,,,,,,001,2021_Jan_05_0955,searchDisc3,2020.2.2,59.95223048767103,
Practice arrays/exp1a_trial_3_colour1_distractors19_r.png,r,2,0,11,11,1,,,,,,,,,,,,,,,,,,,,,,,,,,,85.09504522840143,None,space,0.5271037571656052,85.09504522840143,None,85.72872115066275,None,2,1,0.581330151297152,85.72872115066275,None,86.32941144847427,None,,,,,,,,,,,,,,,,,,,,,,,,,,,001,2021_Jan_05_0955,searchDisc3,2020.2.2,59.95223048767103,
Practice arrays/exp1a_trial_33_colour3_distractors19_l.png,l,1,0,12,12,16,,,,,,,,,,,,,,,,,,,,,,,,,,,87.33058007800719,None,space,0.4355228177155368,87.33058007800719,None,87.88098378639552,None,1,1,0.5894324786786456,87.88098378639552,None,88.49836129468167,None,,,,,,,,,,,,,,,,,,,,,,,,,,,001,2021_Jan_05_0955,searchDisc3,2020.2.2,59.95223048767103,
Practice arrays/exp1a_trial_36_colour0_distractors0_r.png,r,2,0,13,13,18,,,,,,,,,,,,,,,,,,,,,,,,,,,89.499470084731,None,space,0.44269203348085284,89.499470084731,None,90.04957171584829,None,2,1,0.5406095561338589,90.04957171584829,None,90.61698999177315,None,,,,,,,,,,,,,,,,,,,,,,,,,,,001,2021_Jan_05_0955,searchDisc3,2020.2.2,59.95223048767103,
Practice arrays/exp1a_trial_0_colour1_distractors1_r.png,r,2,0,14,14,0,,,,,,,,,,,,,,,,,,,,,,,,,,,91.61804982228205,None,space,0.46804124634945765,91.61804982228205,None,92.18502298218664,None,2,1,0.6770931332430337,92.18502298218664,None,92.88596038179821,None,,,,,,,,,,,,,,,,,,,,,,,,,,,001,2021_Jan_05_0955,searchDisc3,2020.2.2,59.95223048767103,
Practice arrays/exp1a_trial_5_colour1_distractors43_r.png,r,2,0,15,15,2,,,,,,,,,,,,,,,,,,,,,,,,,,,93.88696613279171,None,space,0.407193471561186,93.88696613279171,None,94.40385974140372,None,2,1,0.6743203580845147,94.40385974140372,None,95.10484802056453,None,,,,,,,,,,,,,,,,,,,,,,,,,,,001,2021_Jan_05_0955,searchDisc3,2020.2.2,59.95223048767103,
Practice arrays/exp1a_trial_20_colour1_distractors9_l.png,l,1,0,16,16,10,,,,,,,,,,,,,,,,,,,,,,,,,,,96.10591361101251,None,space,0.42816512362333015,96.10591361101251,None,96.63950851000845,None,1,1,0.7825885080092121,96.63950851000845,None,97.44044373361976,None,,,,,,,,,,,,,,,,,,,,,,,,,,,001,2021_Jan_05_0955,searchDisc3,2020.2.2,59.95223048767103,
Practice arrays/exp1a_trial_16_colour3_distractors31_r.png,r,2,0,17,17,8,,,,,,,,,,,,,,,,,,,,,,,,,,,98.44151188404066,None,space,0.40450549562228844,98.44151188404066,None,98.95835429313593,None,2,1,0.6476348371943459,98.95835429313593,None,99.62590383191127,None,,,,,,,,,,,,,,,,,,,,,,,,,,,001,2021_Jan_05_0955,searchDisc3,2020.2.2,59.95223048767103,
Practice arrays/exp1a_trial_10_colour2_distractors31_r.png,r,2,0,18,18,5,,,,,,,,,,,,,,,,,,,,,,,,,,,100.62725261980086,None,space,0.47483030552393757,100.62725261980086,None,101.2274453220889,None,2,1,1.0106562245055102,101.2274453220889,None,102.26185013382928,None,,,,,,,,,,,,,,,,,,,,,,,,,,,001,2021_Jan_05_0955,searchDisc3,2020.2.2,59.95223048767103,
Practice arrays/exp1a_trial_35_colour3_distractors43_l.png,l,1,0,19,19,17,,,,,,,,,,,,,,,,,,,,,,,,,,,103.2629365240864,None,space,0.5351187253254466,103.2629365240864,None,103.89652412713622,None,1,1,0.7655182609451003,103.89652412713622,None,104.68072126072366,None,,,,,,,,,,,,,,,,,,,,,,,,,,,001,2021_Jan_05_0955,searchDisc3,2020.2.2,59.95223048767103,
,,,,,,,,,,,,,,,,,,,,,,,,,,,,,,,,,,,,,,,,,,,,,,,,105.76501394546358,None,space,0.3418906966689974,108.76828623615438,None,,,,,,,,,,,,,,,,,,,,,001,2021_Jan_05_0955,searchDisc3,2020.2.2,59.95223048767103,
Images/exp2c_trial_50_colour3_distractors1_r.png,r,2,,,,,0,0,0,540,,,,,,,,,,,,,,,,,,,,,,,,,,,,,,,,,,,,,,,,,,,,109.21892699840828,None,space,1.2431418214400765,109.21892699840828,None,110.5697376151511,None,2,1,0.7163078218873125,110.5697376151511,None,111.37074899808795,None,None,111.37074899808795,None,,,001,2021_Jan_05_0955,searchDisc3,2020.2.2,59.95223048767103,
Images/exp2b_trial_74_colour0_distractors0_r.png,r,2,,,,,0,1,1,492,,,,,,,,,,,,,,,,,,,,,,,,,,,,,,,,,,,,,,,,,,,,111.38735876925057,None,space,1.0727203084388748,111.38735876925057,None,112.57174399716314,None,2,1,0.5783148182963487,112.57174399716314,None,113.20584109966585,None,None,113.20584109966585,None,,,001,2021_Jan_05_0955,searchDisc3,2020.2.2,59.95223048767103,
Images/exp1b_trial_60_colour1_distractors31_l.png,l,1,,,,,0,2,2,149,,,,,,,,,,,,,,,,,,,,,,,,,,,,,,,,,,,,,,,,,,,,113.22250424636877,None,space,0.8296680861676577,113.22250424636877,None,114.15675699544954,None,1,1,1.0572641268954612,114.15675699544954,None,115.27466864295711,None,None,115.27466864295711,None,,,001,2021_Jan_05_0955,searchDisc3,2020.2.2,59.95223048767103,
Images/exp1b_trial_93_colour3_distractors43_r.png,r,2,,,,,0,3,3,455,,,,,,,,,,,,,,,,,,,,,,,,,,,,,,,,,,,,,,,,,,,,115.29141210895614,None,space,1.1289031650230754,115.29141210895614,None,116.52569320978364,None,2,1,1.8882816409750376,116.52569320978364,None,118.4777625032264,None,None,118.4777625032264,None,,,001,2021_Jan_05_0955,searchDisc3,2020.2.2,59.95223048767103,
Images/exp2a_trial_58_colour1_distractors9_l.png,l,1,,,,,0,4,4,90,,,,,,,,,,,,,,,,,,,,,,,,,,,,,,,,,,,,,,,,,,,,118.49436997043085,None,space,1.0540375958080404,118.49436997043085,None,119.66224014633917,None,1,1,0.6479401144606527,119.66224014633917,None,120.36295201195462,None,None,120.36295201195462,None,,,001,2021_Jan_05_0955,searchDisc3,2020.2.2,59.95223048767103,
Images/exp2b_trial_106_colour3_distractors1_l.png,l,1,,,,,0,5,5,176,,,,,,,,,,,,,,,,,,,,,,,,,,,,,,,,,,,,,,,,,,,,120.3797127577709,None,space,1.1212126739264932,120.3797127577709,None,121.61392985918792,None,1,1,0.6400813048530836,121.61392985918792,None,122.31478988346934,None,None,122.31478988346934,None,,,001,2021_Jan_05_0955,searchDisc3,2020.2.2,59.95223048767103,
Images/exp1b_trial_5_colour1_distractors43_r.png,r,2,,,,,0,6,6,426,,,,,,,,,,,,,,,,,,,,,,,,,,,,,,,,,,,,,,,,,,,,122.31488101865398,None,space,1.5451343155873474,122.31488101865398,None,123.96626910223858,None,2,1,0.6477612360613421,123.96626910223858,None,124.66723280559818,None,None,124.66723280559818,None,,,001,2021_Jan_05_0955,searchDisc3,2020.2.2,59.95223048767103,
Images/exp1a_trial_55_colour3_distractors43_r.png,r,2,,,,,0,7,7,318,,,,,,,,,,,,,,,,,,,,,,,,,,,,,,,,,,,,,,,,,,,,124.6670669830637,None,space,1.4889280992210843,124.6670669830637,None,126.28518624472781,None,2,1,0.688841187977232,126.28518624472781,None,127.03621797947271,None,None,127.03621797947271,None,,,001,2021_Jan_05_0955,searchDisc3,2020.2.2,59.95223048767103,
Images/exp1a_trial_94_colour1_distractors1_l.png,l,1,,,,,0,8,8,52,,,,,,,,,,,,,,,,,,,,,,,,,,,,,,,,,,,,,,,,,,,,127.03603071716498,None,space,0.9603869149286766,127.03603071716498,None,128.10387906924007,None,1,1,0.718242524570087,128.10387906924007,None,128.87131897697398,None,None,128.87131897697398,None,,,001,2021_Jan_05_0955,searchDisc3,2020.2.2,59.95223048767103,
Images/exp2c_trial_17_colour3_distractors43_r.png,r,2,,,,,0,9,9,522,,,,,,,,,,,,,,,,,,,,,,,,,,,,,,,,,,,,,,,,,,,,128.8880602029676,None,space,1.1959800040058326,128.8880602029676,None,130.18902678630548,None,2,1,0.6249822401732672,130.18902678630548,None,130.9232356958033,None,None,130.9232356958033,None,,,001,2021_Jan_05_0955,searchDisc3,2020.2.2,59.95223048767103,
Images/exp1a_trial_34_colour3_distractors31_l.png,l,1,,,,,0,10,10,30,,,,,,,,,,,,,,,,,,,,,,,,,,,,,,,,,,,,,,,,,,,,130.92320324809407,None,space,0.9935197380546015,130.92320324809407,None,132.04087867372436,None,1,1,0.9091512140294071,132.04087867372436,None,133.0088956642983,None,None,133.0088956642983,None,,,001,2021_Jan_05_0955,searchDisc3,2020.2.2,59.95223048767103,
Images/exp1b_trial_70_colour3_distractors9_l.png,l,1,,,,,0,11,11,159,,,,,,,,,,,,,,,,,,,,,,,,,,,,,,,,,,,,,,,,,,,,133.0088610406092,None,space,0.6511013661220204,133.0088610406092,None,133.77601352692,None,1,1,1.3820311370072886,133.77601352692,None,135.210797215256,None,None,135.210797215256,None,,,001,2021_Jan_05_0955,searchDisc3,2020.2.2,59.95223048767103,
Images/exp1b_trial_3_colour1_distractors19_r.png,r,2,,,,,0,12,12,411,,,,,,,,,,,,,,,,,,,,,,,,,,,,,,,,,,,,,,,,,,,,135.21079843124608,None,space,0.721281217323849,135.21079843124608,None,136.04478391874,None,2,1,0.7533222102501895,136.04478391874,None,136.86238881697935,None,None,136.86238881697935,None,,,001,2021_Jan_05_0955,searchDisc3,2020.2.2,59.95223048767103,
Images/exp1a_trial_97_colour1_distractors19_l.png,l,1,,,,,0,13,13,54,,,,,,,,,,,,,,,,,,,,,,,,,,,,,,,,,,,,,,,,,,,,136.86243483258295,None,space,1.093698680459056,136.86243483258295,None,138.0801288820512,None,1,1,0.7978427713387646,138.0801288820512,None,138.93112804108821,None,None,138.93112804108821,None,,,001,2021_Jan_05_0955,searchDisc3,2020.2.2,59.95223048767103,
Images/exp2b_trial_59_colour1_distractors19_l.png,l,1,,,,,0,14,14,205,,,,,,,,,,,,,,,,,,,,,,,,,,,,,,,,,,,,,,,,,,,,138.93123037618352,None,space,0.8888102762575727,138.93123037618352,None,139.9486311802757,None,1,1,0.7055363983963616,139.9486311802757,None,140.71631236583633,None,None,140.71631236583633,None,,,001,2021_Jan_05_0955,searchDisc3,2020.2.2,59.95223048767103,
Images/exp2a_trial_75_colour0_distractors0_l.png,l,1,,,,,0,15,15,106,,,,,,,,,,,,,,,,,,,,,,,,,,,,,,,,,,,,,,,,,,,,140.7161849429831,None,space,0.8887606766948011,140.7161849429831,None,141.7338715045189,None,1,1,0.6400515451387037,141.7338715045189,None,142.43464224959897,None,None,142.43464224959897,None,,,001,2021_Jan_05_0955,searchDisc3,2020.2.2,59.95223048767103,
Images/exp2b_trial_27_colour2_distractors19_l.png,l,1,,,,,0,16,16,192,,,,,,,,,,,,,,,,,,,,,,,,,,,,,,,,,,,,,,,,,,,,142.45138795557432,None,space,1.096568414766807,142.45138795557432,None,143.65227255562786,None,1,1,0.6178031044837553,143.65227255562786,None,144.31982119838065,None,None,144.31982119838065,None,,,001,2021_Jan_05_0955,searchDisc3,2020.2.2,59.95223048767103,
Images/exp2a_trial_89_colour3_distractors4_r.png,r,2,,,,,0,17,17,393,,,,,,,,,,,,,,,,,,,,,,,,,,,,,,,,,,,,,,,,,,,,144.31983841423062,None,space,0.9161114716262091,144.31983841423062,None,145.3372536181996,None,2,1,0.8206777667219285,145.3372536181996,None,146.22158111861498,None,None,146.22158111861498,None,,,001,2021_Jan_05_0955,searchDisc3,2020.2.2,59.95223048767103,
Images/exp1a_trial_52_colour3_distractors9_r.png,r,2,,,,,0,18,18,315,,,,,,,,,,,,,,,,,,,,,,,,,,,,,,,,,,,,,,,,,,,,146.22160857438575,None,space,0.9590736466925591,146.22160857438575,None,147.28914812923176,None,2,1,0.8288232937338762,147.28914812923176,None,148.19028712701984,None,None,148.19028712701984,None,,,001,2021_Jan_05_0955,searchDisc3,2020.2.2,59.95223048767103,
Images/exp2b_trial_96_colour1_distractors9_l.png,l,1,,,,,0,19,19,223,,,,,,,,,,,,,,,,,,,,,,,,,,,,,,,,,,,,,,,,,,,,148.19029141499777,None,space,0.8216345581458881,148.19029141499777,None,149.12429328632425,None,1,1,0.7137177650874946,149.12429328632425,None,149.89190343254884,None,None,149.89190343254884,None,,,001,2021_Jan_05_0955,searchDisc3,2020.2.2,59.95223048767103,
Images/exp2a_trial_16_colour3_distractors31_r.png,r,2,,,,,0,20,20,351,,,,,,,,,,,,,,,,,,,,,,,,,,,,,,,,,,,,,,,,,,,,149.90857457916718,None,space,1.0074434533016756,149.90857457916718,None,151.04281433636788,None,2,1,0.8111876117473003,151.04281433636788,None,151.91066550442773,None,None,151.91066550442773,None,,,001,2021_Jan_05_0955,searchDisc3,2020.2.2,59.95223048767103,
Images/exp2b_trial_20_colour1_distractors9_l.png,l,1,,,,,0,21,21,185,,,,,,,,,,,,,,,,,,,,,,,,,,,,,,,,,,,,,,,,,,,,151.9105080018344,None,space,0.9578378177830018,151.9105080018344,None,152.97803795678192,None,1,1,0.5159537770668976,152.97803795678192,None,153.54545181675056,None,None,153.54545181675056,None,,,001,2021_Jan_05_0955,searchDisc3,2020.2.2,59.95223048767103,
Images/exp2c_trial_29_colour2_distractors43_l.png,l,1,,,,,0,22,22,251,,,,,,,,,,,,,,,,,,,,,,,,,,,,,,,,,,,,,,,,,,,,153.54554967186414,None,space,0.9469236755685415,153.54554967186414,None,154.5964736955939,None,1,1,0.6255345552053768,154.5964736955939,None,155.29735048773583,None,None,155.29735048773583,None,,,001,2021_Jan_05_0955,searchDisc3,2020.2.2,59.95223048767103,
Images/exp1b_trial_8_colour2_distractors9_r.png,r,2,,,,,0,23,23,440,,,,,,,,,,,,,,,,,,,,,,,,,,,,,,,,,,,,,,,,,,,,155.29719573713373,None,space,1.010978461621562,155.29719573713373,None,156.4147943634307,None,2,1,0.5752361258782912,156.4147943634307,None,157.04894010547721,None,None,157.04894010547721,None,,,001,2021_Jan_05_0955,searchDisc3,2020.2.2,59.95223048767103,
Images/exp2a_trial_107_colour3_distractors4_l.png,l,1,,,,,0,24,24,64,,,,,,,,,,,,,,,,,,,,,,,,,,,,,,,,,,,,,,,,,,,,157.04906292038504,None,space,1.003246050910093,157.04906292038504,None,158.1665809074184,None,1,1,0.6152770471235272,158.1665809074184,None,158.83407995063752,None,None,158.83407995063752,None,,,001,2021_Jan_05_0955,searchDisc3,2020.2.2,59.95223048767103,
Images/exp1b_trial_4_colour1_distractors31_r.png,r,2,,,,,0,25,25,415,,,,,,,,,,,,,,,,,,,,,,,,,,,,,,,,,,,,,,,,,,,,158.83405076689087,None,space,1.0020057420188095,158.83405076689087,None,159.95160171363386,None,2,1,0.6143468154477887,159.95160171363386,None,160.6191890760645,None,None,160.6191890760645,None,,,001,2021_Jan_05_0955,searchDisc3,2020.2.2,59.95223048767103,
Images/exp2c_trial_38_colour1_distractors1_r.png,r,2,,,,,0,26,26,526,,,,,,,,,,,,,,,,,,,,,,,,,,,,,,,,,,,,,,,,,,,,160.6191973319801,None,space,0.9855476494994946,160.6191973319801,None,161.71998042898485,None,2,1,0.5098223120148759,161.71998042898485,None,162.28735364929597,None,None,162.28735364929597,None,,,001,2021_Jan_05_0955,searchDisc3,2020.2.2,59.95223048767103,
Images/exp2c_trial_25_colour2_distractors4_l.png,l,1,,,,,0,27,27,247,,,,,,,,,,,,,,,,,,,,,,,,,,,,,,,,,,,,,,,,,,,,162.28724542626878,None,space,1.037536943651503,162.28724542626878,None,163.43836183226085,None,1,1,0.6315831410174724,163.43836183226085,None,164.12276760398234,None,None,164.12276760398234,None,,,001,2021_Jan_05_0955,searchDisc3,2020.2.2,59.95223048767103,
Images/exp2b_trial_33_colour3_distractors19_l.png,l,1,,,,,0,28,28,198,,,,,,,,,,,,,,,,,,,,,,,,,,,,,,,,,,,,,,,,,,,,164.12270130059915,None,space,0.9776110806269571,164.12270130059915,None,165.22362039636937,None,1,1,0.7502758375485428,165.22362039636937,None,166.02440624532463,None,None,166.02440624532463,None,,,001,2021_Jan_05_0955,searchDisc3,2020.2.2,59.95223048767103,
Images/exp2b_trial_57_colour1_distractors4_l.png,l,1,,,,,0,29,29,203,,,,,,,,,,,,,,,,,,,,,,,,,,,,,,,,,,,,,,,,,,,,166.02453162020538,None,space,1.379340601124568,166.02453162020538,None,167.50902231916552,None,1,1,0.5608324149507098,167.50902231916552,None,168.12653173025754,None,None,168.12653173025754,None,,,001,2021_Jan_05_0955,searchDisc3,2020.2.2,59.95223048767103,
Images/exp1b_trial_110_colour3_distractors31_l.png,l,1,,,,,0,30,30,123,,,,,,,,,,,,,,,,,,,,,,,,,,,,,,,,,,,,,,,,,,,,168.14329023612663,None,space,1.1889557469403371,168.14329023612663,None,169.44449937727768,None,1,1,1.545481192501029,169.44449937727768,None,171.04610365090483,None,None,171.04610365090483,None,,,001,2021_Jan_05_0955,searchDisc3,2020.2.2,59.95223048767103,
Images/exp2b_trial_46_colour2_distractors9_r.png,r,2,,,,,0,31,31,479,,,,,,,,,,,,,,,,,,,,,,,,,,,,,,,,,,,,,,,,,,,,171.04615606644074,None,space,0.8704498007718939,171.04615606644074,None,172.03020580936573,None,2,1,0.935895294387592,172.03020580936573,None,173.0146975323121,None,None,173.0146975323121,None,,,001,2021_Jan_05_0955,searchDisc3,2020.2.2,59.95223048767103,
Images/exp2c_trial_11_colour2_distractors43_r.png,r,2,,,,,0,32,32,515,,,,,,,,,,,,,,,,,,,,,,,,,,,,,,,,,,,,,,,,,,,,173.01454098970862,None,space,0.9261337818170432,173.01454098970862,None,174.04877812293125,None,2,1,0.5890974416979589,174.04877812293125,None,174.69964435518776,None,None,174.69964435518776,None,,,001,2021_Jan_05_0955,searchDisc3,2020.2.2,59.95223048767103,
Images/exp1a_trial_103_colour2_distractors19_l.png,l,1,,,,,0,33,33,4,,,,,,,,,,,,,,,,,,,,,,,,,,,,,,,,,,,,,,,,,,,,174.71622846258106,None,space,0.9122398263134528,174.71622846258106,None,175.73374574564514,None,1,1,0.8402193516376428,175.73374574564514,None,176.6348260559578,None,None,176.6348260559578,None,,,001,2021_Jan_05_0955,searchDisc3,2020.2.2,59.95223048767103,
Images/exp2a_trial_70_colour3_distractors9_l.png,l,1,,,,,0,34,34,102,,,,,,,,,,,,,,,,,,,,,,,,,,,,,,,,,,,,,,,,,,,,176.63471271298476,None,space,0.9852513321384322,176.63471271298476,None,177.73575084767072,None,1,1,0.5181351975188591,177.73575084767072,None,178.3030872683419,None,None,178.3030872683419,None,,,001,2021_Jan_05_0955,searchDisc3,2020.2.2,59.95223048767103,
Images/exp2a_trial_104_colour2_distractors31_l.png,l,1,,,,,0,35,35,61,,,,,,,,,,,,,,,,,,,,,,,,,,,,,,,,,,,,,,,,,,,,178.31979297465296,None,space,0.8600959735340439,178.31979297465296,None,179.28725918615237,None,1,1,0.59078222658718,179.28725918615237,None,179.93804029916353,None,None,179.93804029916353,None,,,001,2021_Jan_05_0955,searchDisc3,2020.2.2,59.95223048767103,
Images/exp2a_trial_32_colour3_distractors9_l.png,l,1,,,,,0,36,36,83,,,,,,,,,,,,,,,,,,,,,,,,,,,,,,,,,,,,,,,,,,,,179.93813911426696,None,space,1.0018444634915795,179.93813911426696,None,181.0558977391629,None,1,1,0.6539909402490593,181.0558977391629,None,181.78996687388863,None,None,181.78996687388863,None,,,001,2021_Jan_05_0955,searchDisc3,2020.2.2,59.95223048767103,
Images/exp2b_trial_32_colour3_distractors9_l.png,l,1,,,,,0,37,37,197,,,,,,,,,,,,,,,,,,,,,,,,,,,,,,,,,,,,,,,,,,,,181.78983100311598,None,space,0.9020811973605305,181.78983100311598,None,182.80735980605823,None,1,1,0.6945169771497604,182.80735980605823,None,183.55835762110362,None,None,183.55835762110362,None,,,001,2021_Jan_05_0955,searchDisc3,2020.2.2,59.95223048767103,
Images/exp1a_trial_39_colour1_distractors4_r.png,r,2,,,,,0,38,38,300,,,,,,,,,,,,,,,,,,,,,,,,,,,,,,,,,,,,,,,,,,,,183.55819915852044,None,space,0.8145085419819225,183.55819915852044,None,184.475775257044,None,2,1,0.8346690013713669,184.475775257044,None,185.3600432380015,None,None,185.3600432380015,None,,,001,2021_Jan_05_0955,searchDisc3,2020.2.2,59.95223048767103,
Images/exp2b_trial_50_colour3_distractors1_r.png,r,2,,,,,0,39,39,484,,,,,,,,,,,,,,,,,,,,,,,,,,,,,,,,,,,,,,,,,,,,185.36027421194012,None,space,0.9001410547352862,185.36027421194012,None,186.36084924679017,None,2,1,0.7330404719687067,186.36084924679017,None,187.14526436241866,None,None,187.14526436241866,None,,,001,2021_Jan_05_0955,searchDisc3,2020.2.2,59.95223048767103,
Images/exp2c_trial_69_colour3_distractors4_l.png,l,1,,,,,0,40,40,272,,,,,,,,,,,,,,,,,,,,,,,,,,,,,,,,,,,,,,,,,,,,187.14524573858944,None,space,0.7945730406208895,187.14524573858944,None,188.04601782766986,None,1,1,0.9038389415945858,188.04601782766986,None,189.01364698170508,None,None,189.01364698170508,None,,,001,2021_Jan_05_0955,searchDisc3,2020.2.2,59.95223048767103,
Images/exp1b_trial_15_colour3_distractors19_r.png,r,2,,,,,0,41,41,407,,,,,,,,,,,,,,,,,,,,,,,,,,,,,,,,,,,,,,,,,,,,189.0138459559239,None,space,0.7746362592442892,189.0138459559239,None,189.89761275739875,None,2,1,0.7321883195836563,189.89761275739875,None,190.6818845143105,None,None,190.6818845143105,None,,,001,2021_Jan_05_0955,searchDisc3,2020.2.2,59.95223048767103,
Images/exp1a_trial_91_colour3_distractors19_r.png,r,2,,,,,0,42,42,339,,,,,,,,,,,,,,,,,,,,,,,,,,,,,,,,,,,,,,,,,,,,190.6819407698058,None,space,0.8260233188339043,190.6819407698058,None,191.61623127857456,None,2,1,0.8455338640196715,191.61623127857456,None,192.533712849929,None,None,192.533712849929,None,,,001,2021_Jan_05_0955,searchDisc3,2020.2.2,59.95223048767103,
Images/exp1b_trial_18_colour1_distractors1_l.png,l,1,,,,,0,43,43,126,,,,,,,,,,,,,,,,,,,,,,,,,,,,,,,,,,,,,,,,,,,,192.53366145837936,None,space,0.6383178006508388,192.53366145837936,None,193.2844534512842,None,1,1,0.8174397157272324,193.2844534512842,None,194.16877435977804,None,None,194.16877435977804,None,,,001,2021_Jan_05_0955,searchDisc3,2020.2.2,59.95223048767103,
Images/exp1a_trial_13_colour3_distractors4_r.png,r,2,,,,,0,44,44,291,,,,,,,,,,,,,,,,,,,,,,,,,,,,,,,,,,,,,,,,,,,,194.1686852085695,None,space,0.6431849570362829,194.1686852085695,None,194.91935432257014,None,2,1,0.6064998457732145,194.91935432257014,None,195.5868380059226,None,None,195.5868380059226,None,,,001,2021_Jan_05_0955,searchDisc3,2020.2.2,59.95223048767103,
Images/exp2b_trial_49_colour2_distractors43_r.png,r,2,,,,,0,45,45,482,,,,,,,,,,,,,,,,,,,,,,,,,,,,,,,,,,,,,,,,,,,,195.58696114082704,None,space,0.5690909009426832,195.58696114082704,None,196.27057005569804,None,2,1,0.80733004634385,196.27057005569804,None,197.13829738483471,None,None,197.13829738483471,None,,,001,2021_Jan_05_0955,searchDisc3,2020.2.2,59.95223048767103,
Images/exp2c_trial_54_colour3_distractors31_r.png,r,2,,,,,0,46,46,544,,,,,,,,,,,,,,,,,,,,,,,,,,,,,,,,,,,,,,,,,,,,197.15491189199383,None,space,0.5701881711138412,197.15491189199383,None,197.8388075242692,None,2,1,0.5831650148320477,197.8388075242692,None,198.47298558603214,None,None,198.47298558603214,None,,,001,2021_Jan_05_0955,searchDisc3,2020.2.2,59.95223048767103,
Images/exp1b_trial_30_colour3_distractors1_l.png,l,1,,,,,0,47,47,138,,,,,,,,,,,,,,,,,,,,,,,,,,,,,,,,,,,,,,,,,,,,198.47306168137584,None,space,0.5627418378426228,198.47306168137584,None,199.14005602509133,None,1,1,0.5297437334957067,199.14005602509133,None,199.724181095339,None,None,199.724181095339,None,,,001,2021_Jan_05_0955,searchDisc3,2020.2.2,59.95223048767103,
Images/exp2c_trial_26_colour2_distractors9_l.png,l,1,,,,,0,48,48,248,,,,,,,,,,,,,,,,,,,,,,,,,,,,,,,,,,,,,,,,,,,,199.7407754426531,None,space,0.4881690659967717,199.7407754426531,None,200.34136526135262,None,1,1,0.5767241125577129,200.34136526135262,None,200.9754521239345,None,None,200.9754521239345,None,,,001,2021_Jan_05_0955,searchDisc3,2020.2.2,59.95223048767103,
Images/exp2b_trial_113_colour0_distractors0_l.png,l,1,,,,,0,49,49,182,,,,,,,,,,,,,,,,,,,,,,,,,,,,,,,,,,,,,,,,,,,,200.99211111068144,None,space,0.5077762503060512,200.99211111068144,None,201.60924670114764,None,1,1,0.46877307977410965,201.60924670114764,None,202.12657812985415,None,None,202.12657812985415,None,,,001,2021_Jan_05_0955,searchDisc3,2020.2.2,59.95223048767103,
Images/exp2c_trial_58_colour1_distractors9_l.png,l,1,,,,,0,50,50,261,,,,,,,,,,,,,,,,,,,,,,,,,,,,,,,,,,,,,,,,,,,,202.12649774659076,None,space,0.47737460272037424,202.12649774659076,None,202.71025731609552,None,1,1,0.575567962921923,202.71025731609552,None,203.3443419387011,None,None,203.3443419387011,None,,,001,2021_Jan_05_0955,searchDisc3,2020.2.2,59.95223048767103,
Images/exp2b_trial_93_colour3_distractors43_r.png,r,2,,,,,0,51,51,512,,,,,,,,,,,,,,,,,,,,,,,,,,,,,,,,,,,,,,,,,,,,203.3444621936069,None,space,0.49151495602563955,203.3444621936069,None,203.94496273313416,None,2,1,0.6928453120926861,203.94496273313416,None,204.69572311031223,None,None,204.69572311031223,None,,,001,2021_Jan_05_0955,searchDisc3,2020.2.2,59.95223048767103,
Images/exp2c_trial_90_colour3_distractors9_r.png,r,2,,,,,0,52,52,565,,,,,,,,,,,,,,,,,,,,,,,,,,,,,,,,,,,,,,,,,,,,204.71243841655087,None,space,0.41947720147436485,204.71243841655087,None,205.2460333155468,None,2,1,0.8958825329027604,205.2460333155468,None,206.1971819772414,None,None,206.1971819772414,None,,,001,2021_Jan_05_0955,searchDisc3,2020.2.2,59.95223048767103,
Images/exp2c_trial_28_colour2_distractors31_l.png,l,1,,,,,0,53,53,250,,,,,,,,,,,,,,,,,,,,,,,,,,,,,,,,,,,,,,,,,,,,206.213801924343,None,space,0.550336508982582,206.213801924343,None,206.86432953560143,None,1,1,0.95757926008082,206.86432953560143,None,207.882344798182,None,None,207.882344798182,None,,,001,2021_Jan_05_0955,searchDisc3,2020.2.2,59.95223048767103,
Images/exp1a_trial_112_colour0_distractors0_r.png,r,2,,,,,0,54,54,289,,,,,,,,,,,,,,,,,,,,,,,,,,,,,,,,,,,,,,,,,,,,207.88238313383772,None,space,0.6493737015989609,207.88238313383772,None,208.63289288929082,None,2,1,0.9169117844721768,208.63289288929082,None,209.60047148377342,None,None,209.60047148377342,None,,,001,2021_Jan_05_0955,searchDisc3,2020.2.2,59.95223048767103,
Images/exp1b_trial_67_colour2_distractors43_l.png,l,1,,,,,0,55,55,156,,,,,,,,,,,,,,,,,,,,,,,,,,,,,,,,,,,,,,,,,,,,209.60050149951712,None,space,0.4441297806042712,209.60050149951712,None,210.15098360719276,None,1,1,0.9108676786127035,210.15098360719276,None,211.11879707956976,None,None,211.11879707956976,None,,,001,2021_Jan_05_0955,searchDisc3,2020.2.2,59.95223048767103,
Images/exp2a_trial_102_colour2_distractors9_l.png,l,1,,,,,0,56,56,59,,,,,,,,,,,,,,,,,,,,,,,,,,,,,,,,,,,,,,,,,,,,211.13541542668827,None,space,0.5491317197738681,211.13541542668827,None,211.78583615890238,None,1,1,0.5719974348903634,211.78583615890238,None,212.4199214215012,None,None,212.4199214215012,None,,,001,2021_Jan_05_0955,searchDisc3,2020.2.2,59.95223048767103,
Images/exp1b_trial_43_colour1_distractors43_r.png,r,2,,,,,0,57,57,419,,,,,,,,,,,,,,,,,,,,,,,,,,,,,,,,,,,,,,,,,,,,212.41990247767535,None,space,0.5684029071126133,212.41990247767535,None,213.10375971029862,None,2,1,1.9742149510420859,213.10375971029862,None,215.13930441581468,None,None,215.13930441581468,None,,,001,2021_Jan_05_0955,searchDisc3,2020.2.2,59.95223048767103,
Images/exp2a_trial_83_colour2_distractors4_r.png,r,2,,,,,0,58,58,387,,,,,,,,,,,,,,,,,,,,,,,,,,,,,,,,,,,,,,,,,,,,215.1559448427288,None,space,0.6082150303991511,215.1559448427288,None,215.89007618490723,None,2,1,0.6116892392747104,215.89007618490723,None,216.5574235494685,None,None,216.5574235494685,None,,,001,2021_Jan_05_0955,searchDisc3,2020.2.2,59.95223048767103,
Images/exp1b_trial_10_colour2_distractors31_r.png,r,2,,,,,0,59,59,401,,,,,,,,,,,,,,,,,,,,,,,,,,,,,,,,,,,,,,,,,,,,216.55756300422945,None,space,0.6150562491093297,216.55756300422945,None,217.27449482053635,None,2,1,0.811297690786887,217.27449482053635,None,218.15892657602672,None,space,218.15892657602672,None,10.830915435013594,,001,2021_Jan_05_0955,searchDisc3,2020.2.2,59.95223048767103,
