ImageFile,targ_side,correctAnswer,exp,trial,colour,distNo,trials_2.thisRepN,trials_2.thisTrialN,trials_2.thisN,trials_2.thisIndex,trials.thisRepN,trials.thisTrialN,trials.thisN,trials.thisIndex,text_2.started,text_2.stopped,key_resp_5.keys,key_resp_5.rt,key_resp_5.started,key_resp_5.stopped,text_5.started,text_5.stopped,key_resp_8.keys,key_resp_8.rt,key_resp_8.started,key_resp_8.stopped,image_2.started,image_2.stopped,key_resp_6.keys,key_resp_6.rt,key_resp_6.started,key_resp_6.stopped,text_3.started,text_3.stopped,image_3.started,image_3.stopped,fix.started,fix.stopped,key_resp_7.keys,key_resp_7.rt,key_resp_7.started,key_resp_7.stopped,image.started,image.stopped,key_resp_4.keys,key_resp_4.corr,key_resp_4.rt,key_resp_4.started,key_resp_4.stopped,text_4.started,text_4.stopped,text.started,text.stopped,key_resp_3.keys,key_resp_3.rt,key_resp_3.started,key_resp_3.stopped,fix2experiment.started,fix2experiment.stopped,key_resp_9.keys,key_resp_9.rt,key_resp_9.started,key_resp_9.stopped,dispStimuli.started,dispStimuli.stopped,key_resp_2.keys,key_resp_2.corr,key_resp_2.rt,key_resp_2.started,key_resp_2.stopped,breakMessage.started,breakMessage.stopped,key_resp.keys,key_resp.started,key_resp.stopped,key_resp.rt,participant,session,date,expName,psychopyVersion,frameRate,
,,,,,,,,,,,,,,,9.345330258369358,None,space,11.683025372933344,10.313222014686062,None,,,,,,,,,,,,,,,,,,,,,,,,,,,,,,,,,,,,,,,,,,,,,,,,,,,,,,,,,,001,2021_Jan_06_1300,searchDisc3,2020.2.2,59.949834347834084,
,,,,,,,,,,,,,,,,,,,,,22.024462219958195,None,space,10.579956051523595,22.024462219958195,None,,,,,,,,,,,,,,,,,,,,,,,,,,,,,,,,,,,,,,,,,,,,,,,,,,,,001,2021_Jan_06_1300,searchDisc3,2020.2.2,59.949834347834084,
,,,,,,,,,,,,,,,,,,,,,,,,,,,32.65170048348455,None,space,3.3607679047481724,33.61947800064195,None,,,,,,,,,,,,,,,,,,,,,,,,,,,,,,,,,,,,,,,,,,,,,,001,2021_Jan_06_1300,searchDisc3,2020.2.2,59.949834347834084,
Practice arrays/exp1a_trial_3_colour1_distractors19_r.png,r,2,,,,,0,0,0,1,,,,,,,,,,,,,,,,,,,,,,,32.65170048348455,None,32.65170048348455,None,37.072663145199385,None,space,1.2357675447508427,37.072663145199385,None,38.423955599686906,None,2,1,1.1163207438794416,38.423955599686906,None,39.592009402810845,None,,,,,,,,,,,,,,,,,,,,,,,,,,,001,2021_Jan_06_1300,searchDisc3,2020.2.2,59.949834347834084,
Practice arrays/exp1a_trial_13_colour3_distractors4_r.png,r,2,,,,,0,1,1,7,,,,,,,,,,,,,,,,,,,,,,,,,,,40.592954995851414,None,space,0.6352516445479068,40.592954995851414,None,41.32674991512067,None,2,1,0.5577168552038074,41.32674991512067,None,41.910921295619346,None,,,,,,,,,,,,,,,,,,,,,,,,,,,001,2021_Jan_06_1300,searchDisc3,2020.2.2,59.949834347834084,
Practice arrays/exp1a_trial_19_colour1_distractors4_l.png,l,1,,,,,0,2,2,9,,,,,,,,,,,,,,,,,,,,,,,,,,,42.911897288435966,None,space,0.5484302035538349,42.911897288435966,None,43.579103577797696,None,1,1,0.68919492752525,43.579103577797696,None,44.29651237766893,None,,,,,,,,,,,,,,,,,,,,,,,,,,,001,2021_Jan_06_1300,searchDisc3,2020.2.2,59.949834347834084,
Practice arrays/exp1a_trial_28_colour2_distractors31_l.png,l,1,,,,,0,3,3,13,,,,,,,,,,,,,,,,,,,,,,,,,,,45.2976406893647,None,space,0.44273082150129994,45.2976406893647,None,45.86463811626345,None,1,1,0.6598169037476964,45.86463811626345,None,46.54884236052021,None,,,,,,,,,,,,,,,,,,,,,,,,,,,001,2021_Jan_06_1300,searchDisc3,2020.2.2,59.949834347834084,
Practice arrays/exp1a_trial_35_colour3_distractors43_l.png,l,1,,,,,0,4,4,17,,,,,,,,,,,,,,,,,,,,,,,,,,,47.54985291308253,None,space,0.42276232846916173,47.54985291308253,None,48.083418586039215,None,1,1,0.7208593344753353,48.083418586039215,None,48.834403458790575,None,,,,,,,,,,,,,,,,,,,,,,,,,,,001,2021_Jan_06_1300,searchDisc3,2020.2.2,59.949834347834084,
Practice arrays/exp1a_trial_33_colour3_distractors19_l.png,l,1,,,,,0,5,5,16,,,,,,,,,,,,,,,,,,,,,,,,,,,49.83578232864215,None,space,0.4966581045964631,49.83578232864215,None,50.45252178943974,None,1,1,0.5519223378516926,50.45252178943974,None,51.03656389088974,None,,,,,,,,,,,,,,,,,,,,,,,,,,,001,2021_Jan_06_1300,searchDisc3,2020.2.2,59.949834347834084,
Practice arrays/exp1a_trial_8_colour2_distractors9_r.png,r,2,,,,,0,6,6,4,,,,,,,,,,,,,,,,,,,,,,,,,,,52.03759140332727,None,space,0.47863711723084634,52.03759140332727,None,52.6212229477992,None,2,1,0.8150711210764712,52.6212229477992,None,53.45561808665093,None,,,,,,,,,,,,,,,,,,,,,,,,,,,001,2021_Jan_06_1300,searchDisc3,2020.2.2,59.949834347834084,
Practice arrays/exp1a_trial_32_colour3_distractors9_l.png,l,1,,,,,0,7,7,15,,,,,,,,,,,,,,,,,,,,,,,,,,,54.45666959891173,None,space,0.4514251575108119,54.45666959891173,None,55.00706010803765,None,1,1,0.5651443205376836,55.00706010803765,None,55.590894531016374,None,,,,,,,,,,,,,,,,,,,,,,,,,,,001,2021_Jan_06_1300,searchDisc3,2020.2.2,59.949834347834084,
Practice arrays/exp1a_trial_21_colour1_distractors19_l.png,l,1,,,,,0,8,8,11,,,,,,,,,,,,,,,,,,,,,,,,,,,56.59207916229752,None,space,0.35631545751812155,56.59207916229752,None,57.05895540608822,None,1,1,0.8254905643893835,57.05895540608822,None,57.909996502425884,None,,,,,,,,,,,,,,,,,,,,,,,,,,,001,2021_Jan_06_1300,searchDisc3,2020.2.2,59.949834347834084,
Practice arrays/exp1a_trial_20_colour1_distractors9_l.png,l,1,,,,,0,9,9,10,,,,,,,,,,,,,,,,,,,,,,,,,,,58.91096321531086,None,space,0.4293392400632001,58.91096321531086,None,59.46127756499732,None,1,1,0.6231387736986562,59.46127756499732,None,60.11225357381386,None,,,,,,,,,,,,,,,,,,,,,,,,,,,001,2021_Jan_06_1300,searchDisc3,2020.2.2,59.949834347834084,
Practice arrays/exp1a_trial_7_colour2_distractors4_r.png,r,2,,,,,0,10,10,3,,,,,,,,,,,,,,,,,,,,,,,,,,,61.11318060699091,None,space,0.4110516946595908,61.11318060699091,None,61.64687843897468,None,2,1,0.6934636961070737,61.64687843897468,None,62.36446835751303,None,,,,,,,,,,,,,,,,,,,,,,,,,,,001,2021_Jan_06_1300,searchDisc3,2020.2.2,59.949834347834084,
Practice arrays/exp1a_trial_16_colour3_distractors31_r.png,r,2,,,,,0,11,11,8,,,,,,,,,,,,,,,,,,,,,,,,,,,63.365482110051744,None,space,0.40679956595522526,63.365482110051744,None,63.89897642353367,None,2,1,0.6577356390655495,63.89897642353367,None,64.58323474739245,None,,,,,,,,,,,,,,,,,,,,,,,,,,,001,2021_Jan_06_1300,searchDisc3,2020.2.2,59.949834347834084,
Practice arrays/exp1a_trial_0_colour1_distractors1_r.png,r,2,,,,,0,12,12,0,,,,,,,,,,,,,,,,,,,,,,,,,,,65.58427409974274,None,space,0.36391092161557026,65.58427409974274,None,66.05113722363012,None,2,1,0.6330939004287757,66.05113722363012,None,66.70191931387399,None,,,,,,,,,,,,,,,,,,,,,,,,,,,001,2021_Jan_06_1300,searchDisc3,2020.2.2,59.949834347834084,
Practice arrays/exp1a_trial_36_colour0_distractors0_r.png,r,2,,,,,0,13,13,18,,,,,,,,,,,,,,,,,,,,,,,,,,,67.7029378663774,None,space,0.5012212710114454,67.7029378663774,None,68.3034172868488,None,2,1,0.46884934926879396,68.3034172868488,None,68.7872169260836,None,,,,,,,,,,,,,,,,,,,,,,,,,,,001,2021_Jan_06_1300,searchDisc3,2020.2.2,59.949834347834084,
Practice arrays/exp1a_trial_10_colour2_distractors31_r.png,r,2,,,,,0,14,14,5,,,,,,,,,,,,,,,,,,,,,,,,,,,69.7884156372611,None,space,0.3920083148186677,69.7884156372611,None,70.28856683614822,None,2,1,1.1638759138731984,70.28856683614822,None,71.47333059628681,None,,,,,,,,,,,,,,,,,,,,,,,,,,,001,2021_Jan_06_1300,searchDisc3,2020.2.2,59.949834347834084,
Practice arrays/exp1a_trial_25_colour2_distractors4_l.png,l,1,,,,,0,15,15,12,,,,,,,,,,,,,,,,,,,,,,,,,,,72.47422626969478,None,space,0.39380542159210563,72.47422626969478,None,72.95791134977253,None,1,1,0.7501346390090475,72.95791134977253,None,73.72545162067627,None,,,,,,,,,,,,,,,,,,,,,,,,,,,001,2021_Jan_06_1300,searchDisc3,2020.2.2,59.949834347834084,
Practice arrays/exp1a_trial_37_colour0_distractors0_l.png,l,1,,,,,0,16,16,19,,,,,,,,,,,,,,,,,,,,,,,,,,,74.72644137339148,None,space,0.38160711137174985,74.72644137339148,None,75.19343697630393,None,1,1,0.546608136964096,75.19343697630393,None,75.76067120146013,None,,,,,,,,,,,,,,,,,,,,,,,,,,,001,2021_Jan_06_1300,searchDisc3,2020.2.2,59.949834347834084,
Practice arrays/exp1a_trial_12_colour3_distractors1_r.png,r,2,,,,,0,17,17,6,,,,,,,,,,,,,,,,,,,,,,,,,,,76.76176527340772,None,space,0.4423087446075442,76.76176527340772,None,77.29550022511853,None,2,1,0.5245161395612286,77.29550022511853,None,77.8460788928594,None,,,,,,,,,,,,,,,,,,,,,,,,,,,001,2021_Jan_06_1300,searchDisc3,2020.2.2,59.949834347834084,
Practice arrays/exp1a_trial_29_colour2_distractors43_l.png,l,1,,,,,0,18,18,14,,,,,,,,,,,,,,,,,,,,,,,,,,,78.84725008423948,None,space,0.3889920170188361,78.84725008423948,None,79.34750368237292,None,1,1,0.5528218512311014,79.34750368237292,None,79.93165586301302,None,,,,,,,,,,,,,,,,,,,,,,,,,,,001,2021_Jan_06_1300,searchDisc3,2020.2.2,59.949834347834084,
Practice arrays/exp1a_trial_5_colour1_distractors43_r.png,r,2,,,,,0,19,19,2,,,,,,,,,,,,,,,,,,,,,,,,,,,80.93267313552587,None,space,0.40775635891304773,80.93267313552587,None,81.46645128691853,None,2,1,0.6177941730347811,81.46645128691853,None,82.10046998054099,None,,,,,,,,,,,,,,,,,,,,,,,,,,,001,2021_Jan_06_1300,searchDisc3,2020.2.2,59.949834347834084,
,,,,,,,,,,,,,,,,,,,,,,,,,,,,,,,,,,,,,,,,,,,,,,,,,,,,83.20132843822284,None,space,0.6570092444119382,86.17120993989488,None,,,,,,,,,,,,,,,,,,,,,001,2021_Jan_06_1300,searchDisc3,2020.2.2,59.949834347834084,
Images/exp2a_trial_99_colour1_distractors43_l.png,l,1,2a,99,1,43,,,,,0,0,0,327,,,,,,,,,,,,,,,,,,,,,,,,,,,,,,,,,,,,,,,,,,,,86.98850472460526,None,space,0.5840062617139665,86.98850472460526,None,87.67233457161774,None,1,1,0.7721571969232173,87.67233457161774,None,88.5401102647885,None,None,88.5401102647885,None,,,001,2021_Jan_06_1300,searchDisc3,2020.2.2,59.949834347834084,
Images/exp2a_trial_94_colour1_distractors1_l.png,l,1,2a,94,1,1,,,,,0,1,1,322,,,,,,,,,,,,,,,,,,,,,,,,,,,,,,,,,,,,,,,,,,,,88.54005618518659,None,space,0.5421998494089166,88.54005618518659,None,89.19051731779268,None,1,1,0.6217256640991309,89.19051731779268,None,89.87465596253226,None,None,89.87465596253226,None,,,001,2021_Jan_06_1300,searchDisc3,2020.2.2,59.949834347834084,
Images/exp2c_trial_104_colour2_distractors31_l.png,l,1,2c,104,2,31,,,,,0,2,2,560,,,,,,,,,,,,,,,,,,,,,,,,,,,,,,,,,,,,,,,,,,,,89.89127440022048,None,space,0.5354789388750305,89.89127440022048,None,90.54188977169133,None,1,1,0.5663900713689145,90.54188977169133,None,91.17595358498157,None,None,91.17595358498157,None,,,001,2021_Jan_06_1300,searchDisc3,2020.2.2,59.949834347834084,
Images/exp2a_trial_54_colour3_distractors31_r.png,r,2,2a,54,3,31,,,,,0,3,3,282,,,,,,,,,,,,,,,,,,,,,,,,,,,,,,,,,,,,,,,,,,,,91.17599486467793,None,space,0.6584546737735764,91.17599486467793,None,91.94324553771298,None,2,1,0.6369828318063355,91.94324553771298,None,92.6441213392671,None,None,92.6441213392671,None,,,001,2021_Jan_06_1300,searchDisc3,2020.2.2,59.949834347834084,
Images/exp2c_trial_41_colour1_distractors19_r.png,r,2,2c,41,1,19,,,,,0,4,4,497,,,,,,,,,,,,,,,,,,,,,,,,,,,,,,,,,,,,,,,,,,,,92.64421029861228,None,space,0.5980557583097834,92.64421029861228,None,93.3445849838547,None,2,1,0.5796008541376523,93.3445849838547,None,93.97866255704373,None,None,93.97866255704373,None,,,001,2021_Jan_06_1300,searchDisc3,2020.2.2,59.949834347834084,
Images/exp2b_trial_33_colour3_distractors19_l.png,l,1,2b,33,3,19,,,,,0,5,5,375,,,,,,,,,,,,,,,,,,,,,,,,,,,,,,,,,,,,,,,,,,,,93.97899407460363,None,space,0.6480211505643183,93.97899407460363,None,94.7294058315731,None,1,1,0.6190508037859672,94.7294058315731,None,95.41351183655304,None,None,95.41351183655304,None,,,001,2021_Jan_06_1300,searchDisc3,2020.2.2,59.949834347834084,
Images/exp1b_trial_66_colour2_distractors31_l.png,l,1,1b,66,2,31,,,,,0,6,6,180,,,,,,,,,,,,,,,,,,,,,,,,,,,,,,,,,,,,,,,,,,,,95.43019875373716,None,space,0.6287595323299229,95.43019875373716,None,96.16424391116493,None,1,1,0.7440386838752602,96.16424391116493,None,97.01508820895074,None,None,97.01508820895074,None,,,001,2021_Jan_06_1300,searchDisc3,2020.2.2,59.949834347834084,
Images/exp1b_trial_80_colour1_distractors31_r.png,r,2,1b,80,1,31,,,,,0,7,7,194,,,,,,,,,,,,,,,,,,,,,,,,,,,,,,,,,,,,,,,,,,,,97.01503540933936,None,space,0.5711541963050877,97.01503540933936,None,97.69890717604335,None,2,1,1.073421219619604,97.69890717604335,None,98.85020750247291,None,None,98.85020750247291,None,,,001,2021_Jan_06_1300,searchDisc3,2020.2.2,59.949834347834084,
Images/exp2b_trial_7_colour2_distractors4_r.png,r,2,2b,7,2,4,,,,,0,8,8,349,,,,,,,,,,,,,,,,,,,,,,,,,,,,,,,,,,,,,,,,,,,,98.85016718276961,None,space,0.5606585935529438,98.85016718276961,None,99.53422518810271,None,2,1,0.5980231185499179,99.53422518810271,None,100.20158411634098,None,None,100.20158411634098,None,,,001,2021_Jan_06_1300,searchDisc3,2020.2.2,59.949834347834084,
Images/exp2b_trial_65_colour2_distractors19_l.png,l,1,2b,65,2,19,,,,,0,9,9,407,,,,,,,,,,,,,,,,,,,,,,,,,,,,,,,,,,,,,,,,,,,,100.20157643639754,None,space,0.6253448374620802,100.20157643639754,None,100.93544751510626,None,1,1,0.7247773856386175,100.93544751510626,None,101.71961038366756,None,None,101.71961038366756,None,,,001,2021_Jan_06_1300,searchDisc3,2020.2.2,59.949834347834084,
Images/exp2b_trial_12_colour3_distractors1_r.png,r,2,2b,12,3,1,,,,,0,10,10,354,,,,,,,,,,,,,,,,,,,,,,,,,,,,,,,,,,,,,,,,,,,,101.73628930091081,None,space,0.6584588337429977,101.73628930091081,None,102.50367917292147,None,2,1,0.6363815562317541,102.50367917292147,None,103.18772725832747,None,None,103.18772725832747,None,,,001,2021_Jan_06_1300,searchDisc3,2020.2.2,59.949834347834084,
Images/exp1b_trial_64_colour2_distractors9_l.png,l,1,1b,64,2,9,,,,,0,11,11,178,,,,,,,,,,,,,,,,,,,,,,,,,,,,,,,,,,,,,,,,,,,,103.18767413871842,None,space,0.6866029466023065,103.18767413871842,None,104.00522876151649,None,1,1,0.8709254299888016,104.00522876151649,None,104.93955756485646,None,None,104.93955756485646,None,,,001,2021_Jan_06_1300,searchDisc3,2020.2.2,59.949834347834084,
Images/exp1b_trial_106_colour3_distractors1_l.png,l,1,1b,106,3,1,,,,,0,12,12,220,,,,,,,,,,,,,,,,,,,,,,,,,,,,,,,,,,,,,,,,,,,,104.93971404370473,None,space,0.5913223678674058,104.93971404370473,None,105.64002248943461,None,1,1,1.5961741721580438,105.64002248943461,None,107.29180713229955,None,None,107.29180713229955,None,,,001,2021_Jan_06_1300,searchDisc3,2020.2.2,59.949834347834084,
Images/exp2a_trial_105_colour2_distractors43_l.png,l,1,2a,105,2,43,,,,,0,13,13,333,,,,,,,,,,,,,,,,,,,,,,,,,,,,,,,,,,,,,,,,,,,,107.30860252868547,None,space,0.6777930914427088,107.30860252868547,None,108.09242459975508,None,1,1,0.6637970344538644,108.09242459975508,None,108.80997771856399,None,None,108.80997771856399,None,,,001,2021_Jan_06_1300,searchDisc3,2020.2.2,59.949834347834084,
Images/exp1b_trial_56_colour1_distractors1_l.png,l,1,1b,56,1,1,,,,,0,14,14,170,,,,,,,,,,,,,,,,,,,,,,,,,,,,,,,,,,,,,,,,,,,,108.81009707768567,None,space,0.6645410289779647,108.81009707768567,None,109.57736599058649,None,1,1,0.6508006501073851,109.57736599058649,None,110.27819795246303,None,None,110.27819795246303,None,,,001,2021_Jan_06_1300,searchDisc3,2020.2.2,59.949834347834084,
Images/exp1b_trial_9_colour2_distractors19_r.png,r,2,1b,9,2,19,,,,,0,15,15,123,,,,,,,,,,,,,,,,,,,,,,,,,,,,,,,,,,,,,,,,,,,,110.27823283220641,None,space,0.6680293233041539,110.27823283220641,None,111.06203250344083,None,2,1,1.3582802430573793,111.06203250344083,None,112.48032414481425,None,None,112.48032414481425,None,,,001,2021_Jan_06_1300,searchDisc3,2020.2.2,59.949834347834084,
Images/exp2a_trial_43_colour1_distractors43_r.png,r,2,2a,43,1,43,,,,,0,16,16,271,,,,,,,,,,,,,,,,,,,,,,,,,,,,,,,,,,,,,,,,,,,,112.48041854411963,None,space,0.5626972985480734,112.48041854411963,None,113.14745523472948,None,2,1,0.6407789638669783,113.14745523472948,None,113.84840431574419,None,None,113.84840431574419,None,,,001,2021_Jan_06_1300,searchDisc3,2020.2.2,59.949834347834084,
Images/exp1b_trial_107_colour3_distractors4_l.png,l,1,1b,107,3,4,,,,,0,17,17,221,,,,,,,,,,,,,,,,,,,,,,,,,,,,,,,,,,,,,,,,,,,,113.86516643237519,None,space,0.5775122295099209,113.86516643237519,None,114.54883660056271,None,1,1,1.8715286255494448,114.54883660056271,None,116.48416507654504,None,None,116.48416507654504,None,,,001,2021_Jan_06_1300,searchDisc3,2020.2.2,59.949834347834084,
Images/exp2a_trial_70_colour3_distractors9_l.png,l,1,2a,70,3,9,,,,,0,18,18,298,,,,,,,,,,,,,,,,,,,,,,,,,,,,,,,,,,,,,,,,,,,,116.48412219686065,None,space,0.6140985202348475,116.48412219686065,None,117.20155947652233,None,1,1,0.5546381578631099,117.20155947652233,None,117.8188368533609,None,None,117.8188368533609,None,,,001,2021_Jan_06_1300,searchDisc3,2020.2.2,59.949834347834084,
Images/exp2c_trial_105_colour2_distractors43_l.png,l,1,2c,105,2,43,,,,,0,19,19,561,,,,,,,,,,,,,,,,,,,,,,,,,,,,,,,,,,,,,,,,,,,,117.81893925260715,None,space,0.6715720172298916,117.81893925260715,None,118.60277924354477,None,1,1,0.9534361827095381,118.60277924354477,None,119.62071639152744,None,None,119.62071639152744,None,,,001,2021_Jan_06_1300,searchDisc3,2020.2.2,59.949834347834084,
Images/exp2b_trial_106_colour3_distractors1_l.png,l,1,2b,106,3,1,,,,,0,20,20,448,,,,,,,,,,,,,,,,,,,,,,,,,,,,,,,,,,,,,,,,,,,,119.62082455073141,None,space,0.6218971828368467,119.62082455073141,None,120.35471962926363,None,1,1,0.6894566855987705,120.35471962926363,None,121.10546034381203,None,None,121.10546034381203,None,,,001,2021_Jan_06_1300,searchDisc3,2020.2.2,59.949834347834084,
Images/exp1b_trial_73_colour3_distractors43_l.png,l,1,1b,73,3,43,,,,,0,21,21,187,,,,,,,,,,,,,,,,,,,,,,,,,,,,,,,,,,,,,,,,,,,,121.12206630159221,None,space,0.6323166261495317,121.12206630159221,None,121.85601161975455,None,None,0,,121.85601161975455,None,126.81115210992046,None,None,126.81115210992046,None,,,001,2021_Jan_06_1300,searchDisc3,2020.2.2,59.949834347834084,
Images/exp1b_trial_38_colour1_distractors1_r.png,r,2,1b,38,1,1,,,,,0,22,22,152,,,,,,,,,,,,,,,,,,,,,,,,,,,,,,,,,,,,,,,,,,,,126.81124746921864,None,space,1.0630372960454224,126.81124746921864,None,127.97871727664096,None,2,1,0.9936144469977535,127.97871727664096,None,129.03003561893783,None,None,129.03003561893783,None,,,001,2021_Jan_06_1300,searchDisc3,2020.2.2,59.949834347834084,
Images/exp2a_trial_52_colour3_distractors9_r.png,r,2,2a,52,3,9,,,,,0,23,23,280,,,,,,,,,,,,,,,,,,,,,,,,,,,,,,,,,,,,,,,,,,,,129.0299530595455,None,space,0.6521014405334427,129.0299530595455,None,129.7971701328279,None,2,1,0.5910679697396972,129.7971701328279,None,130.4479570230363,None,None,130.4479570230363,None,,,001,2021_Jan_06_1300,searchDisc3,2020.2.2,59.949834347834084,
Images/exp1b_trial_99_colour1_distractors43_l.png,l,1,1b,99,1,43,,,,,0,24,24,213,,,,,,,,,,,,,,,,,,,,,,,,,,,,,,,,,,,,,,,,,,,,130.44807510216742,None,space,0.6182181699141438,130.44807510216742,None,131.1818668214603,None,1,1,0.7743453408181722,131.1818668214603,None,132.01616564102105,None,None,132.01616564102105,None,,,001,2021_Jan_06_1300,searchDisc3,2020.2.2,59.949834347834084,
Images/exp2a_trial_102_colour2_distractors9_l.png,l,1,2a,102,2,9,,,,,0,25,25,330,,,,,,,,,,,,,,,,,,,,,,,,,,,,,,,,,,,,,,,,,,,,132.0328848779675,None,space,0.7219550064110081,132.0328848779675,None,132.8668355400905,None,1,1,0.5773429507557921,132.8668355400905,None,133.50088783346573,None,None,133.50088783346573,None,,,001,2021_Jan_06_1300,searchDisc3,2020.2.2,59.949834347834084,
Images/exp1a_trial_59_colour1_distractors19_l.png,l,1,1a,59,1,19,,,,,0,26,26,59,,,,,,,,,,,,,,,,,,,,,,,,,,,,,,,,,,,,,,,,,,,,133.5009204732255,None,space,0.7901711443405475,133.5009204732255,None,134.4016338439751,None,1,1,0.5625392197114252,134.4016338439751,None,135.01905297977018,None,None,135.01905297977018,None,,,001,2021_Jan_06_1300,searchDisc3,2020.2.2,59.949834347834084,
Images/exp2b_trial_35_colour3_distractors43_l.png,l,1,2b,35,3,43,,,,,0,27,27,377,,,,,,,,,,,,,,,,,,,,,,,,,,,,,,,,,,,,,,,,,,,,135.0192728181521,None,space,0.6313326333918212,135.0192728181521,None,135.75297813808106,None,1,1,0.6272145837008338,135.75297813808106,None,136.43724510187607,None,None,136.43724510187607,None,,,001,2021_Jan_06_1300,searchDisc3,2020.2.2,59.949834347834084,
Images/exp2a_trial_24_colour2_distractors1_l.png,l,1,2a,24,2,1,,,,,0,28,28,252,,,,,,,,,,,,,,,,,,,,,,,,,,,,,,,,,,,,,,,,,,,,136.4538689795245,None,space,0.6444317369823693,136.4538689795245,None,137.20442921540098,None,1,1,0.599751105831956,137.20442921540098,None,137.85520426569664,None,None,137.85520426569664,None,,,001,2021_Jan_06_1300,searchDisc3,2020.2.2,59.949834347834084,
Images/exp2a_trial_12_colour3_distractors1_r.png,r,2,2a,12,3,1,,,,,0,29,29,240,,,,,,,,,,,,,,,,,,,,,,,,,,,,,,,,,,,,,,,,,,,,137.85535818456378,None,space,0.6833815303118627,137.85535818456378,None,138.63915913578876,None,2,1,0.6771070164923003,138.63915913578876,None,139.37346989126158,None,None,139.37346989126158,None,,,001,2021_Jan_06_1300,searchDisc3,2020.2.2,59.949834347834084,
Images/exp2c_trial_20_colour1_distractors9_l.png,l,1,2c,20,1,9,,,,,0,30,30,476,,,,,,,,,,,,,,,,,,,,,,,,,,,,,,,,,,,,,,,,,,,,139.3900633691337,None,space,0.6450394125097318,139.3900633691337,None,140.14067640462167,None,1,1,0.6155493895564632,140.14067640462167,None,140.8247862495733,None,None,140.8247862495733,None,,,001,2021_Jan_06_1300,searchDisc3,2020.2.2,59.949834347834084,
Images/exp2b_trial_19_colour1_distractors4_l.png,l,1,2b,19,1,4,,,,,0,31,31,361,,,,,,,,,,,,,,,,,,,,,,,,,,,,,,,,,,,,,,,,,,,,140.8249110486547,None,space,0.6253646773161563,140.8249110486547,None,141.5587389276816,None,1,1,0.58964750019436,141.5587389276816,None,142.20954277776522,None,None,142.20954277776522,None,,,001,2021_Jan_06_1300,searchDisc3,2020.2.2,59.949834347834084,
Images/exp1a_trial_94_colour1_distractors1_l.png,l,1,1a,94,1,1,,,,,0,32,32,94,,,,,,,,,,,,,,,,,,,,,,,,,,,,,,,,,,,,,,,,,,,,142.20960869728015,None,space,0.5205664086313391,142.20960869728015,None,142.84334259299862,None,1,1,0.632956301441709,142.84334259299862,None,143.52765947642624,None,None,143.52765947642624,None,,,001,2021_Jan_06_1300,searchDisc3,2020.2.2,59.949834347834084,
Images/exp2c_trial_42_colour1_distractors31_r.png,r,2,2c,42,1,31,,,,,0,33,33,498,,,,,,,,,,,,,,,,,,,,,,,,,,,,,,,,,,,,,,,,,,,,143.52770683607787,None,space,0.6664997345619668,143.52770683607787,None,144.2947434306884,None,2,1,0.6774199741889788,144.2947434306884,None,145.02904938619653,None,None,145.02904938619653,None,,,001,2021_Jan_06_1300,searchDisc3,2020.2.2,59.949834347834084,
Images/exp1b_trial_51_colour3_distractors4_r.png,r,2,1b,51,3,4,,,,,0,34,34,165,,,,,,,,,,,,,,,,,,,,,,,,,,,,,,,,,,,,,,,,,,,,145.0291613853724,None,space,0.7177799971391323,145.0291613853724,None,145.8629398887624,None,2,1,0.7812182502336782,145.8629398887624,None,146.69739710715734,None,None,146.69739710715734,None,,,001,2021_Jan_06_1300,searchDisc3,2020.2.2,59.949834347834084,
Images/exp2c_trial_3_colour1_distractors19_r.png,r,2,2c,3,1,19,,,,,0,35,35,459,,,,,,,,,,,,,,,,,,,,,,,,,,,,,,,,,,,,,,,,,,,,146.71393938540632,None,space,0.5842241801101409,146.71393938540632,None,147.4145499089127,None,2,1,0.5257372505739113,147.4145499089127,None,147.99855073066678,None,None,147.99855073066678,None,,,001,2021_Jan_06_1300,searchDisc3,2020.2.2,59.949834347834084,
Images/exp2c_trial_98_colour1_distractors31_l.png,l,1,2c,98,1,31,,,,,0,36,36,554,,,,,,,,,,,,,,,,,,,,,,,,,,,,,,,,,,,,,,,,,,,,147.99849633106714,None,space,0.6436307828773806,147.99849633106714,None,148.7658855630823,None,1,1,0.6462592435320857,148.7658855630823,None,149.46673320484373,None,None,149.46673320484373,None,,,001,2021_Jan_06_1300,searchDisc3,2020.2.2,59.949834347834084,
Images/exp1a_trial_97_colour1_distractors19_l.png,l,1,1a,97,1,19,,,,,0,37,37,97,,,,,,,,,,,,,,,,,,,,,,,,,,,,,,,,,,,,,,,,,,,,149.4666765652605,None,space,0.7197134229093081,149.4666765652605,None,150.30067298704694,None,1,1,0.7354544270554015,150.30067298704694,None,151.0849852945083,None,None,151.0849852945083,None,,,001,2021_Jan_06_1300,searchDisc3,2020.2.2,59.949834347834084,
Images/exp2c_trial_11_colour2_distractors43_r.png,r,2,2c,11,2,43,,,,,0,38,38,467,,,,,,,,,,,,,,,,,,,,,,,,,,,,,,,,,,,,,,,,,,,,151.08510913359692,None,space,0.6534825503683805,151.08510913359692,None,151.8521799679554,None,2,1,0.5521117764574228,151.8521799679554,None,152.45294130635202,None,None,152.45294130635202,None,,,001,2021_Jan_06_1300,searchDisc3,2020.2.2,59.949834347834084,
Images/exp2b_trial_13_colour3_distractors4_r.png,r,2,2b,13,3,4,,,,,0,39,39,355,,,,,,,,,,,,,,,,,,,,,,,,,,,,,,,,,,,,,,,,,,,,152.45298898600117,None,space,0.573046022381277,152.45298898600117,None,153.13677403334327,None,2,1,0.5393835501370177,153.13677403334327,None,153.75419028915948,None,None,153.75419028915948,None,,,001,2021_Jan_06_1300,searchDisc3,2020.2.2,59.949834347834084,
Images/exp1b_trial_35_colour3_distractors43_l.png,l,1,1b,35,3,43,,,,,0,40,40,149,,,,,,,,,,,,,,,,,,,,,,,,,,,,,,,,,,,,,,,,,,,,153.75418228921853,None,space,0.5447095909373729,153.75418228921853,None,154.40468630150895,None,1,1,1.095529216904879,154.40468630150895,None,155.5560986271142,None,None,155.5560986271142,None,,,001,2021_Jan_06_1300,searchDisc3,2020.2.2,59.949834347834084,
Images/exp1b_trial_87_colour2_distractors43_r.png,r,2,1b,87,2,43,,,,,0,41,41,201,,,,,,,,,,,,,,,,,,,,,,,,,,,,,,,,,,,,,,,,,,,,155.5560451875076,None,space,0.6782497280819371,155.5560451875076,None,156.35670425465673,None,2,1,0.9194965925050838,156.35670425465673,None,157.3577298471083,None,None,157.3577298471083,None,,,001,2021_Jan_06_1300,searchDisc3,2020.2.2,59.949834347834084,
Images/exp2a_trial_51_colour3_distractors4_r.png,r,2,2a,51,3,4,,,,,0,42,42,279,,,,,,,,,,,,,,,,,,,,,,,,,,,,,,,,,,,,,,,,,,,,157.35789816586953,None,space,0.5406491408223246,157.35789816586953,None,158.00821529953555,None,2,1,0.8120727431444266,158.00821529953555,None,158.87600923257204,None,None,158.87600923257204,None,,,001,2021_Jan_06_1300,searchDisc3,2020.2.2,59.949834347834084,
Images/exp2a_trial_113_colour0_distractors0_l.png,l,1,2a,113,0,0,,,,,0,43,43,341,,,,,,,,,,,,,,,,,,,,,,,,,,,,,,,,,,,,,,,,,,,,158.89248335132265,None,space,0.49422228252410605,158.89248335132265,None,159.49302741131828,None,1,1,0.6473286756609014,159.49302741131828,None,160.19398641226016,None,None,160.19398641226016,None,,,001,2021_Jan_06_1300,searchDisc3,2020.2.2,59.949834347834084,
Images/exp1b_trial_52_colour3_distractors9_r.png,r,2,1b,52,3,9,,,,,0,44,44,166,,,,,,,,,,,,,,,,,,,,,,,,,,,,,,,,,,,,,,,,,,,,160.2105462903794,None,space,0.5436814385045636,160.2105462903794,None,160.86102182287937,None,2,1,1.1272016237960543,160.86102182287937,None,162.04568734374115,None,None,162.04568734374115,None,,,001,2021_Jan_06_1300,searchDisc3,2020.2.2,59.949834347834084,
Images/exp2b_trial_91_colour3_distractors19_r.png,r,2,2b,91,3,19,,,,,0,45,45,433,,,,,,,,,,,,,,,,,,,,,,,,,,,,,,,,,,,,,,,,,,,,162.0457244634681,None,space,0.4290682020580334,162.0457244634681,None,162.59618057211105,None,2,1,0.6320030284578024,162.59618057211105,None,163.29702661388419,None,None,163.29702661388419,None,,,001,2021_Jan_06_1300,searchDisc3,2020.2.2,59.949834347834084,
Images/exp1a_trial_105_colour2_distractors43_l.png,l,1,1a,105,2,43,,,,,0,46,46,105,,,,,,,,,,,,,,,,,,,,,,,,,,,,,,,,,,,,,,,,,,,,163.29696581433177,None,space,0.5540112824769494,163.29696581433177,None,163.96407610439996,None,1,1,0.7360790624579749,163.96407610439996,None,164.74839481181434,None,None,164.74839481181434,None,,,001,2021_Jan_06_1300,searchDisc3,2020.2.2,59.949834347834084,
Images/exp2c_trial_71_colour3_distractors19_l.png,l,1,2c,71,3,19,,,,,0,47,47,527,,,,,,,,,,,,,,,,,,,,,,,,,,,,,,,,,,,,,,,,,,,,164.74842361160222,None,space,0.5898631786069473,164.74842361160222,None,165.44887893625105,None,1,1,0.6432938253574321,165.44887893625105,None,166.14966929843408,None,None,166.14966929843408,None,,,001,2021_Jan_06_1300,searchDisc3,2020.2.2,59.949834347834084,
Images/exp2c_trial_58_colour1_distractors9_l.png,l,1,2c,58,1,9,,,,,0,48,48,514,,,,,,,,,,,,,,,,,,,,,,,,,,,,,,,,,,,,,,,,,,,,166.14971729808076,None,space,0.5324568811174686,166.14971729808076,None,166.78361375260283,None,1,1,0.5327173592002055,166.78361375260283,None,167.3676926537822,None,None,167.3676926537822,None,,,001,2021_Jan_06_1300,searchDisc3,2020.2.2,59.949834347834084,
Images/exp2a_trial_93_colour3_distractors43_r.png,r,2,2a,93,3,43,,,,,0,49,49,321,,,,,,,,,,,,,,,,,,,,,,,,,,,,,,,,,,,,,,,,,,,,167.3841885323725,None,space,0.6742782373121372,167.3841885323725,None,168.18490903906945,None,2,1,0.6992662134007332,168.18490903906945,None,168.93579471255097,None,None,168.93579471255097,None,,,001,2021_Jan_06_1300,searchDisc3,2020.2.2,59.949834347834084,
Images/exp2b_trial_23_colour1_distractors43_l.png,l,1,2b,23,1,43,,,,,0,50,50,365,,,,,,,,,,,,,,,,,,,,,,,,,,,,,,,,,,,,,,,,,,,,168.9358244723319,None,space,0.46650408652976694,168.9358244723319,None,169.5028906987245,None,1,1,0.6695013124704019,169.5028906987245,None,170.23705681526198,None,None,170.23705681526198,None,,,001,2021_Jan_06_1300,searchDisc3,2020.2.2,59.949834347834084,
Images/exp2c_trial_7_colour2_distractors4_r.png,r,2,2c,7,2,4,,,,,0,51,51,463,,,,,,,,,,,,,,,,,,,,,,,,,,,,,,,,,,,,,,,,,,,,170.23730833341074,None,space,0.5729241032786376,170.23730833341074,None,170.9377204583775,None,2,1,0.6505683318171123,170.9377204583775,None,171.63853930035074,None,None,171.63853930035074,None,,,001,2021_Jan_06_1300,searchDisc3,2020.2.2,59.949834347834084,
Images/exp1b_trial_23_colour1_distractors43_l.png,l,1,1b,23,1,43,,,,,0,52,52,137,,,,,,,,,,,,,,,,,,,,,,,,,,,,,,,,,,,,,,,,,,,,171.6386794593193,None,space,0.5236531059131266,171.6386794593193,None,172.28894155339026,None,1,1,1.9631666710931768,172.28894155339026,None,174.3077906946606,None,None,174.3077906946606,None,,,001,2021_Jan_06_1300,searchDisc3,2020.2.2,59.949834347834084,
Images/exp1a_trial_37_colour0_distractors0_l.png,l,1,1a,37,0,0,,,,,0,53,53,37,,,,,,,,,,,,,,,,,,,,,,,,,,,,,,,,,,,,,,,,,,,,174.3078806139988,None,space,0.5264895650368544,174.3078806139988,None,174.94158666992212,None,1,1,0.670763703179091,174.94158666992212,None,175.6756958268787,None,None,175.6756958268787,None,,,001,2021_Jan_06_1300,searchDisc3,2020.2.2,59.949834347834084,
Images/exp1b_trial_83_colour2_distractors4_r.png,r,2,1b,83,2,4,,,,,0,54,54,197,,,,,,,,,,,,,,,,,,,,,,,,,,,,,,,,,,,,,,,,,,,,175.69237794409833,None,space,0.5746079308858043,175.69237794409833,None,176.3763287502204,None,2,1,0.9317563422732746,176.3763287502204,None,177.36085302412184,None,None,177.36085302412184,None,,,001,2021_Jan_06_1300,searchDisc3,2020.2.2,59.949834347834084,
Images/exp2a_trial_39_colour1_distractors4_r.png,r,2,2a,39,1,4,,,,,0,55,55,267,,,,,,,,,,,,,,,,,,,,,,,,,,,,,,,,,,,,,,,,,,,,177.36096246331635,None,space,0.4251808706687825,177.36096246331635,None,177.8945070164284,None,2,1,0.6456342881315322,177.8945070164284,None,178.59537513803897,None,None,178.59537513803897,None,,,001,2021_Jan_06_1300,searchDisc3,2020.2.2,59.949834347834084,
Images/exp1a_trial_7_colour2_distractors4_r.png,r,2,1a,7,2,4,,,,,0,56,56,7,,,,,,,,,,,,,,,,,,,,,,,,,,,,,,,,,,,,,,,,,,,,178.5954282576481,None,space,0.5267113234046974,178.5954282576481,None,179.24593226993852,None,2,1,0.58222931479213,179.24593226993852,None,179.87990488390014,None,None,179.87990488390014,None,,,001,2021_Jan_06_1300,searchDisc3,2020.2.2,59.949834347834084,
Images/exp2b_trial_52_colour3_distractors9_r.png,r,2,2b,52,3,9,,,,,0,57,57,394,,,,,,,,,,,,,,,,,,,,,,,,,,,,,,,,,,,,,,,,,,,,179.87988536404373,None,space,0.634302851530947,179.87988536404373,None,180.6304740797109,None,2,1,0.805694550087992,180.6304740797109,None,181.49823793296886,None,None,181.49823793296886,None,,,001,2021_Jan_06_1300,searchDisc3,2020.2.2,59.949834347834084,
Images/exp1b_trial_18_colour1_distractors1_l.png,l,1,1b,18,1,1,,,,,0,58,58,132,,,,,,,,,,,,,,,,,,,,,,,,,,,,,,,,,,,,,,,,,,,,181.51493605007067,None,space,0.4954773132869832,181.51493605007067,None,182.1153082713313,None,1,1,0.6168709798296277,182.1153082713313,None,182.78292031770647,None,None,182.78292031770647,None,,,001,2021_Jan_06_1300,searchDisc3,2020.2.2,59.949834347834084,
Images/exp2a_trial_25_colour2_distractors4_l.png,l,1,2a,25,2,4,,,,,0,59,59,253,,,,,,,,,,,,,,,,,,,,,,,,,,,,,,,,,,,,,,,,,,,,182.79943955612498,None,space,0.6026336446163896,182.79943955612498,None,183.5334322339388,None,1,1,0.8946538953473464,183.5334322339388,None,184.5011147117957,None,space,184.5011147117957,None,6.215195536160763,,001,2021_Jan_06_1300,searchDisc3,2020.2.2,59.949834347834084,
Images/exp1a_trial_34_colour3_distractors31_l.png,l,1,1a,34,3,31,,,,,0,60,60,34,,,,,,,,,,,,,,,,,,,,,,,,,,,,,,,,,,,,,,,,,,,,190.740662388725,None,space,1.0955260169284884,190.740662388725,None,191.94164170951717,None,1,1,0.8945255762916986,191.94164170951717,None,192.892780309137,None,None,192.892780309137,None,,,001,2021_Jan_06_1300,searchDisc3,2020.2.2,59.949834347834084,
Images/exp1a_trial_102_colour2_distractors9_l.png,l,1,1a,102,2,9,,,,,0,61,61,102,,,,,,,,,,,,,,,,,,,,,,,,,,,,,,,,,,,,,,,,,,,,192.89283534873198,None,space,0.7017253953010822,192.89283534873198,None,193.71002837419132,None,1,1,0.87821657632594,193.71002837419132,None,194.64458565584968,None,None,194.64458565584968,None,,,001,2021_Jan_06_1300,searchDisc3,2020.2.2,59.949834347834084,
Images/exp2b_trial_32_colour3_distractors9_l.png,l,1,2b,32,3,9,,,,,0,62,62,374,,,,,,,,,,,,,,,,,,,,,,,,,,,,,,,,,,,,,,,,,,,,194.64455941604274,None,space,0.42239017120846256,194.64455941604274,None,195.1781247690019,None,1,1,0.7780051538820771,195.1781247690019,None,196.0125723874672,None,None,196.0125723874672,None,,,001,2021_Jan_06_1300,searchDisc3,2020.2.2,59.949834347834084,
Images/exp1a_trial_29_colour2_distractors43_l.png,l,1,1a,29,2,43,,,,,0,63,63,29,,,,,,,,,,,,,,,,,,,,,,,,,,,,,,,,,,,,,,,,,,,,196.02914730547582,None,space,0.5573958975662663,196.02914730547582,None,196.69629983523328,None,1,1,0.7878098817193404,196.69629983523328,None,197.54723085238092,None,None,197.54723085238092,None,,,001,2021_Jan_06_1300,searchDisc3,2020.2.2,59.949834347834084,
Images/exp2c_trial_46_colour2_distractors9_r.png,r,2,2c,46,2,9,,,,,0,64,64,502,,,,,,,,,,,,,,,,,,,,,,,,,,,,,,,,,,,,,,,,,,,,197.5639680091956,None,space,0.5101380053843059,197.5639680091956,None,198.18111194701623,None,2,1,0.7669693951052068,198.18111194701623,None,198.9988358485683,None,None,198.9988358485683,None,,,001,2021_Jan_06_1300,searchDisc3,2020.2.2,59.949834347834084,
Images/exp1a_trial_63_colour2_distractors4_l.png,l,1,1a,63,2,4,,,,,0,65,65,63,,,,,,,,,,,,,,,,,,,,,,,,,,,,,,,,,,,,,,,,,,,,198.99883744855651,None,space,0.5551651939840667,198.99883744855651,None,199.6659499786083,None,1,1,0.706218162234336,199.6659499786083,None,200.43353504918204,None,None,200.43353504918204,None,,,001,2021_Jan_06_1300,searchDisc3,2020.2.2,59.949834347834084,
Images/exp2a_trial_53_colour3_distractors19_r.png,r,2,2a,53,3,19,,,,,0,66,66,281,,,,,,,,,,,,,,,,,,,,,,,,,,,,,,,,,,,,,,,,,,,,200.4335078493823,None,space,0.5127271063283843,200.4335078493823,None,201.0672814248087,None,2,1,0.6328705420728511,201.0672814248087,None,201.75152502877594,None,None,201.75152502877594,None,,,001,2021_Jan_06_1300,searchDisc3,2020.2.2,59.949834347834084,
Images/exp2b_trial_69_colour3_distractors4_l.png,l,1,2b,69,3,4,,,,,0,67,67,411,,,,,,,,,,,,,,,,,,,,,,,,,,,,,,,,,,,,,,,,,,,,201.75137334989222,None,space,0.5473767713069719,201.75137334989222,None,202.40202328110877,None,1,1,0.6740497589937604,202.40202328110877,None,203.1360684385364,None,None,203.1360684385364,None,,,001,2021_Jan_06_1300,searchDisc3,2020.2.2,59.949834347834084,
Images/exp1b_trial_89_colour3_distractors4_r.png,r,2,1b,89,3,4,,,,,0,68,68,203,,,,,,,,,,,,,,,,,,,,,,,,,,,,,,,,,,,,,,,,,,,,203.1361004383009,None,space,0.4980459343819348,203.1361004383009,None,203.7533634152453,None,2,1,1.0427152056161049,203.7533634152453,None,204.87119870797764,None,None,204.87119870797764,None,,,001,2021_Jan_06_1300,searchDisc3,2020.2.2,59.949834347834084,
Images/exp1a_trial_27_colour2_distractors19_l.png,l,1,1a,27,2,19,,,,,0,69,69,27,,,,,,,,,,,,,,,,,,,,,,,,,,,,,,,,,,,,,,,,,,,,204.8711500683355,None,space,0.41900235614275516,204.8711500683355,None,205.40488598003935,None,1,1,0.7754634125892608,205.40488598003935,None,206.25584835695608,None,None,206.25584835695608,None,,,001,2021_Jan_06_1300,searchDisc3,2020.2.2,59.949834347834084,
Images/exp2a_trial_63_colour2_distractors4_l.png,l,1,2a,63,2,4,,,,,0,70,70,291,,,,,,,,,,,,,,,,,,,,,,,,,,,,,,,,,,,,,,,,,,,,206.255747557698,None,space,0.53866355543596,206.255747557698,None,206.90636100918323,None,1,1,0.609738872321941,206.90636100918323,None,207.57384601649355,None,None,207.57384601649355,None,,,001,2021_Jan_06_1300,searchDisc3,2020.2.2,59.949834347834084,
Images/exp1a_trial_92_colour3_distractors31_r.png,r,2,1a,92,3,31,,,,,0,71,71,92,,,,,,,,,,,,,,,,,,,,,,,,,,,,,,,,,,,,,,,,,,,,207.57393977580318,None,space,0.46004397407614306,207.57393977580318,None,208.14088696307203,None,2,1,0.6791870011834362,208.14088696307203,None,208.89176239662888,None,None,208.89176239662888,None,,,001,2021_Jan_06_1300,searchDisc3,2020.2.2,59.949834347834084,
Images/exp2b_trial_60_colour1_distractors31_l.png,l,1,2b,60,1,31,,,,,0,72,72,402,,,,,,,,,,,,,,,,,,,,,,,,,,,,,,,,,,,,,,,,,,,,208.89168239721744,None,space,0.48709625497122033,208.89168239721744,None,209.50901673363683,None,1,1,0.6470435577593889,209.50901673363683,None,210.2097718960791,None,None,210.2097718960791,None,,,001,2021_Jan_06_1300,searchDisc3,2020.2.2,59.949834347834084,
Images/exp2b_trial_54_colour3_distractors31_r.png,r,2,2b,54,3,31,,,,,0,73,73,396,,,,,,,,,,,,,,,,,,,,,,,,,,,,,,,,,,,,,,,,,,,,210.20972389643225,None,space,0.4883896854521481,210.20972389643225,None,210.81018635702844,None,2,1,0.8979818708535277,210.81018635702844,None,211.76128911691202,None,None,211.76128911691202,None,,,001,2021_Jan_06_1300,searchDisc3,2020.2.2,59.949834347834084,
Images/exp2c_trial_103_colour2_distractors19_l.png,l,1,2c,103,2,19,,,,,0,74,74,559,,,,,,,,,,,,,,,,,,,,,,,,,,,,,,,,,,,,,,,,,,,,211.77794659431333,None,space,0.37628267055970355,211.77794659431333,None,212.26156799485966,None,1,1,0.6865085472968531,212.26156799485966,None,213.01242294856738,None,None,213.01242294856738,None,,,001,2021_Jan_06_1300,searchDisc3,2020.2.2,59.949834347834084,
Images/exp2c_trial_70_colour3_distractors9_l.png,l,1,2c,70,3,9,,,,,0,75,75,526,,,,,,,,,,,,,,,,,,,,,,,,,,,,,,,,,,,,,,,,,,,,213.02926346462095,None,space,0.4854226672891855,213.02926346462095,None,213.62960464611,None,1,1,0.7744586199846708,213.62960464611,None,214.46386186597655,None,None,214.46386186597655,None,,,001,2021_Jan_06_1300,searchDisc3,2020.2.2,59.949834347834084,
Images/exp1b_trial_15_colour3_distractors19_r.png,r,2,1b,15,3,19,,,,,0,76,76,129,,,,,,,,,,,,,,,,,,,,,,,,,,,,,,,,,,,,,,,,,,,,214.48057758294885,None,space,0.5543671198583979,214.48057758294885,None,215.14778323231553,None,2,1,0.6163458636942778,215.14778323231553,None,215.8152909594588,None,None,215.8152909594588,None,,,001,2021_Jan_06_1300,searchDisc3,2020.2.2,59.949834347834084,
Images/exp1a_trial_20_colour1_distractors9_l.png,l,1,1a,20,1,9,,,,,0,77,77,20,,,,,,,,,,,,,,,,,,,,,,,,,,,,,,,,,,,,,,,,,,,,215.83186459747662,None,space,0.5065709916375454,215.83186459747662,None,216.44904469503103,None,1,1,0.7070783159038001,216.44904469503103,None,217.21668032523266,None,None,217.21668032523266,None,,,001,2021_Jan_06_1300,searchDisc3,2020.2.2,59.949834347834084,
Images/exp1b_trial_110_colour3_distractors31_l.png,l,1,1b,110,3,31,,,,,0,78,78,224,,,,,,,,,,,,,,,,,,,,,,,,,,,,,,,,,,,,,,,,,,,,217.21686272389047,None,space,0.609542713765677,217.21686272389047,None,217.93383504697408,None,1,1,0.8863960361250065,217.93383504697408,None,218.86838272870327,None,None,218.86838272870327,None,,,001,2021_Jan_06_1300,searchDisc3,2020.2.2,59.949834347834084,
Images/exp1a_trial_79_colour1_distractors19_r.png,r,2,1a,79,1,19,,,,,0,79,79,79,,,,,,,,,,,,,,,,,,,,,,,,,,,,,,,,,,,,,,,,,,,,218.8683536089177,None,space,0.5737893769100992,218.8683536089177,None,219.5687564539528,None,2,1,0.7153841747722254,219.5687564539528,None,220.33633992453824,None,None,220.33633992453824,None,,,001,2021_Jan_06_1300,searchDisc3,2020.2.2,59.949834347834084,
Images/exp1b_trial_104_colour2_distractors31_l.png,l,1,1b,104,2,31,,,,,0,80,80,218,,,,,,,,,,,,,,,,,,,,,,,,,,,,,,,,,,,,,,,,,,,,220.3364797635088,None,space,0.5945847438565579,220.3364797635088,None,221.03687300861452,None,1,1,3.879311608266562,221.03687300861452,None,224.9744542680165,None,None,224.9744542680165,None,,,001,2021_Jan_06_1300,searchDisc3,2020.2.2,59.949834347834084,
Images/exp2a_trial_55_colour3_distractors43_r.png,r,2,2a,55,3,43,,,,,0,81,81,283,,,,,,,,,,,,,,,,,,,,,,,,,,,,,,,,,,,,,,,,,,,,224.9743329889095,None,space,0.5156291649691411,224.9743329889095,None,225.6080915244463,None,2,1,0.7240266711633012,225.6080915244463,None,226.3922847927839,None,None,226.3922847927839,None,,,001,2021_Jan_06_1300,searchDisc3,2020.2.2,59.949834347834084,
Images/exp1a_trial_101_colour2_distractors4_l.png,l,1,1a,101,2,4,,,,,0,82,82,101,,,,,,,,,,,,,,,,,,,,,,,,,,,,,,,,,,,,,,,,,,,,226.3924851113095,None,space,0.4738800322429597,226.3924851113095,None,226.97608337602628,None,1,1,0.8199811649387811,226.97608337602628,None,227.86056486624247,None,None,227.86056486624247,None,,,001,2021_Jan_06_1300,searchDisc3,2020.2.2,59.949834347834084,
Images/exp1b_trial_57_colour1_distractors4_l.png,l,1,1b,57,1,4,,,,,0,83,83,171,,,,,,,,,,,,,,,,,,,,,,,,,,,,,,,,,,,,,,,,,,,,227.86066566550085,None,space,0.5574915768620485,227.86066566550085,None,228.5275685970953,None,1,1,1.356514496053478,228.5275685970953,None,229.94595399777845,None,None,229.94595399777845,None,,,001,2021_Jan_06_1300,searchDisc3,2020.2.2,59.949834347834084,
Images/exp2b_trial_50_colour3_distractors1_r.png,r,2,2b,50,3,1,,,,,0,84,84,392,,,,,,,,,,,,,,,,,,,,,,,,,,,,,,,,,,,,,,,,,,,,229.96272475434603,None,space,0.4720051660419813,229.96272475434603,None,230.54628397935016,None,2,1,0.6819169010918813,230.54628397935016,None,231.28055505511483,None,None,231.28055505511483,None,,,001,2021_Jan_06_1300,searchDisc3,2020.2.2,59.949834347834084,
Images/exp2c_trial_110_colour3_distractors31_l.png,l,1,2c,110,3,31,,,,,0,85,85,566,,,,,,,,,,,,,,,,,,,,,,,,,,,,,,,,,,,,,,,,,,,,231.2806052947451,None,space,0.6015517325795372,231.2806052947451,None,231.99771969678318,None,1,1,1.174320317002639,231.99771969678318,None,233.23233812999123,None,None,233.23233812999123,None,,,001,2021_Jan_06_1300,searchDisc3,2020.2.2,59.949834347834084,
Images/exp2a_trial_22_colour1_distractors31_l.png,l,1,2a,22,1,31,,,,,0,86,86,250,,,,,,,,,,,,,,,,,,,,,,,,,,,,,,,,,,,,,,,,,,,,233.24920424585684,None,space,0.5141475758737215,233.24920424585684,None,233.866188184855,None,1,1,0.7461285884937752,233.866188184855,None,234.66725972896856,None,None,234.66725972896856,None,,,001,2021_Jan_06_1300,searchDisc3,2020.2.2,59.949834347834084,
Images/exp1a_trial_52_colour3_distractors9_r.png,r,2,1a,52,3,9,,,,,0,87,87,52,,,,,,,,,,,,,,,,,,,,,,,,,,,,,,,,,,,,,,,,,,,,234.66728820875892,None,space,0.49543891356961467,234.66728820875892,None,235.26767642990148,None,2,1,0.6965430334435041,235.26767642990148,None,236.01853682356895,None,None,236.01853682356895,None,,,001,2021_Jan_06_1300,searchDisc3,2020.2.2,59.949834347834084,
Images/exp1b_trial_69_colour3_distractors4_l.png,l,1,1b,69,3,4,,,,,0,88,88,183,,,,,,,,,,,,,,,,,,,,,,,,,,,,,,,,,,,,,,,,,,,,236.0187003423655,None,space,0.5118387928664561,236.0187003423655,None,236.61890616485084,None,1,1,0.7291799132358392,236.61890616485084,None,237.40333271147128,None,None,237.40333271147128,None,,,001,2021_Jan_06_1300,searchDisc3,2020.2.2,59.949834347834084,
Images/exp2a_trial_45_colour2_distractors4_r.png,r,2,2a,45,2,4,,,,,0,89,89,273,,,,,,,,,,,,,,,,,,,,,,,,,,,,,,,,,,,,,,,,,,,,237.42004554846494,None,space,0.43859613193262703,237.42004554846494,None,237.98701257558764,None,2,1,0.6010851760129299,237.98701257558764,None,238.65452222271628,None,None,238.65452222271628,None,,,001,2021_Jan_06_1300,searchDisc3,2020.2.2,59.949834347834084,
Images/exp1a_trial_57_colour1_distractors4_l.png,l,1,1a,57,1,4,,,,,0,90,90,57,,,,,,,,,,,,,,,,,,,,,,,,,,,,,,,,,,,,,,,,,,,,238.6546249419605,None,space,0.46752039905004494,238.6546249419605,None,239.23815216720027,None,1,1,0.8059809479800606,239.23815216720027,None,240.12245573872573,None,None,240.12245573872573,None,,,001,2021_Jan_06_1300,searchDisc3,2020.2.2,59.949834347834084,
Images/exp2c_trial_87_colour2_distractors43_r.png,r,2,2c,87,2,43,,,,,0,91,91,543,,,,,,,,,,,,,,,,,,,,,,,,,,,,,,,,,,,,,,,,,,,,240.12250885833487,None,space,0.5116685541197512,240.12250885833487,None,240.73962751634167,None,2,1,0.712465476253783,240.73962751634167,None,241.50730570623008,None,None,241.50730570623008,None,,,001,2021_Jan_06_1300,searchDisc3,2020.2.2,59.949834347834084,
Images/exp1a_trial_46_colour2_distractors9_r.png,r,2,1a,46,2,9,,,,,0,92,92,46,,,,,,,,,,,,,,,,,,,,,,,,,,,,,,,,,,,,,,,,,,,,241.50742602534433,None,space,0.5352312606978558,241.50742602534433,None,242.1578305183673,None,2,1,0.5823589138385614,242.1578305183673,None,242.79179001242537,None,None,242.79179001242537,None,,,001,2021_Jan_06_1300,searchDisc3,2020.2.2,59.949834347834084,
Images/exp2b_trial_53_colour3_distractors19_r.png,r,2,2b,53,3,19,,,,,0,93,93,395,,,,,,,,,,,,,,,,,,,,,,,,,,,,,,,,,,,,,,,,,,,,242.79178617245384,None,space,0.5149805297432977,242.79178617245384,None,243.40890291047458,None,2,1,1.1631872789416775,243.40890291047458,None,244.6269304257922,None,None,244.6269304257922,None,,,001,2021_Jan_06_1300,searchDisc3,2020.2.2,59.949834347834084,
Images/exp2b_trial_98_colour1_distractors31_l.png,l,1,2b,98,1,31,,,,,0,94,94,440,,,,,,,,,,,,,,,,,,,,,,,,,,,,,,,,,,,,,,,,,,,,244.62713810426362,None,space,0.3597074325534777,244.62713810426362,None,245.09394042859844,None,1,1,0.6622072861546258,245.09394042859844,None,245.81156586687538,None,None,245.81156586687538,None,,,001,2021_Jan_06_1300,searchDisc3,2020.2.2,59.949834347834084,
Images/exp2a_trial_98_colour1_distractors31_l.png,l,1,2a,98,1,31,,,,,0,95,95,326,,,,,,,,,,,,,,,,,,,,,,,,,,,,,,,,,,,,,,,,,,,,245.82830462367815,None,space,0.4218080954924517,245.82830462367815,None,246.3618072570987,None,1,1,0.5862897649071783,246.3618072570987,None,247.01268150666428,None,None,247.01268150666428,None,,,001,2021_Jan_06_1300,searchDisc3,2020.2.2,59.949834347834084,
Images/exp2a_trial_10_colour2_distractors31_r.png,r,2,2a,10,2,31,,,,,0,96,96,238,,,,,,,,,,,,,,,,,,,,,,,,,,,,,,,,,,,,,,,,,,,,247.0295357826169,None,space,0.4685293516240563,247.0295357826169,None,247.6297649649298,None,2,1,0.6224594186987815,247.6297649649298,None,248.31394104939417,None,None,248.31394104939417,None,,,001,2021_Jan_06_1300,searchDisc3,2020.2.2,59.949834347834084,
Images/exp2b_trial_80_colour1_distractors31_r.png,r,2,2b,80,1,31,,,,,0,97,97,422,,,,,,,,,,,,,,,,,,,,,,,,,,,,,,,,,,,,,,,,,,,,248.31400408893,None,space,0.3689105648181794,248.31400408893,None,248.81443720574202,None,2,1,0.6776295726467652,248.81443720574202,None,249.54852876282857,None,None,249.54852876282857,None,,,001,2021_Jan_06_1300,searchDisc3,2020.2.2,59.949834347834084,
Images/exp1a_trial_10_colour2_distractors31_r.png,r,2,1a,10,2,31,,,,,0,98,98,10,,,,,,,,,,,,,,,,,,,,,,,,,,,,,,,,,,,,,,,,,,,,249.54857228250808,None,space,0.3579004058533428,249.54857228250808,None,250.01539892666392,None,2,1,0.6766369399524592,250.01539892666392,None,250.73303428486753,None,None,250.73303428486753,None,,,001,2021_Jan_06_1300,searchDisc3,2020.2.2,59.949834347834084,
Images/exp2c_trial_108_colour3_distractors9_l.png,l,1,2c,108,3,9,,,,,0,99,99,564,,,,,,,,,,,,,,,,,,,,,,,,,,,,,,,,,,,,,,,,,,,,250.74969720222884,None,space,0.42846404650435943,250.74969720222884,None,251.30012739106246,None,1,1,0.9839370782233345,251.30012739106246,None,252.3345703375622,None,None,252.3345703375622,None,,,001,2021_Jan_06_1300,searchDisc3,2020.2.2,59.949834347834084,
Images/exp2b_trial_39_colour1_distractors4_r.png,r,2,2b,39,1,4,,,,,0,100,100,381,,,,,,,,,,,,,,,,,,,,,,,,,,,,,,,,,,,,,,,,,,,,252.33454057778158,None,space,0.3801952817630081,252.33454057778158,None,252.83496089468804,None,2,1,0.6650386253154466,252.83496089468804,None,253.55236425459915,None,None,253.55236425459915,None,,,001,2021_Jan_06_1300,searchDisc3,2020.2.2,59.949834347834084,
Images/exp2c_trial_35_colour3_distractors43_l.png,l,1,2c,35,3,43,,,,,0,101,101,491,,,,,,,,,,,,,,,,,,,,,,,,,,,,,,,,,,,,,,,,,,,,253.5692399703937,None,space,0.38527684436257914,253.5692399703937,None,254.0693697294389,None,1,1,0.6947689665003054,254.0693697294389,None,254.82047364131412,None,None,254.82047364131412,None,,,001,2021_Jan_06_1300,searchDisc3,2020.2.2,59.949834347834084,
Images/exp2c_trial_17_colour3_distractors43_r.png,r,2,2c,17,3,43,,,,,0,102,102,473,,,,,,,,,,,,,,,,,,,,,,,,,,,,,,,,,,,,,,,,,,,,254.83707575912263,None,space,0.3815271119606223,254.83707575912263,None,255.32081779878104,None,2,1,0.6591801084341569,255.32081779878104,None,256.0381405192857,None,None,256.0381405192857,None,,,001,2021_Jan_06_1300,searchDisc3,2020.2.2,59.949834347834084,
Images/exp2c_trial_95_colour1_distractors4_l.png,l,1,2c,95,1,4,,,,,0,103,103,551,,,,,,,,,,,,,,,,,,,,,,,,,,,,,,,,,,,,,,,,,,,,256.0383805175195,None,space,0.3317146785798286,256.0383805175195,None,256.4718000475516,None,1,1,0.6443117378653369,256.4718000475516,None,257.172700808922,None,None,257.172700808922,None,,,001,2021_Jan_06_1300,searchDisc3,2020.2.2,59.949834347834084,
Images/exp2c_trial_68_colour3_distractors1_l.png,l,1,2c,68,3,1,,,,,0,104,104,524,,,,,,,,,,,,,,,,,,,,,,,,,,,,,,,,,,,,,,,,,,,,257.189503565254,None,space,0.4286675650068901,257.189503565254,None,257.72298795880874,None,1,1,0.6491440223003337,257.72298795880874,None,258.4239344798421,None,None,258.4239344798421,None,,,001,2021_Jan_06_1300,searchDisc3,2020.2.2,59.949834347834084,
Images/exp2b_trial_10_colour2_distractors31_r.png,r,2,2b,10,2,31,,,,,0,105,105,352,,,,,,,,,,,,,,,,,,,,,,,,,,,,,,,,,,,,,,,,,,,,258.42404999899213,None,space,0.3942482983325135,258.42404999899213,None,258.92414391830084,None,2,1,0.6400461692601311,258.92414391830084,None,259.6250417996926,None,None,259.6250417996926,None,,,001,2021_Jan_06_1300,searchDisc3,2020.2.2,59.949834347834084,
Images/exp1b_trial_31_colour3_distractors4_l.png,l,1,1b,31,3,4,,,,,0,106,106,145,,,,,,,,,,,,,,,,,,,,,,,,,,,,,,,,,,,,,,,,,,,,259.6250603595556,None,space,0.3215099536864727,259.6250603595556,None,260.0586347684482,None,1,1,1.0894819014133645,260.0586347684482,None,261.20987237533933,None,None,261.20987237533933,None,,,001,2021_Jan_06_1300,searchDisc3,2020.2.2,59.949834347834084,
Images/exp1a_trial_11_colour2_distractors43_r.png,r,2,1a,11,2,43,,,,,0,107,107,11,,,,,,,,,,,,,,,,,,,,,,,,,,,,,,,,,,,,,,,,,,,,261.20990821507553,None,space,0.29703557381844803,261.20990821507553,None,261.6268814661523,None,2,1,0.6893062867056869,261.6268814661523,None,262.3776884202135,None,None,262.3776884202135,None,,,001,2021_Jan_06_1300,searchDisc3,2020.2.2,59.949834347834084,
Images/exp2b_trial_14_colour3_distractors9_r.png,r,2,2b,14,3,9,,,,,0,108,108,356,,,,,,,,,,,,,,,,,,,,,,,,,,,,,,,,,,,,,,,,,,,,262.39451165639434,None,space,0.29576838314460474,262.39451165639434,None,262.7946856711135,None,2,1,0.6413523996461663,262.7946856711135,None,263.4955301128985,None,None,263.4955301128985,None,,,001,2021_Jan_06_1300,searchDisc3,2020.2.2,59.949834347834084,
Images/exp1b_trial_27_colour2_distractors19_l.png,l,1,1b,27,2,19,,,,,0,109,109,141,,,,,,,,,,,,,,,,,,,,,,,,,,,,,,,,,,,,,,,,,,,,263.4955752325666,None,space,0.33059244683954603,263.4955752325666,None,263.92936499987377,None,1,1,0.7946325515044919,263.92936499987377,None,264.78007745862993,None,None,264.78007745862993,None,,,001,2021_Jan_06_1300,searchDisc3,2020.2.2,59.949834347834084,
Images/exp1a_trial_44_colour2_distractors1_r.png,r,2,1a,44,2,1,,,,,0,110,110,44,,,,,,,,,,,,,,,,,,,,,,,,,,,,,,,,,,,,,,,,,,,,264.78025153734893,None,space,0.3021577761187473,264.78025153734893,None,265.19702318990926,None,2,1,0.8070449401493534,265.19702318990926,None,266.0646516841635,None,None,266.0646516841635,None,,,001,2021_Jan_06_1300,searchDisc3,2020.2.2,59.949834347834084,
Images/exp2b_trial_43_colour1_distractors43_r.png,r,2,2b,43,1,43,,,,,0,111,111,385,,,,,,,,,,,,,,,,,,,,,,,,,,,,,,,,,,,,,,,,,,,,266.0815520397771,None,space,0.3132133747494663,266.0815520397771,None,266.49830353248603,None,2,1,0.7057848854228723,266.49830353248603,None,267.26590204296105,None,None,267.26590204296105,None,,,001,2021_Jan_06_1300,searchDisc3,2020.2.2,59.949834347834084,
Images/exp2b_trial_102_colour2_distractors9_l.png,l,1,2b,102,2,9,,,,,0,112,112,444,,,,,,,,,,,,,,,,,,,,,,,,,,,,,,,,,,,,,,,,,,,,267.28255056042804,None,space,0.31145818766799493,267.28255056042804,None,267.7163547276293,None,1,1,0.7917394527976285,267.7163547276293,None,268.567257584984,None,None,268.567257584984,None,,,001,2021_Jan_06_1300,searchDisc3,2020.2.2,59.949834347834084,
Images/exp1a_trial_108_colour3_distractors9_l.png,l,1,1a,108,3,9,,,,,0,113,113,108,,,,,,,,,,,,,,,,,,,,,,,,,,,,,,,,,,,,,,,,,,,,268.56726846490415,None,space,0.2912420164584546,268.56726846490415,None,268.96738552004285,None,1,1,0.7806656143011423,268.96738552004285,None,269.8018520183692,None,None,269.8018520183692,None,,,001,2021_Jan_06_1300,searchDisc3,2020.2.2,59.949834347834084,
Images/exp2b_trial_11_colour2_distractors43_r.png,r,2,2b,11,2,43,,,,,0,114,114,353,,,,,,,,,,,,,,,,,,,,,,,,,,,,,,,,,,,,,,,,,,,,269.81856805533903,None,space,0.2874897240753853,269.81856805533903,None,270.21861631098386,None,2,1,0.7055576870952791,270.21861631098386,None,270.9861546619018,None,None,270.9861546619018,None,,,001,2021_Jan_06_1300,searchDisc3,2020.2.2,59.949834347834084,
Images/exp2c_trial_32_colour3_distractors9_l.png,l,1,2c,32,3,9,,,,,0,115,115,488,,,,,,,,,,,,,,,,,,,,,,,,,,,,,,,,,,,,,,,,,,,,271.0028857387608,None,space,0.2472864999713238,271.0028857387608,None,271.3699521571523,None,1,1,0.6900618011450206,271.3699521571523,None,272.1206320721481,None,None,272.1206320721481,None,,,001,2021_Jan_06_1300,searchDisc3,2020.2.2,59.949834347834084,
Images/exp2a_trial_44_colour2_distractors1_r.png,r,2,2a,44,2,1,,,,,0,116,116,272,,,,,,,,,,,,,,,,,,,,,,,,,,,,,,,,,,,,,,,,,,,,272.13726682971605,None,space,0.2810436915183345,272.13726682971605,None,272.5208947262147,None,2,1,0.6672907687402585,272.5208947262147,None,273.23859280395715,None,None,273.23859280395715,None,,,001,2021_Jan_06_1300,searchDisc3,2020.2.2,59.949834347834084,
Images/exp2b_trial_86_colour2_distractors31_r.png,r,2,2b,86,2,31,,,,,0,117,117,428,,,,,,,,,,,,,,,,,,,,,,,,,,,,,,,,,,,,,,,,,,,,273.2551350822057,None,space,0.27485301708202314,273.2551350822057,None,273.6386487395455,None,2,1,0.6057222618837841,273.6386487395455,None,274.32286322372676,None,None,274.32286322372676,None,,,001,2021_Jan_06_1300,searchDisc3,2020.2.2,59.949834347834084,
Images/exp2a_trial_62_colour2_distractors1_l.png,l,1,2a,62,2,1,,,,,0,118,118,290,,,,,,,,,,,,,,,,,,,,,,,,,,,,,,,,,,,,,,,,,,,,274.3229416231495,None,space,0.2478420158827248,274.3229416231495,None,274.6729953667543,None,1,1,0.667172689608833,274.6729953667543,None,275.3905299256999,None,None,275.3905299256999,None,,,001,2021_Jan_06_1300,searchDisc3,2020.2.2,59.949834347834084,
Images/exp2b_trial_76_colour1_distractors1_r.png,r,2,2b,76,1,1,,,,,0,119,119,418,,,,,,,,,,,,,,,,,,,,,,,,,,,,,,,,,,,,,,,,,,,,275.4073515618927,None,space,0.29963907465662487,275.4073515618927,None,275.8075908561316,None,2,1,0.660417219329247,275.8075908561316,None,276.5417508927137,None,space,276.5417508927137,None,0.26233534921175305,,001,2021_Jan_06_1300,searchDisc3,2020.2.2,59.949834347834084,
Images/exp2a_trial_84_colour2_distractors9_r.png,r,2,2a,84,2,9,,,,,0,120,120,312,,,,,,,,,,,,,,,,,,,,,,,,,,,,,,,,,,,,,,,,,,,,276.82541216496634,None,space,0.9145875086355773,276.82541216496634,None,277.85946855431143,None,2,1,0.5928273167910447,277.85946855431143,None,278.51044456312826,None,None,278.51044456312826,None,,,001,2021_Jan_06_1300,searchDisc3,2020.2.2,59.949834347834084,
Images/exp1b_trial_45_colour2_distractors4_r.png,r,2,1b,45,2,4,,,,,0,121,121,159,,,,,,,,,,,,,,,,,,,,,,,,,,,,,,,,,,,,,,,,,,,,278.51039496349335,None,space,0.4118673686557486,278.51039496349335,None,279.027283319195,None,2,1,0.9207746630986549,279.027283319195,None,280.0118440728275,None,None,280.0118440728275,None,,,001,2021_Jan_06_1300,searchDisc3,2020.2.2,59.949834347834084,
Images/exp1b_trial_1_colour1_distractors4_r.png,r,2,1b,1,1,4,,,,,0,122,122,115,,,,,,,,,,,,,,,,,,,,,,,,,,,,,,,,,,,,,,,,,,,,280.02842315080557,None,space,0.25474180510036604,280.02842315080557,None,280.3953154904782,None,2,1,0.6567266864917656,280.3953154904782,None,281.11290540901615,None,None,281.11290540901615,None,,,001,2021_Jan_06_1300,searchDisc3,2020.2.2,59.949834347834084,
Images/exp1b_trial_34_colour3_distractors31_l.png,l,1,1b,34,3,31,,,,,0,123,123,148,,,,,,,,,,,,,,,,,,,,,,,,,,,,,,,,,,,,,,,,,,,,281.1295814462808,None,space,0.25673155045615204,281.1295814462808,None,281.4964366662264,None,1,1,1.4756188994447257,281.4964366662264,None,283.03133288938994,None,None,283.03133288938994,None,,,001,2021_Jan_06_1300,searchDisc3,2020.2.2,59.949834347834084,
Images/exp2c_trial_55_colour3_distractors43_r.png,r,2,2c,55,3,43,,,,,0,124,124,511,,,,,,,,,,,,,,,,,,,,,,,,,,,,,,,,,,,,,,,,,,,,283.0315600877177,None,space,0.41844428024978697,283.0315600877177,None,283.581865797468,None,2,1,0.6782286082375322,283.581865797468,None,284.3159842343562,None,None,284.3159842343562,None,,,001,2021_Jan_06_1300,searchDisc3,2020.2.2,59.949834347834084,
Images/exp2a_trial_1_colour1_distractors4_r.png,r,2,2a,1,1,4,,,,,0,125,125,229,,,,,,,,,,,,,,,,,,,,,,,,,,,,,,,,,,,,,,,,,,,,284.3161576730797,None,space,0.37451628356029687,284.3161576730797,None,284.8164215111376,None,2,1,0.7316547750210702,284.8164215111376,None,285.60065701916443,None,None,285.60065701916443,None,,,001,2021_Jan_06_1300,searchDisc3,2020.2.2,59.949834347834084,
Images/exp1a_trial_90_colour3_distractors9_r.png,r,2,1a,90,3,9,,,,,0,126,126,90,,,,,,,,,,,,,,,,,,,,,,,,,,,,,,,,,,,,,,,,,,,,285.61713689787234,None,space,0.34557217658857553,285.61713689787234,None,286.06758126260206,None,2,1,0.6325217446396891,286.06758126260206,None,286.7517823068825,None,None,286.7517823068825,None,,,001,2021_Jan_06_1300,searchDisc3,2020.2.2,59.949834347834084,
Images/exp2c_trial_63_colour2_distractors4_l.png,l,1,2c,63,2,4,,,,,0,127,127,519,,,,,,,,,,,,,,,,,,,,,,,,,,,,,,,,,,,,,,,,,,,,286.7519263058223,None,space,0.4586929440201857,286.7519263058223,None,287.318775253814,None,1,1,0.8212192358264474,287.318775253814,None,288.2032433041291,None,None,288.2032433041291,None,,,001,2021_Jan_06_1300,searchDisc3,2020.2.2,59.949834347834084,
Images/exp2a_trial_4_colour1_distractors31_r.png,r,2,2a,4,1,31,,,,,0,128,128,232,,,,,,,,,,,,,,,,,,,,,,,,,,,,,,,,,,,,,,,,,,,,288.20333290347,None,space,0.4707184555118147,288.20333290347,None,288.8037355245067,None,2,1,1.0963804106404496,288.8037355245067,None,289.9550435308798,None,None,289.9550435308798,None,,,001,2021_Jan_06_1300,searchDisc3,2020.2.2,59.949834347834084,
Images/exp2c_trial_82_colour2_distractors1_r.png,r,2,2c,82,2,1,,,,,0,129,129,538,,,,,,,,,,,,,,,,,,,,,,,,,,,,,,,,,,,,,,,,,,,,289.9550771306324,None,space,0.3509769368097295,289.9550771306324,None,290.42182889533956,None,2,1,0.6542582246593156,290.42182889533956,None,291.139419453873,None,None,291.139419453873,None,,,001,2021_Jan_06_1300,searchDisc3,2020.2.2,59.949834347834084,
Images/exp1b_trial_100_colour2_distractors1_l.png,l,1,1b,100,2,1,,,,,0,130,130,214,,,,,,,,,,,,,,,,,,,,,,,,,,,,,,,,,,,,,,,,,,,,291.139414013913,None,space,0.2549104438589893,291.139414013913,None,291.5063194734887,None,1,1,0.8817154305743315,291.5063194734887,None,292.4406050771468,None,None,292.4406050771468,None,,,001,2021_Jan_06_1300,searchDisc3,2020.2.2,59.949834347834084,
Images/exp2a_trial_35_colour3_distractors43_l.png,l,1,2a,35,3,43,,,,,0,131,131,263,,,,,,,,,,,,,,,,,,,,,,,,,,,,,,,,,,,,,,,,,,,,292.4408514753334,None,space,0.27404054306180115,292.4408514753334,None,292.84090773091907,None,1,1,0.7872524458221051,292.84090773091907,None,293.69200354685387,None,None,293.69200354685387,None,,,001,2021_Jan_06_1300,searchDisc3,2020.2.2,59.949834347834084,
Images/exp1b_trial_74_colour0_distractors0_r.png,r,2,1b,74,0,0,,,,,0,132,132,188,,,,,,,,,,,,,,,,,,,,,,,,,,,,,,,,,,,,,,,,,,,,293.70852886522766,None,space,0.2937543179682507,293.70852886522766,None,294.1087931192826,None,2,1,0.7112280453616222,294.1087931192826,None,294.8763820298282,None,None,294.8763820298282,None,,,001,2021_Jan_06_1300,searchDisc3,2020.2.2,59.949834347834084,
Images/exp1a_trial_4_colour1_distractors31_r.png,r,2,1a,4,1,31,,,,,0,133,133,4,,,,,,,,,,,,,,,,,,,,,,,,,,,,,,,,,,,,,,,,,,,,294.87638266982344,None,space,0.27019801134247245,294.87638266982344,None,295.276722443323,None,2,1,0.7113963641227201,295.276722443323,None,296.04429151401433,None,None,296.04429151401433,None,,,001,2021_Jan_06_1300,searchDisc3,2020.2.2,59.949834347834084,
Images/exp2b_trial_95_colour1_distractors4_l.png,l,1,2b,95,1,4,,,,,0,134,134,437,,,,,,,,,,,,,,,,,,,,,,,,,,,,,,,,,,,,,,,,,,,,296.0443052739131,None,space,0.2776881962149673,296.0443052739131,None,296.4277357318649,None,1,1,0.8403550949865348,296.4277357318649,None,297.32896013885335,None,None,297.32896013885335,None,,,001,2021_Jan_06_1300,searchDisc3,2020.2.2,59.949834347834084,
Images/exp1a_trial_1_colour1_distractors4_r.png,r,2,1a,1,1,4,,,,,0,135,135,1,,,,,,,,,,,,,,,,,,,,,,,,,,,,,,,,,,,,,,,,,,,,297.34549601714957,None,space,0.2569881885669929,297.34549601714957,None,297.71240947666615,None,2,1,0.7236244341243037,297.71240947666615,None,298.4967121841983,None,None,298.4967121841983,None,,,001,2021_Jan_06_1300,searchDisc3,2020.2.2,59.949834347834084,
Images/exp2a_trial_32_colour3_distractors9_l.png,l,1,2a,32,3,9,,,,,0,136,136,260,,,,,,,,,,,,,,,,,,,,,,,,,,,,,,,,,,,,,,,,,,,,298.5133043820799,None,space,0.22535578138149504,298.5133043820799,None,298.84692624662307,None,1,1,0.7332307634214885,298.84692624662307,None,299.63118991444213,None,None,299.63118991444213,None,,,001,2021_Jan_06_1300,searchDisc3,2020.2.2,59.949834347834084,
Images/exp2b_trial_104_colour2_distractors31_l.png,l,1,2b,104,2,31,,,,,0,137,137,446,,,,,,,,,,,,,,,,,,,,,,,,,,,,,,,,,,,,,,,,,,,,299.64776547244605,None,space,0.26651803842742083,299.64776547244605,None,300.01461173245775,None,1,1,0.9255237481452241,300.01461173245775,None,300.9990624069006,None,None,300.9990624069006,None,,,001,2021_Jan_06_1300,searchDisc3,2020.2.2,59.949834347834084,
Images/exp2c_trial_1_colour1_distractors4_r.png,r,2,2c,1,1,4,,,,,0,138,138,457,,,,,,,,,,,,,,,,,,,,,,,,,,,,,,,,,,,,,,,,,,,,300.99919840589996,None,space,0.2589257743061353,300.99919840589996,None,301.366027706036,None,2,1,0.8059620681192428,301.366027706036,None,302.2169267234192,None,None,302.2169267234192,None,,,001,2021_Jan_06_1300,searchDisc3,2020.2.2,59.949834347834084,
Images/exp2a_trial_15_colour3_distractors19_r.png,r,2,2a,15,3,19,,,,,0,139,139,243,,,,,,,,,,,,,,,,,,,,,,,,,,,,,,,,,,,,,,,,,,,,302.2337467596237,None,space,0.2649327700946742,302.2337467596237,None,302.61716825764165,None,2,1,0.6270571448594637,302.61716825764165,None,303.3013174623034,None,None,303.3013174623034,None,,,001,2021_Jan_06_1300,searchDisc3,2020.2.2,59.949834347834084,
Images/exp2b_trial_63_colour2_distractors4_l.png,l,1,2b,63,2,4,,,,,0,140,140,405,,,,,,,,,,,,,,,,,,,,,,,,,,,,,,,,,,,,,,,,,,,,303.3012227430006,None,space,0.24588555028230985,303.3012227430006,None,303.6515030449375,None,1,1,0.6728436878706816,303.6515030449375,None,304.38576996073294,None,None,304.38576996073294,None,,,001,2021_Jan_06_1300,searchDisc3,2020.2.2,59.949834347834084,
Images/exp2b_trial_113_colour0_distractors0_l.png,l,1,2b,113,0,0,,,,,0,141,141,455,,,,,,,,,,,,,,,,,,,,,,,,,,,,,,,,,,,,,,,,,,,,304.40269463616755,None,space,0.2317883740374782,304.40269463616755,None,304.7359261035838,None,1,1,0.6121874943000876,304.7359261035838,None,305.40361462939615,None,None,305.40361462939615,None,,,001,2021_Jan_06_1300,searchDisc3,2020.2.2,59.949834347834084,
Images/exp2c_trial_37_colour0_distractors0_l.png,l,1,2c,37,0,0,,,,,0,142,142,493,,,,,,,,,,,,,,,,,,,,,,,,,,,,,,,,,,,,,,,,,,,,305.40348119037867,None,space,0.2554051602178333,305.40348119037867,None,305.77030441055945,None,1,1,0.5617785853096393,305.77030441055945,None,306.387647706913,None,None,306.387647706913,None,,,001,2021_Jan_06_1300,searchDisc3,2020.2.2,59.949834347834084,
Images/exp2b_trial_16_colour3_distractors31_r.png,r,2,2b,16,3,31,,,,,0,143,143,358,,,,,,,,,,,,,,,,,,,,,,,,,,,,,,,,,,,,,,,,,,,,306.40465270175605,None,space,0.2372052941691436,306.40465270175605,None,306.7713271230325,None,2,1,0.9288219638701776,306.7713271230325,None,307.77246407466447,None,None,307.77246407466447,None,,,001,2021_Jan_06_1300,searchDisc3,2020.2.2,59.949834347834084,
Images/exp2c_trial_27_colour2_distractors19_l.png,l,1,2c,27,2,19,,,,,0,144,144,483,,,,,,,,,,,,,,,,,,,,,,,,,,,,,,,,,,,,,,,,,,,,307.7724160750179,None,space,0.20621704224231507,307.7724160750179,None,308.08937566219515,None,1,1,1.3786823328982791,308.08937566219515,None,309.52425086151385,None,None,309.52425086151385,None,,,001,2021_Jan_06_1300,searchDisc3,2020.2.2,59.949834347834084,
Images/exp1a_trial_58_colour1_distractors9_l.png,l,1,1a,58,1,9,,,,,0,145,145,58,,,,,,,,,,,,,,,,,,,,,,,,,,,,,,,,,,,,,,,,,,,,309.5242454215538,None,space,0.28586285604933437,309.5242454215538,None,309.9244760758563,None,1,1,0.6554918155802625,309.9244760758563,None,310.6253045177589,None,None,310.6253045177589,None,,,001,2021_Jan_06_1300,searchDisc3,2020.2.2,59.949834347834084,
Images/exp1b_trial_61_colour1_distractors43_l.png,l,1,1b,61,1,43,,,,,0,146,146,175,,,,,,,,,,,,,,,,,,,,,,,,,,,,,,,,,,,,,,,,,,,,310.6420231147101,None,space,0.2565638716896501,310.6420231147101,None,311.0087912952961,None,1,1,1.211274285021318,311.0087912952961,None,312.2768018027387,None,None,312.2768018027387,None,,,001,2021_Jan_06_1300,searchDisc3,2020.2.2,59.949834347834084,
Images/exp1a_trial_55_colour3_distractors43_r.png,r,2,1a,55,3,43,,,,,0,147,147,55,,,,,,,,,,,,,,,,,,,,,,,,,,,,,,,,,,,,,,,,,,,,312.2769806814224,None,space,0.2615334351139609,312.2769806814224,None,312.6603586597605,None,2,1,0.6157260282561765,312.6603586597605,None,313.3278855867621,None,None,313.3278855867621,None,,,001,2021_Jan_06_1300,searchDisc3,2020.2.2,59.949834347834084,
Images/exp2a_trial_13_colour3_distractors4_r.png,r,2,2a,13,3,4,,,,,0,148,148,241,,,,,,,,,,,,,,,,,,,,,,,,,,,,,,,,,,,,,,,,,,,,313.32800654587186,None,space,0.22597849679823412,313.32800654587186,None,313.6613522524474,None,2,1,0.5986122342137605,313.6613522524474,None,314.31222394203184,None,None,314.31222394203184,None,,,001,2021_Jan_06_1300,searchDisc3,2020.2.2,59.949834347834084,
Images/exp1b_trial_92_colour3_distractors31_r.png,r,2,1b,92,3,31,,,,,0,149,149,206,,,,,,,,,,,,,,,,,,,,,,,,,,,,,,,,,,,,,,,,,,,,314.31238458084977,None,space,0.2503431174745856,314.31238458084977,None,314.6623500051039,None,2,1,0.8777237799531576,314.6623500051039,None,315.59679208761014,None,None,315.59679208761014,None,,,001,2021_Jan_06_1300,searchDisc3,2020.2.2,59.949834347834084,
Images/exp1a_trial_48_colour2_distractors31_r.png,r,2,1a,48,2,31,,,,,0,150,150,48,,,,,,,,,,,,,,,,,,,,,,,,,,,,,,,,,,,,,,,,,,,,315.6134540449782,None,space,0.22942935140008558,315.6134540449782,None,315.9469571903953,None,2,1,0.6251784386868167,315.9469571903953,None,316.63134063333297,None,None,316.63134063333297,None,,,001,2021_Jan_06_1300,searchDisc3,2020.2.2,59.949834347834084,
Images/exp1a_trial_73_colour3_distractors43_l.png,l,1,1a,73,3,43,,,,,0,151,151,73,,,,,,,,,,,,,,,,,,,,,,,,,,,,,,,,,,,,,,,,,,,,316.6479526710684,None,space,0.23401395765722555,316.6479526710684,None,316.99808193411695,None,1,1,0.6539203071465636,316.99808193411695,None,317.6988745362835,None,None,317.6988745362835,None,,,001,2021_Jan_06_1300,searchDisc3,2020.2.2,59.949834347834084,
Images/exp2a_trial_101_colour2_distractors4_l.png,l,1,2a,101,2,4,,,,,0,152,152,329,,,,,,,,,,,,,,,,,,,,,,,,,,,,,,,,,,,,,,,,,,,,317.7155995331875,None,space,0.2303448646621291,317.7155995331875,None,318.04909275867726,None,1,1,0.6668930116675256,318.04909275867726,None,318.7665863579246,None,None,318.7665863579246,None,,,001,2021_Jan_06_1300,searchDisc3,2020.2.2,59.949834347834084,
Images/exp2b_trial_31_colour3_distractors4_l.png,l,1,2b,31,3,4,,,,,0,153,153,373,,,,,,,,,,,,,,,,,,,,,,,,,,,,,,,,,,,,,,,,,,,,318.76667083730285,None,space,0.26732091251824386,318.76667083730285,None,319.1668640518808,None,1,1,0.7013145183250344,319.1668640518808,None,319.91766108601456,None,None,319.91766108601456,None,,,001,2021_Jan_06_1300,searchDisc3,2020.2.2,59.949834347834084,
Images/exp1a_trial_61_colour1_distractors43_l.png,l,1,1a,61,1,43,,,,,0,154,154,61,,,,,,,,,,,,,,,,,,,,,,,,,,,,,,,,,,,,,,,,,,,,319.9345236819056,None,space,0.32410641457681777,319.9345236819056,None,320.38468324873133,None,1,1,0.6913430717149822,320.38468324873133,None,321.1523201589237,None,None,321.1523201589237,None,,,001,2021_Jan_06_1300,searchDisc3,2020.2.2,59.949834347834084,
Images/exp2c_trial_84_colour2_distractors9_r.png,r,2,2c,84,2,9,,,,,0,155,155,540,,,,,,,,,,,,,,,,,,,,,,,,,,,,,,,,,,,,,,,,,,,,321.15232719887194,None,space,0.217715197616144,321.15232719887194,None,321.50257774102806,None,2,1,0.8373839168543782,321.50257774102806,None,322.4034405506778,None,None,322.4034405506778,None,,,001,2021_Jan_06_1300,searchDisc3,2020.2.2,59.949834347834084,
Images/exp1a_trial_45_colour2_distractors4_r.png,r,2,1a,45,2,4,,,,,0,156,156,45,,,,,,,,,,,,,,,,,,,,,,,,,,,,,,,,,,,,,,,,,,,,322.4202954666255,None,space,0.21453570101766672,322.4202954666255,None,322.73698433579534,None,2,1,0.6589714699698561,322.73698433579534,None,323.45447889503527,None,None,323.45447889503527,None,,,001,2021_Jan_06_1300,searchDisc3,2020.2.2,59.949834347834084,
Images/exp1a_trial_17_colour3_distractors43_r.png,r,2,1a,17,3,43,,,,,0,157,157,17,,,,,,,,,,,,,,,,,,,,,,,,,,,,,,,,,,,,,,,,,,,,323.4711504523327,None,space,0.2117715613612745,323.4711504523327,None,323.78802620012743,None,2,1,0.6722331323639992,323.78802620012743,None,324.5222950359085,None,None,324.5222950359085,None,,,001,2021_Jan_06_1300,searchDisc3,2020.2.2,59.949834347834084,
Images/exp2b_trial_36_colour0_distractors0_r.png,r,2,2b,36,0,0,,,,,0,158,158,378,,,,,,,,,,,,,,,,,,,,,,,,,,,,,,,,,,,,,,,,,,,,324.5223455955363,None,space,0.2079207097035578,324.5223455955363,None,324.83906614447346,None,2,1,0.6689969961821589,324.83906614447346,None,325.556694462729,None,None,325.556694462729,None,,,001,2021_Jan_06_1300,searchDisc3,2020.2.2,59.949834347834084,
Images/exp2c_trial_5_colour1_distractors43_r.png,r,2,2c,5,1,43,,,,,0,159,159,461,,,,,,,,,,,,,,,,,,,,,,,,,,,,,,,,,,,,,,,,,,,,325.5734114596919,None,space,0.21312963136597318,325.5734114596919,None,325.90684932558884,None,2,1,0.649124822441081,325.90684932558884,None,326.60768800741613,None,None,326.60768800741613,None,,,001,2021_Jan_06_1300,searchDisc3,2020.2.2,59.949834347834084,
Images/exp1a_trial_89_colour3_distractors4_r.png,r,2,1a,89,3,4,,,,,0,160,160,89,,,,,,,,,,,,,,,,,,,,,,,,,,,,,,,,,,,,,,,,,,,,326.62445396401904,None,space,0.25828353903352763,326.62445396401904,None,326.9911875848595,None,2,1,0.6288558516207559,326.9911875848595,None,327.6921005061402,None,None,327.6921005061402,None,,,001,2021_Jan_06_1300,searchDisc3,2020.2.2,59.949834347834084,
Images/exp2a_trial_28_colour2_distractors31_l.png,l,1,2a,28,2,31,,,,,0,161,161,256,,,,,,,,,,,,,,,,,,,,,,,,,,,,,,,,,,,,,,,,,,,,327.6920265866845,None,space,0.24608202883655395,327.6920265866845,None,328.0421852895163,None,1,1,0.6817786621090818,328.0421852895163,None,328.7763891657756,None,None,328.7763891657756,None,,,001,2021_Jan_06_1300,searchDisc3,2020.2.2,59.949834347834084,
Images/exp2b_trial_28_colour2_distractors31_l.png,l,1,2b,28,2,31,,,,,0,162,162,370,,,,,,,,,,,,,,,,,,,,,,,,,,,,,,,,,,,,,,,,,,,,328.7931333625386,None,space,0.24961928280208667,328.7931333625386,None,329.14325878561544,None,1,1,0.5807784454705143,329.14325878561544,None,329.7941010354164,None,None,329.7941010354164,None,,,001,2021_Jan_06_1300,searchDisc3,2020.2.2,59.949834347834084,
Images/exp1a_trial_93_colour3_distractors43_r.png,r,2,1a,93,3,43,,,,,0,163,163,93,,,,,,,,,,,,,,,,,,,,,,,,,,,,,,,,,,,,,,,,,,,,329.79408887550585,None,space,0.21611232941313574,329.79408887550585,None,330.1108932638256,None,2,1,0.7573185861351703,330.1108932638256,None,330.92851636611937,None,None,330.92851636611937,None,,,001,2021_Jan_06_1300,searchDisc3,2020.2.2,59.949834347834084,
Images/exp2a_trial_16_colour3_distractors31_r.png,r,2,2a,16,3,31,,,,,0,164,164,244,,,,,,,,,,,,,,,,,,,,,,,,,,,,,,,,,,,,,,,,,,,,330.945334802336,None,space,0.2567177905571043,330.945334802336,None,331.32879886004025,None,2,1,0.6272267436111179,331.32879886004025,None,332.01301110423816,None,None,332.01301110423816,None,,,001,2021_Jan_06_1300,searchDisc3,2020.2.2,59.949834347834084,
Images/exp2c_trial_53_colour3_distractors19_r.png,r,2,2c,53,3,19,,,,,0,165,165,509,,,,,,,,,,,,,,,,,,,,,,,,,,,,,,,,,,,,,,,,,,,,332.0129157449403,None,space,0.27014105176203884,332.0129157449403,None,332.39644476216677,None,2,1,0.5994823078103764,332.39644476216677,None,333.0640430486431,None,None,333.0640430486431,None,,,001,2021_Jan_06_1300,searchDisc3,2020.2.2,59.949834347834084,
Images/exp2b_trial_20_colour1_distractors9_l.png,l,1,2b,20,1,9,,,,,0,166,166,362,,,,,,,,,,,,,,,,,,,,,,,,,,,,,,,,,,,,,,,,,,,,333.06402224879616,None,space,0.23398835784564653,333.06402224879616,None,333.41417519167067,None,1,1,0.7258346578569217,333.41417519167067,None,334.19840429974425,None,None,334.19840429974425,None,,,001,2021_Jan_06_1300,searchDisc3,2020.2.2,59.949834347834084,
Images/exp1a_trial_40_colour1_distractors9_r.png,r,2,1a,40,1,9,,,,,0,167,167,40,,,,,,,,,,,,,,,,,,,,,,,,,,,,,,,,,,,,,,,,,,,,334.1985770984727,None,space,0.27541301296014353,334.1985770984727,None,334.5820638760099,None,2,1,0.8221091492764572,334.5820638760099,None,335.46637864745304,None,None,335.46637864745304,None,,,001,2021_Jan_06_1300,searchDisc3,2020.2.2,59.949834347834084,
Images/exp1b_trial_68_colour3_distractors1_l.png,l,1,1b,68,3,1,,,,,0,168,168,182,,,,,,,,,,,,,,,,,,,,,,,,,,,,,,,,,,,,,,,,,,,,335.46652456637935,None,space,0.23157173563186007,335.46652456637935,None,335.79985235308664,None,1,1,1.0042374088125143,335.79985235308664,None,336.8678624125328,None,None,336.8678624125328,None,,,001,2021_Jan_06_1300,searchDisc3,2020.2.2,59.949834347834084,
Images/exp2c_trial_80_colour1_distractors31_r.png,r,2,2c,80,1,31,,,,,0,169,169,536,,,,,,,,,,,,,,,,,,,,,,,,,,,,,,,,,,,,,,,,,,,,336.8845086900162,None,space,0.22936119190171667,336.8845086900162,None,337.21789151631833,None,2,1,0.8182934973597185,337.21789151631833,None,338.0857232090771,None,None,338.0857232090771,None,,,001,2021_Jan_06_1300,searchDisc3,2020.2.2,59.949834347834084,
Images/exp2b_trial_79_colour1_distractors19_r.png,r,2,2b,79,1,19,,,,,0,170,170,421,,,,,,,,,,,,,,,,,,,,,,,,,,,,,,,,,,,,,,,,,,,,338.0856832093716,None,space,0.2371537745484602,338.0856832093716,None,338.43573983295505,None,2,1,0.6726366493940077,338.43573983295505,None,339.16998370892003,None,None,339.16998370892003,None,,,001,2021_Jan_06_1300,searchDisc3,2020.2.2,59.949834347834084,
Images/exp2a_trial_110_colour3_distractors31_l.png,l,1,2a,110,3,31,,,,,0,171,171,338,,,,,,,,,,,,,,,,,,,,,,,,,,,,,,,,,,,,,,,,,,,,339.1865055073197,None,space,0.21560737312984202,339.1865055073197,None,339.52018241145765,None,1,1,0.6757911861768662,339.52018241145765,None,340.25434116804905,None,None,340.25434116804905,None,,,001,2021_Jan_06_1300,searchDisc3,2020.2.2,59.949834347834084,
Images/exp1a_trial_107_colour3_distractors4_l.png,l,1,1a,107,3,4,,,,,0,172,172,107,,,,,,,,,,,,,,,,,,,,,,,,,,,,,,,,,,,,,,,,,,,,340.27104664509693,None,space,0.24302157136116875,340.27104664509693,None,340.6212194278253,None,1,1,0.7107845286254815,340.6212194278253,None,341.388786578531,None,None,341.388786578531,None,,,001,2021_Jan_06_1300,searchDisc3,2020.2.2,59.949834347834084,
Images/exp1b_trial_93_colour3_distractors43_r.png,r,2,1b,93,3,43,,,,,0,173,173,207,,,,,,,,,,,,,,,,,,,,,,,,,,,,,,,,,,,,,,,,,,,,341.38885697801265,None,space,0.2056989660554791,341.38885697801265,None,341.7224766025722,None,2,1,2.473814112727723,341.7224766025722,None,344.2583964982019,None,None,344.2583964982019,None,,,001,2021_Jan_06_1300,searchDisc3,2020.2.2,59.949834347834084,
Images/exp2c_trial_16_colour3_distractors31_r.png,r,2,2c,16,3,31,,,,,0,174,174,472,,,,,,,,,,,,,,,,,,,,,,,,,,,,,,,,,,,,,,,,,,,,344.25845761775213,None,space,0.2237087535036153,344.25845761775213,None,344.5917713245633,None,2,1,0.6042528326988759,344.5917713245633,None,345.25933569128944,None,None,345.25933569128944,None,,,001,2021_Jan_06_1300,searchDisc3,2020.2.2,59.949834347834084,
Images/exp2a_trial_86_colour2_distractors31_r.png,r,2,2a,86,2,31,,,,,0,175,175,314,,,,,,,,,,,,,,,,,,,,,,,,,,,,,,,,,,,,,,,,,,,,345.2761070878521,None,space,0.21384706608569104,345.2761070878521,None,345.59275755730437,None,2,1,0.5953501782223611,345.59275755730437,None,346.2437025263494,None,None,346.2437025263494,None,,,001,2021_Jan_06_1300,searchDisc3,2020.2.2,59.949834347834084,
Images/exp1b_trial_65_colour2_distractors19_l.png,l,1,1b,65,2,19,,,,,0,176,176,179,,,,,,,,,,,,,,,,,,,,,,,,,,,,,,,,,,,,,,,,,,,,346.26042144329836,None,space,0.21394786534392551,346.26042144329836,None,346.59380650958406,None,1,1,1.058222611481142,346.59380650958406,None,347.7117746013392,None,None,347.7117746013392,None,,,001,2021_Jan_06_1300,searchDisc3,2020.2.2,59.949834347834084,
Images/exp2b_trial_46_colour2_distractors9_r.png,r,2,2b,46,2,9,,,,,0,177,177,388,,,,,,,,,,,,,,,,,,,,,,,,,,,,,,,,,,,,,,,,,,,,347.7117954011858,None,space,0.24218957748462344,347.7117954011858,None,348.06187826457585,None,2,1,0.7981346057295013,348.06187826457585,None,348.9130128002258,None,None,348.9130128002258,None,,,001,2021_Jan_06_1300,searchDisc3,2020.2.2,59.949834347834084,
Images/exp2b_trial_18_colour1_distractors1_l.png,l,1,2b,18,1,1,,,,,0,178,178,360,,,,,,,,,,,,,,,,,,,,,,,,,,,,,,,,,,,,,,,,,,,,348.9297784368307,None,space,0.20032780558722152,348.9297784368307,None,349.2465978650396,None,1,1,0.6933529769221423,349.2465978650396,None,349.9974521787522,None,None,349.9974521787522,None,,,001,2021_Jan_06_1300,searchDisc3,2020.2.2,59.949834347834084,
Images/exp2a_trial_112_colour0_distractors0_r.png,r,2,2a,112,0,0,,,,,0,179,179,340,,,,,,,,,,,,,,,,,,,,,,,,,,,,,,,,,,,,,,,,,,,,349.9974083390746,None,space,0.25268998020192157,349.9974083390746,None,350.36418195962074,None,2,1,0.5597686801024793,350.36418195962074,None,350.98160685537346,None,space,350.98160685537346,None,0.24640202648106424,,001,2021_Jan_06_1300,searchDisc3,2020.2.2,59.949834347834084,
Images/exp2b_trial_22_colour1_distractors31_l.png,l,1,2b,22,1,31,,,,,0,180,180,364,,,,,,,,,,,,,,,,,,,,,,,,,,,,,,,,,,,,,,,,,,,,351.24865768987934,None,space,0.8514484533393443,351.24865768987934,None,352.19928301327695,None,1,1,0.7887743546207275,352.19928301327695,None,353.0503327495508,None,None,353.0503327495508,None,,,001,2021_Jan_06_1300,searchDisc3,2020.2.2,59.949834347834084,
Images/exp2a_trial_83_colour2_distractors4_r.png,r,2,2a,83,2,4,,,,,0,181,181,311,,,,,,,,,,,,,,,,,,,,,,,,,,,,,,,,,,,,,,,,,,,,353.050310349716,None,space,0.2641810956270092,353.050310349716,None,353.41712108998877,None,2,1,0.5628201776435162,353.41712108998877,None,354.0345770255131,None,None,354.0345770255131,None,,,001,2021_Jan_06_1300,searchDisc3,2020.2.2,59.949834347834084,
Images/exp1a_trial_9_colour2_distractors19_r.png,r,2,1a,9,2,19,,,,,0,182,182,9,,,,,,,,,,,,,,,,,,,,,,,,,,,,,,,,,,,,,,,,,,,,354.0514559412843,None,space,0.23067446223603838,354.0514559412843,None,354.38478724796573,None,2,1,0.5713289150194214,354.38478724796573,None,355.01887282109607,None,None,355.01887282109607,None,,,001,2021_Jan_06_1300,searchDisc3,2020.2.2,59.949834347834084,
Images/exp2a_trial_65_colour2_distractors19_l.png,l,1,2a,65,2,19,,,,,0,183,183,293,,,,,,,,,,,,,,,,,,,,,,,,,,,,,,,,,,,,,,,,,,,,355.0189045008631,None,space,0.17538622915753876,355.0189045008631,None,355.31902261199343,None,1,1,0.6929670597623954,355.31902261199343,None,356.06990924546795,None,None,356.06990924546795,None,,,001,2021_Jan_06_1300,searchDisc3,2020.2.2,59.949834347834084,
Images/exp1b_trial_54_colour3_distractors31_r.png,r,2,1b,54,3,31,,,,,0,184,184,168,,,,,,,,,,,,,,,,,,,,,,,,,,,,,,,,,,,,,,,,,,,,356.08675904145343,None,space,0.22799032199145586,356.08675904145343,None,356.4201444277371,None,2,1,1.1758108660319522,356.4201444277371,None,357.65485630025756,None,None,357.65485630025756,None,,,001,2021_Jan_06_1300,searchDisc3,2020.2.2,59.949834347834084,
Images/exp2c_trial_76_colour1_distractors1_r.png,r,2,2c,76,1,1,,,,,0,185,185,532,,,,,,,,,,,,,,,,,,,,,,,,,,,,,,,,,,,,,,,,,,,,357.67160273700415,None,space,0.21107268650530386,357.67160273700415,None,357.9882909661785,None,2,1,0.5198156941564775,357.9882909661785,None,358.5724700266206,None,None,358.5724700266206,None,,,001,2021_Jan_06_1300,searchDisc3,2020.2.2,59.949834347834084,
Images/exp1a_trial_36_colour0_distractors0_r.png,r,2,1a,36,0,0,,,,,0,186,186,36,,,,,,,,,,,,,,,,,,,,,,,,,,,,,,,,,,,,,,,,,,,,358.5892484631315,None,space,0.1656512608064986,358.5892484631315,None,358.8558106612338,None,2,1,0.7081282281765198,358.8558106612338,None,359.6234680512753,None,None,359.6234680512753,None,,,001,2021_Jan_06_1300,searchDisc3,2020.2.2,59.949834347834084,
Images/exp1a_trial_68_colour3_distractors1_l.png,l,1,1a,68,3,1,,,,,0,187,187,68,,,,,,,,,,,,,,,,,,,,,,,,,,,,,,,,,,,,,,,,,,,,359.64027080760684,None,space,0.20991557502156866,359.64027080760684,None,359.9569270370173,None,1,1,0.5910890895843295,359.9569270370173,None,360.60780000659184,None,None,360.60780000659184,None,,,001,2021_Jan_06_1300,searchDisc3,2020.2.2,59.949834347834084,
Images/exp2a_trial_0_colour1_distractors1_r.png,r,2,2a,0,1,1,,,,,0,188,188,228,,,,,,,,,,,,,,,,,,,,,,,,,,,,,,,,,,,,,,,,,,,,360.60794304553906,None,space,0.2346766727796421,360.60794304553906,None,360.9579052698175,None,2,1,0.6621301667219086,360.9579052698175,None,361.6755585478891,None,None,361.6755585478891,None,,,001,2021_Jan_06_1300,searchDisc3,2020.2.2,59.949834347834084,
Images/exp2a_trial_26_colour2_distractors9_l.png,l,1,2a,26,2,9,,,,,0,189,189,254,,,,,,,,,,,,,,,,,,,,,,,,,,,,,,,,,,,,,,,,,,,,361.67557902773865,None,space,0.19852269887269358,361.67557902773865,None,361.97558641968385,None,1,1,0.6124946920390357,361.97558641968385,None,362.6431613463324,None,None,362.6431613463324,None,,,001,2021_Jan_06_1300,searchDisc3,2020.2.2,59.949834347834084,
Images/exp1b_trial_101_colour2_distractors4_l.png,l,1,1b,101,2,4,,,,,0,190,190,215,,,,,,,,,,,,,,,,,,,,,,,,,,,,,,,,,,,,,,,,,,,,362.6431690262759,None,space,0.2149190581953917,362.6431690262759,None,362.95987197534237,None,1,1,1.0683258971212126,362.95987197534237,None,364.0777818275256,None,None,364.0777818275256,None,,,001,2021_Jan_06_1300,searchDisc3,2020.2.2,59.949834347834084,
Images/exp2c_trial_100_colour2_distractors1_l.png,l,1,2c,100,2,1,,,,,0,191,191,556,,,,,,,,,,,,,,,,,,,,,,,,,,,,,,,,,,,,,,,,,,,,364.09465370334897,None,space,0.18741846059992895,364.09465370334897,None,364.3946370954711,None,1,1,0.6653106233138715,364.3946370954711,None,365.1122247740255,None,None,365.1122247740255,None,,,001,2021_Jan_06_1300,searchDisc3,2020.2.2,59.949834347834084,
Images/exp1a_trial_33_colour3_distractors19_l.png,l,1,1a,33,3,19,,,,,0,192,192,33,,,,,,,,,,,,,,,,,,,,,,,,,,,,,,,,,,,,,,,,,,,,365.1122996534748,None,space,0.24262669426752836,365.1122996534748,None,365.462349877105,None,1,1,0.6776810922674485,365.462349877105,None,366.213229470631,None,None,366.213229470631,None,,,001,2021_Jan_06_1300,searchDisc3,2020.2.2,59.949834347834084,
Images/exp2c_trial_51_colour3_distractors4_r.png,r,2,2c,51,3,4,,,,,0,193,193,507,,,,,,,,,,,,,,,,,,,,,,,,,,,,,,,,,,,,,,,,,,,,366.2132659503625,None,space,0.21283043356788767,366.2132659503625,None,366.5301778578912,None,2,1,0.6578002785900026,366.5301778578912,None,367.26423421523606,None,None,367.26423421523606,None,,,001,2021_Jan_06_1300,searchDisc3,2020.2.2,59.949834347834084,
Images/exp1a_trial_74_colour0_distractors0_r.png,r,2,1a,74,0,0,,,,,0,194,194,74,,,,,,,,,,,,,,,,,,,,,,,,,,,,,,,,,,,,,,,,,,,,367.2641846156014,None,space,0.18648982743479792,367.2641846156014,None,367.5812821217635,None,2,1,0.6868263049586858,367.5812821217635,None,368.3320077964227,None,None,368.3320077964227,None,,,001,2021_Jan_06_1300,searchDisc3,2020.2.2,59.949834347834084,
Images/exp2b_trial_38_colour1_distractors1_r.png,r,2,2b,38,1,1,,,,,0,195,195,380,,,,,,,,,,,,,,,,,,,,,,,,,,,,,,,,,,,,,,,,,,,,368.33207595592125,None,space,0.15779435863350955,368.33207595592125,None,368.59886535235114,None,2,1,0.7091007010189969,368.59886535235114,None,369.36645170291564,None,None,369.36645170291564,None,,,001,2021_Jan_06_1300,searchDisc3,2020.2.2,59.949834347834084,
Images/exp1b_trial_102_colour2_distractors9_l.png,l,1,1b,102,2,9,,,,,0,196,196,216,,,,,,,,,,,,,,,,,,,,,,,,,,,,,,,,,,,,,,,,,,,,369.3665461022208,None,space,0.2039156191813163,369.3665461022208,None,369.6832116115627,None,1,1,0.712902913034668,369.6832116115627,None,370.4508552417056,None,None,370.4508552417056,None,,,001,2021_Jan_06_1300,searchDisc3,2020.2.2,59.949834347834084,
Images/exp1a_trial_113_colour0_distractors0_l.png,l,1,1a,113,0,0,,,,,0,197,197,113,,,,,,,,,,,,,,,,,,,,,,,,,,,,,,,,,,,,,,,,,,,,370.45085620169834,None,space,0.2153840147734627,370.45085620169834,None,370.7675978704799,None,1,1,0.812331941237062,370.7675978704799,None,371.6352887642748,None,None,371.6352887642748,None,,,001,2021_Jan_06_1300,searchDisc3,2020.2.2,59.949834347834084,
Images/exp2c_trial_106_colour3_distractors1_l.png,l,1,2c,106,3,1,,,,,0,198,198,562,,,,,,,,,,,,,,,,,,,,,,,,,,,,,,,,,,,,,,,,,,,,371.65203936099056,None,space,0.24627210743756223,371.65203936099056,None,372.00207262474555,None,1,1,0.721834687296905,372.00207262474555,None,372.7864751715429,None,None,372.7864751715429,None,,,001,2021_Jan_06_1300,searchDisc3,2020.2.2,59.949834347834084,
Images/exp1b_trial_30_colour3_distractors1_l.png,l,1,1b,30,3,1,,,,,0,199,199,144,,,,,,,,,,,,,,,,,,,,,,,,,,,,,,,,,,,,,,,,,,,,372.7863295726145,None,space,0.2322443706816557,372.7863295726145,None,373.1366706741039,None,1,1,0.6193775213814661,373.1366706741039,None,373.82066915987485,None,None,373.82066915987485,None,,,001,2021_Jan_06_1300,searchDisc3,2020.2.2,59.949834347834084,
Images/exp2c_trial_0_colour1_distractors1_r.png,r,2,2c,0,1,1,,,,,0,200,200,456,,,,,,,,,,,,,,,,,,,,,,,,,,,,,,,,,,,,,,,,,,,,373.83731191738457,None,space,0.2126976345452931,373.83731191738457,None,374.15422638489395,None,2,1,0.6577052392890437,374.15422638489395,None,374.8718492631893,None,None,374.8718492631893,None,,,001,2021_Jan_06_1300,searchDisc3,2020.2.2,59.949834347834084,
Images/exp2b_trial_88_colour3_distractors1_r.png,r,2,2b,88,3,1,,,,,0,201,201,430,,,,,,,,,,,,,,,,,,,,,,,,,,,,,,,,,,,,,,,,,,,,374.8719071827634,None,space,0.19419089075472584,374.8719071827634,None,375.1719990540871,None,2,1,0.6319620687595489,375.1719990540871,None,375.856092259161,None,None,375.856092259161,None,,,001,2021_Jan_06_1300,searchDisc3,2020.2.2,59.949834347834084,
Images/exp2a_trial_76_colour1_distractors1_r.png,r,2,2a,76,1,1,,,,,0,202,202,304,,,,,,,,,,,,,,,,,,,,,,,,,,,,,,,,,,,,,,,,,,,,375.8561776985323,None,space,0.22649849297113178,375.8561776985323,None,376.1896840439256,None,2,1,0.7262346549127869,376.1896840439256,None,376.97395731167404,None,None,376.97395731167404,None,,,001,2021_Jan_06_1300,searchDisc3,2020.2.2,59.949834347834084,
Images/exp2c_trial_72_colour3_distractors31_l.png,l,1,2c,72,3,31,,,,,0,203,203,528,,,,,,,,,,,,,,,,,,,,,,,,,,,,,,,,,,,,,,,,,,,,376.990487110015,None,space,0.19600303741754033,376.990487110015,None,377.29066698069096,None,1,1,0.6815853835314556,377.29066698069096,None,378.02489069680456,None,None,378.02489069680456,None,,,001,2021_Jan_06_1300,searchDisc3,2020.2.2,59.949834347834084,
Images/exp1b_trial_50_colour3_distractors1_r.png,r,2,1b,50,3,1,,,,,0,204,204,164,,,,,,,,,,,,,,,,,,,,,,,,,,,,,,,,,,,,,,,,,,,,378.04145889486267,None,space,0.20113803962385646,378.04145889486267,None,378.3583778423392,None,2,1,0.9816017354114592,378.3583778423392,None,379.39296862775115,None,None,379.39296862775115,None,,,001,2021_Jan_06_1300,searchDisc3,2020.2.2,59.949834347834084,
Images/exp2b_trial_15_colour3_distractors19_r.png,r,2,2b,15,3,19,,,,,0,205,205,357,,,,,,,,,,,,,,,,,,,,,,,,,,,,,,,,,,,,,,,,,,,,379.40955474567704,None,space,0.18454136177570035,379.40955474567704,None,379.70970837654636,None,2,1,0.6621999262088138,379.70970837654636,None,380.4271683760408,None,None,380.4271683760408,None,,,001,2021_Jan_06_1300,searchDisc3,2020.2.2,59.949834347834084,
Images/exp2b_trial_83_colour2_distractors4_r.png,r,2,2b,83,2,4,,,,,0,206,206,425,,,,,,,,,,,,,,,,,,,,,,,,,,,,,,,,,,,,,,,,,,,,380.4439103328202,None,space,0.18210745968917763,380.4439103328202,None,380.72745128595875,None,2,1,0.7247044261753217,380.72745128595875,None,381.52826139199607,None,None,381.52826139199607,None,,,001,2021_Jan_06_1300,searchDisc3,2020.2.2,59.949834347834084,
Images/exp1a_trial_100_colour2_distractors1_l.png,l,1,1a,100,2,1,,,,,0,207,207,100,,,,,,,,,,,,,,,,,,,,,,,,,,,,,,,,,,,,,,,,,,,,381.5284492306139,None,space,0.1934980958540109,381.5284492306139,None,381.82873694049636,None,1,1,0.6874327004952647,381.82873694049636,None,382.57940597557223,None,None,382.57940597557223,None,,,001,2021_Jan_06_1300,searchDisc3,2020.2.2,59.949834347834084,
Images/exp2a_trial_69_colour3_distractors4_l.png,l,1,2a,69,3,4,,,,,0,208,208,297,,,,,,,,,,,,,,,,,,,,,,,,,,,,,,,,,,,,,,,,,,,,382.5794242154377,None,space,0.23941935787388502,382.5794242154377,None,382.9462797553813,None,1,1,0.6816855427941846,382.9462797553813,None,383.680410032182,None,None,383.680410032182,None,,,001,2021_Jan_06_1300,searchDisc3,2020.2.2,59.949834347834084,
Images/exp2b_trial_2_colour1_distractors9_r.png,r,2,2b,2,1,9,,,,,0,209,209,344,,,,,,,,,,,,,,,,,,,,,,,,,,,,,,,,,,,,,,,,,,,,383.68040491221996,None,space,0.16152745115823564,383.68040491221996,None,383.9639845850736,None,2,1,0.7679844276349286,383.9639845850736,None,384.7816176072943,None,None,384.7816176072943,None,,,001,2021_Jan_06_1300,searchDisc3,2020.2.2,59.949834347834084,
Images/exp2c_trial_28_colour2_distractors31_l.png,l,1,2c,28,2,31,,,,,0,210,210,484,,,,,,,,,,,,,,,,,,,,,,,,,,,,,,,,,,,,,,,,,,,,384.79833588424776,None,space,0.20396329883033104,384.79833588424776,None,385.13181214986275,None,1,1,1.0801798898755806,385.13181214986275,None,386.283093596431,None,None,386.283093596431,None,,,001,2021_Jan_06_1300,searchDisc3,2020.2.2,59.949834347834084,
Images/exp1a_trial_38_colour1_distractors1_r.png,r,2,1a,38,1,1,,,,,0,211,211,38,,,,,,,,,,,,,,,,,,,,,,,,,,,,,,,,,,,,,,,,,,,,386.28319631567524,None,space,0.23889264175022618,386.28319631567524,None,386.63320845958583,None,2,1,0.7226794810790125,386.63320845958583,None,387.41743852765245,None,None,387.41743852765245,None,,,001,2021_Jan_06_1300,searchDisc3,2020.2.2,59.949834347834084,
Images/exp2c_trial_21_colour1_distractors19_l.png,l,1,2c,21,1,19,,,,,0,212,212,477,,,,,,,,,,,,,,,,,,,,,,,,,,,,,,,,,,,,,,,,,,,,387.4173239684958,None,space,0.17726749531129826,387.4173239684958,None,387.71765167808394,None,1,1,0.7025010695920173,387.71765167808394,None,388.50204846492335,None,None,388.50204846492335,None,,,001,2021_Jan_06_1300,searchDisc3,2020.2.2,59.949834347834084,
Images/exp2a_trial_18_colour1_distractors1_l.png,l,1,2a,18,1,1,,,,,0,213,213,246,,,,,,,,,,,,,,,,,,,,,,,,,,,,,,,,,,,,,,,,,,,,388.501839826459,None,space,0.19668719238188714,388.501839826459,None,388.8019672175212,None,1,1,0.7060242436618864,388.8019672175212,None,389.5695154883661,None,None,389.5695154883661,None,,,001,2021_Jan_06_1300,searchDisc3,2020.2.2,59.949834347834084,
Images/exp1b_trial_79_colour1_distractors19_r.png,r,2,1b,79,1,19,,,,,0,214,214,193,,,,,,,,,,,,,,,,,,,,,,,,,,,,,,,,,,,,,,,,,,,,389.5863492844694,None,space,0.19152211039727263,389.5863492844694,None,389.8863480364787,None,2,1,0.7177828771182249,389.8863480364787,None,390.6540575861364,None,None,390.6540575861364,None,,,001,2021_Jan_06_1300,searchDisc3,2020.2.2,59.949834347834084,
Images/exp2a_trial_49_colour2_distractors43_r.png,r,2,2a,49,2,43,,,,,0,215,215,277,,,,,,,,,,,,,,,,,,,,,,,,,,,,,,,,,,,,,,,,,,,,390.67064242407173,None,space,0.17214977297726364,390.67064242407173,None,390.9707880550002,None,2,1,0.6091596765845679,390.9707880550002,None,391.62152950554287,None,None,391.62152950554287,None,,,001,2021_Jan_06_1300,searchDisc3,2020.2.2,59.949834347834084,
Images/exp1a_trial_76_colour1_distractors1_r.png,r,2,1a,76,1,1,,,,,0,216,216,76,,,,,,,,,,,,,,,,,,,,,,,,,,,,,,,,,,,,,,,,,,,,391.6215128656652,None,space,0.15716172328984612,391.6215128656652,None,391.888372021582,None,2,1,0.6275499412322461,391.888372021582,None,392.57263482540753,None,None,392.57263482540753,None,,,001,2021_Jan_06_1300,searchDisc3,2020.2.2,59.949834347834084,
Images/exp1b_trial_67_colour2_distractors43_l.png,l,1,1b,67,2,43,,,,,0,217,217,181,,,,,,,,,,,,,,,,,,,,,,,,,,,,,,,,,,,,,,,,,,,,392.5727845843055,None,space,0.19703086985282425,392.5727845843055,None,392.8727471765808,None,1,1,1.131288633715485,392.8727471765808,None,394.05733461801725,None,None,394.05733461801725,None,,,001,2021_Jan_06_1300,searchDisc3,2020.2.2,59.949834347834084,
Images/exp2b_trial_85_colour2_distractors19_r.png,r,2,2b,85,2,19,,,,,0,218,218,427,,,,,,,,,,,,,,,,,,,,,,,,,,,,,,,,,,,,,,,,,,,,394.0573570178524,None,space,0.2646322923064872,394.0573570178524,None,394.42417095810174,None,2,1,0.6758247859297626,394.42417095810174,None,395.1585501930704,None,None,395.1585501930704,None,,,001,2021_Jan_06_1300,searchDisc3,2020.2.2,59.949834347834084,
Images/exp2b_trial_84_colour2_distractors9_r.png,r,2,2b,84,2,9,,,,,0,219,219,426,,,,,,,,,,,,,,,,,,,,,,,,,,,,,,,,,,,,,,,,,,,,395.17504767164905,None,space,0.16298728041374488,395.17504767164905,None,395.44185530794516,None,2,1,0.6902553997201721,395.44185530794516,None,396.19283762071524,None,None,396.19283762071524,None,,,001,2021_Jan_06_1300,searchDisc3,2020.2.2,59.949834347834084,
Images/exp2c_trial_8_colour2_distractors9_r.png,r,2,2c,8,2,9,,,,,0,220,220,464,,,,,,,,,,,,,,,,,,,,,,,,,,,,,,,,,,,,,,,,,,,,396.1928126608989,None,space,0.1698960295652796,396.1928126608989,None,396.4762480148145,None,2,1,0.7916687333181471,396.4762480148145,None,397.3272478314562,None,None,397.3272478314562,None,,,001,2021_Jan_06_1300,searchDisc3,2020.2.2,59.949834347834084,
Images/exp1a_trial_81_colour1_distractors43_r.png,r,2,1a,81,1,43,,,,,0,221,221,81,,,,,,,,,,,,,,,,,,,,,,,,,,,,,,,,,,,,,,,,,,,,397.3272814312088,None,space,0.18693942412619435,397.3272814312088,None,397.64411269933066,None,2,1,0.7598331276280987,397.64411269933066,None,398.46166796212407,None,None,398.46166796212407,None,,,001,2021_Jan_06_1300,searchDisc3,2020.2.2,59.949834347834084,
Images/exp1b_trial_21_colour1_distractors19_l.png,l,1,1b,21,1,19,,,,,0,222,222,135,,,,,,,,,,,,,,,,,,,,,,,,,,,,,,,,,,,,,,,,,,,,398.4617588414551,None,space,0.17281856805539064,398.4617588414551,None,398.7451356358017,None,1,1,1.5469127747219318,398.7451356358017,None,400.3470096060092,None,None,400.3470096060092,None,,,001,2021_Jan_06_1300,searchDisc3,2020.2.2,59.949834347834084,
Images/exp2a_trial_91_colour3_distractors19_r.png,r,2,2a,91,3,19,,,,,0,223,223,319,,,,,,,,,,,,,,,,,,,,,,,,,,,,,,,,,,,,,,,,,,,,400.36350804458084,None,space,0.5665545501583438,400.36350804458084,None,401.0473372515978,None,2,1,0.5966772084557306,401.0473372515978,None,401.69825470084567,None,None,401.69825470084567,None,,,001,2021_Jan_06_1300,searchDisc3,2020.2.2,59.949834347834084,
Images/exp2a_trial_87_colour2_distractors43_r.png,r,2,2a,87,2,43,,,,,0,224,224,315,,,,,,,,,,,,,,,,,,,,,,,,,,,,,,,,,,,,,,,,,,,,401.71495665791895,None,space,0.19080659566361646,401.71495665791895,None,402.0317040866578,None,2,1,0.6842272840872283,402.0317040866578,None,402.76594188266796,None,None,402.76594188266796,None,,,001,2021_Jan_06_1300,searchDisc3,2020.2.2,59.949834347834084,
Images/exp2b_trial_103_colour2_distractors19_l.png,l,1,2b,103,2,19,,,,,0,225,225,445,,,,,,,,,,,,,,,,,,,,,,,,,,,,,,,,,,,,,,,,,,,,402.7660830016291,None,space,0.19656751326328958,402.7660830016291,None,403.066048793881,None,1,1,0.7458469905659513,403.066048793881,None,403.85042702085707,None,None,403.85042702085707,None,,,001,2021_Jan_06_1300,searchDisc3,2020.2.2,59.949834347834084,
Images/exp2b_trial_48_colour2_distractors31_r.png,r,2,2b,48,2,31,,,,,0,226,226,390,,,,,,,,,,,,,,,,,,,,,,,,,,,,,,,,,,,,,,,,,,,,403.8670979381593,None,space,0.2232469969021622,403.8670979381593,None,404.20043660478655,None,2,1,0.6435799032519753,404.20043660478655,None,404.90136072598494,None,None,404.90136072598494,None,,,001,2021_Jan_06_1300,searchDisc3,2020.2.2,59.949834347834084,
Images/exp1b_trial_40_colour1_distractors9_r.png,r,2,1b,40,1,9,,,,,0,227,227,154,,,,,,,,,,,,,,,,,,,,,,,,,,,,,,,,,,,,,,,,,,,,404.9181481224298,None,space,0.12464900258328271,404.9181481224298,None,405.1514356854334,None,2,1,1.4764604932511247,405.1514356854334,None,406.6863920681545,None,None,406.6863920681545,None,,,001,2021_Jan_06_1300,searchDisc3,2020.2.2,59.949834347834084,
Images/exp2b_trial_41_colour1_distractors19_r.png,r,2,2b,41,1,19,,,,,0,228,228,383,,,,,,,,,,,,,,,,,,,,,,,,,,,,,,,,,,,,,,,,,,,,406.6863386285479,None,space,0.21177860130956105,406.6863386285479,None,407.0032796558619,None,2,1,0.6008336578643139,407.0032796558619,None,407.6541004658207,None,None,407.6541004658207,None,,,001,2021_Jan_06_1300,searchDisc3,2020.2.2,59.949834347834084,
Images/exp1a_trial_78_colour1_distractors9_r.png,r,2,1a,78,1,9,,,,,0,229,229,78,,,,,,,,,,,,,,,,,,,,,,,,,,,,,,,,,,,,,,,,,,,,407.67078258304014,None,space,0.11532043124179836,407.67078258304014,None,407.8874392284472,None,2,1,0.5804562078424169,407.8874392284472,None,408.5215318415258,None,None,408.5215318415258,None,,,001,2021_Jan_06_1300,searchDisc3,2020.2.2,59.949834347834084,
Images/exp2c_trial_61_colour1_distractors43_l.png,l,1,2c,61,1,43,,,,,0,230,230,517,,,,,,,,,,,,,,,,,,,,,,,,,,,,,,,,,,,,,,,,,,,,408.5217785597099,None,space,0.24013391261451034,408.5217785597099,None,408.87170174427524,None,1,1,0.8522868471691254,408.87170174427524,None,409.7727936722386,None,None,409.7727936722386,None,,,001,2021_Jan_06_1300,searchDisc3,2020.2.2,59.949834347834084,
Images/exp1b_trial_7_colour2_distractors4_r.png,r,2,1b,7,2,4,,,,,0,231,231,121,,,,,,,,,,,,,,,,,,,,,,,,,,,,,,,,,,,,,,,,,,,,409.7729751109034,None,space,0.2131350713257234,409.7729751109034,None,410.0895999805441,None,2,1,0.7864620516393188,410.0895999805441,None,410.9405505175483,None,None,410.9405505175483,None,,,001,2021_Jan_06_1300,searchDisc3,2020.2.2,59.949834347834084,
Images/exp2b_trial_66_colour2_distractors31_l.png,l,1,2b,66,2,31,,,,,0,232,232,408,,,,,,,,,,,,,,,,,,,,,,,,,,,,,,,,,,,,,,,,,,,,410.94069803646266,None,space,0.18186202149581732,410.94069803646266,None,411.2240121112711,None,1,1,0.7159435306557498,411.2240121112711,None,411.99159878183315,None,None,411.99159878183315,None,,,001,2021_Jan_06_1300,searchDisc3,2020.2.2,59.949834347834084,
Images/exp2a_trial_58_colour1_distractors9_l.png,l,1,2a,58,1,9,,,,,0,233,233,286,,,,,,,,,,,,,,,,,,,,,,,,,,,,,,,,,,,,,,,,,,,,411.9917539806909,None,space,0.21096036733160872,411.9917539806909,None,412.3084697296629,None,1,1,0.6794298793961389,412.3084697296629,None,413.04265696604494,None,None,413.04265696604494,None,,,001,2021_Jan_06_1300,searchDisc3,2020.2.2,59.949834347834084,
Images/exp2a_trial_5_colour1_distractors43_r.png,r,2,2a,5,1,43,,,,,0,234,234,233,,,,,,,,,,,,,,,,,,,,,,,,,,,,,,,,,,,,,,,,,,,,413.05932180339164,None,space,0.20652295999116177,413.05932180339164,None,413.3761316316711,None,2,1,1.099769185698733,413.3761316316711,None,414.527494037644,None,None,414.527494037644,None,,,001,2021_Jan_06_1300,searchDisc3,2020.2.2,59.949834347834084,
Images/exp2a_trial_37_colour0_distractors0_l.png,l,1,2a,37,0,0,,,,,0,235,235,265,,,,,,,,,,,,,,,,,,,,,,,,,,,,,,,,,,,,,,,,,,,,414.5274793177525,None,space,0.18648470747257306,414.5274793177525,None,414.82774686778316,None,1,1,0.7921224899787376,414.82774686778316,None,415.6785441259154,None,None,415.6785441259154,None,,,001,2021_Jan_06_1300,searchDisc3,2020.2.2,59.949834347834084,
Images/exp1b_trial_39_colour1_distractors4_r.png,r,2,1b,39,1,4,,,,,0,236,236,153,,,,,,,,,,,,,,,,,,,,,,,,,,,,,,,,,,,,,,,,,,,,415.6952732827888,None,space,0.19500400477045332,415.6952732827888,None,415.9954761932952,None,2,1,0.7604705629369164,415.9954761932952,None,416.8131789750028,None,None,416.8131789750028,None,,,001,2021_Jan_06_1300,searchDisc3,2020.2.2,59.949834347834084,
