ImageFile,targ_side,correctAnswer,exp,trial,colour,distNo,n,breakMessage.started_mean,breakMessage.started_raw,breakMessage.stopped_raw,dispStimuli.started_mean,dispStimuli.started_raw,dispStimuli.started_std,dispStimuli.stopped_raw,fix2experiment.started_mean,fix2experiment.started_raw,fix2experiment.started_std,fix2experiment.stopped_raw,key_resp.keys_raw,key_resp.rt_mean,key_resp.rt_raw,key_resp.rt_std,key_resp.started_mean,key_resp.started_raw,key_resp.stopped_raw,key_resp_2.corr_mean,key_resp_2.corr_raw,key_resp_2.corr_std,key_resp_2.keys_raw,key_resp_2.rt_mean,key_resp_2.rt_raw,key_resp_2.rt_std,key_resp_2.started_mean,key_resp_2.started_raw,key_resp_2.started_std,key_resp_2.stopped_raw,key_resp_9.keys_raw,key_resp_9.rt_mean,key_resp_9.rt_raw,key_resp_9.rt_std,key_resp_9.started_mean,key_resp_9.started_raw,key_resp_9.started_std,key_resp_9.stopped_raw,order
Images/exp1a_trial_0_colour1_distractors1_r.png,r,2,1a,0,1,1,1.0,618.3949241333584,618.3949241333584,,617.5437622070312,617.5437622070312,0.0,,617.2103271484375,617.2103271484375,0.0,,,,,,618.3949241333584,618.3949241333584,,1.0,1.0,0.0,'2',0.7720451951026917,0.7720451951026917,0.0,617.5437622070312,617.5437622070312,0.0,,'space',0.2238665074110031,0.2238665074110031,0.0,617.2103271484375,617.2103271484375,0.0,,404.0
Images/exp1a_trial_1_colour1_distractors4_r.png,r,2,1a,1,1,4,1.0,298.4967121841983,298.4967121841983,,297.71240234375,297.71240234375,0.0,,297.3454895019531,297.3454895019531,0.0,,,,,,298.4967121841983,298.4967121841983,,1.0,1.0,0.0,'2',0.7236244082450867,0.7236244082450867,0.0,297.71240234375,297.71240234375,0.0,,'space',0.25698819756507874,0.25698819756507874,0.0,297.3454895019531,297.3454895019531,0.0,,135.0
Images/exp1a_trial_2_colour1_distractors9_r.png,r,2,1a,2,1,9,1.0,580.2906455408487,580.2906455408487,,579.556396484375,579.556396484375,0.0,,579.2396240234375,579.2396240234375,0.0,,,,,,580.2906455408487,580.2906455408487,,1.0,1.0,0.0,'2',0.6557039618492126,0.6557039618492126,0.0,579.556396484375,579.556396484375,0.0,,'space',0.21067461371421814,0.21067461371421814,0.0,579.2396240234375,579.2396240234375,0.0,,371.0
Images/exp1a_trial_3_colour1_distractors19_r.png,r,2,1a,3,1,19,1.0,467.0959714536503,467.0959714536503,,466.27825927734375,466.27825927734375,0.0,,465.9114074707031,465.9114074707031,0.0,,,,,,467.0959714536503,467.0959714536503,,1.0,1.0,0.0,'2',0.7577012777328491,0.7577012777328491,0.0,466.27825927734375,466.27825927734375,0.0,,'space',0.26711803674697876,0.26711803674697876,0.0,465.9114074707031,465.9114074707031,0.0,,276.0
Images/exp1a_trial_4_colour1_distractors31_r.png,r,2,1a,4,1,31,1.0,296.04429151401433,296.04429151401433,,295.2767333984375,295.2767333984375,0.0,,294.8763732910156,294.8763732910156,0.0,,,,,,296.04429151401433,296.04429151401433,,1.0,1.0,0.0,'2',0.711396336555481,0.711396336555481,0.0,295.2767333984375,295.2767333984375,0.0,,'space',0.2701980173587799,0.2701980173587799,0.0,294.8763732910156,294.8763732910156,0.0,,133.0
Images/exp1a_trial_5_colour1_distractors43_r.png,r,2,1a,5,1,43,1.0,784.6752753499736,784.6752753499736,,783.9910278320312,783.9910278320312,0.0,,783.7073364257812,783.7073364257812,0.0,,,,,,784.6752753499736,784.6752753499736,,1.0,1.0,0.0,'2',0.6286149024963379,0.6286149024963379,0.0,783.9910278320312,783.9910278320312,0.0,,'space',0.15013521909713745,0.15013521909713745,0.0,783.7073364257812,783.7073364257812,0.0,,533.0
Images/exp1a_trial_6_colour2_distractors1_r.png,r,2,1a,6,2,1,1.0,774.1815570637399,774.1815570637399,,773.0968627929688,773.0968627929688,0.0,,772.7802124023438,772.7802124023438,0.0,,,,,,774.1815570637399,774.1815570637399,,1.0,1.0,0.0,'2',1.0188443660736084,1.0188443660736084,0.0,773.0968627929688,773.0968627929688,0.0,,'space',0.20533129572868347,0.20533129572868347,0.0,772.7802124023438,772.7802124023438,0.0,,525.0
Images/exp1a_trial_7_colour2_distractors4_r.png,r,2,1a,7,2,4,1.0,179.87990488390014,179.87990488390014,,179.2459259033203,179.2459259033203,0.0,,178.59542846679688,178.59542846679688,0.0,,,,,,179.87990488390014,179.87990488390014,,1.0,1.0,0.0,'2',0.5822293162345886,0.5822293162345886,0.0,179.2459259033203,179.2459259033203,0.0,,'space',0.5267113447189331,0.5267113447189331,0.0,178.59542846679688,178.59542846679688,0.0,,56.0
Images/exp1a_trial_8_colour2_distractors9_r.png,r,2,1a,8,2,9,1.0,527.822300827866,527.822300827866,,527.0048217773438,527.0048217773438,0.0,,526.7213134765625,526.7213134765625,0.0,,,,,,527.822300827866,527.822300827866,,1.0,1.0,0.0,'2',0.7669463753700256,0.7669463753700256,0.0,527.0048217773438,527.0048217773438,0.0,,'space',0.1612183302640915,0.1612183302640915,0.0,526.7213134765625,526.7213134765625,0.0,,326.0
Images/exp1a_trial_9_colour2_distractors19_r.png,r,2,1a,9,2,19,1.0,355.01887282109607,355.01887282109607,,354.3847961425781,354.3847961425781,0.0,,354.05145263671875,354.05145263671875,0.0,,,,,,355.01887282109607,355.01887282109607,,1.0,1.0,0.0,'2',0.5713289380073547,0.5713289380073547,0.0,354.3847961425781,354.3847961425781,0.0,,'space',0.23067446053028107,0.23067446053028107,0.0,354.05145263671875,354.05145263671875,0.0,,182.0
Images/exp1a_trial_10_colour2_distractors31_r.png,r,2,1a,10,2,31,1.0,250.73303428486753,250.73303428486753,,250.01539611816406,250.01539611816406,0.0,,249.54856872558594,249.54856872558594,0.0,,,,,,250.73303428486753,250.73303428486753,,1.0,1.0,0.0,'2',0.6766369342803955,0.6766369342803955,0.0,250.01539611816406,250.01539611816406,0.0,,'space',0.3579004108905792,0.3579004108905792,0.0,249.54856872558594,249.54856872558594,0.0,,98.0
Images/exp1a_trial_11_colour2_distractors43_r.png,r,2,1a,11,2,43,1.0,262.3776884202135,262.3776884202135,,261.62689208984375,261.62689208984375,0.0,,261.20989990234375,261.20989990234375,0.0,,,,,,262.3776884202135,262.3776884202135,,1.0,1.0,0.0,'2',0.6893062591552734,0.6893062591552734,0.0,261.62689208984375,261.62689208984375,0.0,,'space',0.2970355749130249,0.2970355749130249,0.0,261.20989990234375,261.20989990234375,0.0,,107.0
Images/exp1a_trial_12_colour3_distractors1_r.png,r,2,1a,12,3,1,1.0,825.7488322485947,825.7488322485947,,824.8478393554688,824.8478393554688,0.0,,824.5643920898438,824.5643920898438,0.0,,,,,,825.7488322485947,825.7488322485947,,1.0,1.0,0.0,'2',0.8516702055931091,0.8516702055931091,0.0,824.8478393554688,824.8478393554688,0.0,,'space',0.1740771234035492,0.1740771234035492,0.0,824.5643920898438,824.5643920898438,0.0,,565.0
Images/exp1a_trial_13_colour3_distractors4_r.png,r,2,1a,13,3,4,1.0,637.5302671372341,637.5302671372341,,636.8963012695312,636.8963012695312,0.0,,635.3949584960938,635.3949584960938,0.0,,,,,,637.5302671372341,637.5302671372341,,1.0,1.0,0.0,'2',0.5553834438323975,0.5553834438323975,0.0,636.8963012695312,636.8963012695312,0.0,,'space',1.3768311738967896,1.3768311738967896,0.0,635.3949584960938,635.3949584960938,0.0,,420.0
Images/exp1a_trial_14_colour3_distractors9_r.png,r,2,1a,14,3,9,1.0,762.503413574876,762.503413574876,,761.7023315429688,761.7023315429688,0.0,,761.402099609375,761.402099609375,0.0,,,,,,762.503413574876,762.503413574876,,1.0,1.0,0.0,'2',0.7413593530654907,0.7413593530654907,0.0,761.7023315429688,761.7023315429688,0.0,,'space',0.19945965707302094,0.19945965707302094,0.0,761.402099609375,761.402099609375,0.0,,515.0
Images/exp1a_trial_15_colour3_distractors19_r.png,r,2,1a,15,3,19,1.0,619.3457315354158,619.3457315354158,,618.6615600585938,618.6615600585938,0.0,,618.3947143554688,618.3947143554688,0.0,,,,,,619.3457315354158,619.3457315354158,,1.0,1.0,0.0,'2',0.6225765347480774,0.6225765347480774,0.0,618.6615600585938,618.6615600585938,0.0,,'space',0.15912427008152008,0.15912427008152008,0.0,618.3947143554688,618.3947143554688,0.0,,405.0
Images/exp1a_trial_16_colour3_distractors31_r.png,r,2,1a,16,3,31,1.0,582.8765410686578,582.8765410686578,,581.90869140625,581.90869140625,0.0,,581.5918579101562,581.5918579101562,0.0,,,,,,582.8765410686578,582.8765410686578,,1.0,1.0,0.0,'2',0.9031837582588196,0.9031837582588196,0.0,581.90869140625,581.90869140625,0.0,,'space',0.2100464552640915,0.2100464552640915,0.0,581.5918579101562,581.5918579101562,0.0,,373.0
Images/exp1a_trial_17_colour3_distractors43_r.png,r,2,1a,17,3,43,1.0,324.5222950359085,324.5222950359085,,323.78802490234375,323.78802490234375,0.0,,323.4711608886719,323.4711608886719,0.0,,,,,,324.5222950359085,324.5222950359085,,1.0,1.0,0.0,'2',0.6722331047058105,0.6722331047058105,0.0,323.78802490234375,323.78802490234375,0.0,,'space',0.21177156269550323,0.21177156269550323,0.0,323.4711608886719,323.4711608886719,0.0,,157.0
Images/exp1a_trial_18_colour1_distractors1_l.png,l,1,1a,18,1,1,1.0,428.2743618206969,428.2743618206969,,427.5235595703125,427.5235595703125,0.0,,427.2066345214844,427.2066345214844,0.0,,,,,,428.2743618206969,428.2743618206969,,1.0,1.0,0.0,'1',0.6964560151100159,0.6964560151100159,0.0,427.5235595703125,427.5235595703125,0.0,,'space',0.2123088389635086,0.2123088389635086,0.0,427.2066345214844,427.2066345214844,0.0,,244.0
Images/exp1a_trial_19_colour1_distractors4_l.png,l,1,1a,19,1,4,1.0,645.1377890658723,645.1377890658723,,644.4869384765625,644.4869384765625,0.0,,644.2369995117188,644.2369995117188,0.0,,,,,,645.1377890658723,645.1377890658723,,1.0,1.0,0.0,'1',0.5968794226646423,0.5968794226646423,0.0,644.4869384765625,644.4869384765625,0.0,,'space',0.1408396065235138,0.1408396065235138,0.0,644.2369995117188,644.2369995117188,0.0,,427.0
Images/exp1a_trial_20_colour1_distractors9_l.png,l,1,1a,20,1,9,1.0,217.21668032523266,217.21668032523266,,216.4490509033203,216.4490509033203,0.0,,215.8318634033203,215.8318634033203,0.0,,,,,,217.21668032523266,217.21668032523266,,1.0,1.0,0.0,'1',0.7070783376693726,0.7070783376693726,0.0,216.4490509033203,216.4490509033203,0.0,,'space',0.5065709948539734,0.5065709948539734,0.0,215.8318634033203,215.8318634033203,0.0,,77.0
Images/exp1a_trial_21_colour1_distractors19_l.png,l,1,1a,21,1,19,1.0,464.7270029692582,464.7270029692582,,463.8592224121094,463.8592224121094,0.0,,463.54248046875,463.54248046875,0.0,,,,,,464.7270029692582,464.7270029692582,,1.0,1.0,0.0,'1',0.8167072534561157,0.8167072534561157,0.0,463.8592224121094,463.8592224121094,0.0,,'space',0.2114810049533844,0.2114810049533844,0.0,463.54248046875,463.54248046875,0.0,,274.0
Images/exp1a_trial_22_colour1_distractors31_l.png,l,1,1a,22,1,31,1.0,639.9325867361616,639.9325867361616,,639.1652221679688,639.1652221679688,0.0,,638.7649536132812,638.7649536132812,0.0,,,,,,639.9325867361616,639.9325867361616,,1.0,1.0,0.0,'1',0.6944438219070435,0.6944438219070435,0.0,639.1652221679688,639.1652221679688,0.0,,'space',0.2770325243473053,0.2770325243473053,0.0,638.7649536132812,638.7649536132812,0.0,,422.0
Images/exp1a_trial_23_colour1_distractors43_l.png,l,1,1a,23,1,43,1.0,585.2955789445391,585.2955789445391,,584.4445190429688,584.4445190429688,0.0,,584.14453125,584.14453125,0.0,,,,,,585.2955789445391,585.2955789445391,,1.0,1.0,0.0,'1',0.7912988066673279,0.7912988066673279,0.0,584.4445190429688,584.4445190429688,0.0,,'space',0.17055682837963104,0.17055682837963104,0.0,584.14453125,584.14453125,0.0,,375.0
Images/exp1a_trial_24_colour2_distractors1_l.png,l,1,1a,24,2,1,1.0,663.756080835245,663.756080835245,,662.9050903320312,662.9050903320312,0.0,,662.6216430664062,662.6216430664062,0.0,,,,,,663.756080835245,663.756080835245,,1.0,1.0,0.0,'1',0.7866114974021912,0.7866114974021912,0.0,662.9050903320312,662.9050903320312,0.0,,'space',0.1724153757095337,0.1724153757095337,0.0,662.6216430664062,662.6216430664062,0.0,,442.0
Images/exp1a_trial_25_colour2_distractors4_l.png,l,1,1a,25,2,4,1.0,520.1480283505114,520.1480283505114,,519.16357421875,519.16357421875,0.0,,518.863525390625,518.863525390625,0.0,,,,,,520.1480283505114,520.1480283505114,,1.0,1.0,0.0,'1',0.9440464973449707,0.9440464973449707,0.0,519.16357421875,519.16357421875,0.0,,'space',0.18706998229026794,0.18706998229026794,0.0,518.863525390625,518.863525390625,0.0,,320.0
Images/exp1a_trial_26_colour2_distractors9_l.png,l,1,1a,26,2,9,1.0,531.2089530221056,531.2089530221056,,530.391357421875,530.391357421875,0.0,,530.074462890625,530.074462890625,0.0,,,,,,531.2089530221056,531.2089530221056,,1.0,1.0,0.0,'1',0.764411985874176,0.764411985874176,0.0,530.391357421875,530.391357421875,0.0,,'space',0.20832262933254242,0.20832262933254242,0.0,530.074462890625,530.074462890625,0.0,,329.0
Images/exp1a_trial_27_colour2_distractors19_l.png,l,1,1a,27,2,19,1.0,206.25584835695608,206.25584835695608,,205.40489196777344,205.40489196777344,0.0,,204.87115478515625,204.87115478515625,0.0,,,,,,206.25584835695608,206.25584835695608,,1.0,1.0,0.0,'1',0.7754634022712708,0.7754634022712708,0.0,205.40489196777344,205.40489196777344,0.0,,'space',0.41900235414505005,0.41900235414505005,0.0,204.87115478515625,204.87115478515625,0.0,,69.0
Images/exp1a_trial_28_colour2_distractors31_l.png,l,1,1a,28,2,31,1.0,821.2445687599738,821.2445687599738,,820.3767700195312,820.3767700195312,0.0,,820.06005859375,820.06005859375,0.0,,,,,,821.2445687599738,821.2445687599738,,1.0,1.0,0.0,'1',0.8108711242675781,0.8108711242675781,0.0,820.3767700195312,820.3767700195312,0.0,,'space',0.18947188556194305,0.18947188556194305,0.0,820.06005859375,820.06005859375,0.0,,562.0
Images/exp1a_trial_29_colour2_distractors43_l.png,l,1,1a,29,2,43,1.0,197.54723085238092,197.54723085238092,,196.69630432128906,196.69630432128906,0.0,,196.02914428710938,196.02914428710938,0.0,,,,,,197.54723085238092,197.54723085238092,,1.0,1.0,0.0,'1',0.7878099083900452,0.7878099083900452,0.0,196.69630432128906,196.69630432128906,0.0,,'space',0.557395875453949,0.557395875453949,0.0,196.02914428710938,196.02914428710938,0.0,,63.0
Images/exp1a_trial_30_colour3_distractors1_l.png,l,1,1a,30,3,1,1.0,661.5539111232142,661.5539111232142,,660.919921875,660.919921875,0.0,,660.61962890625,660.61962890625,0.0,,,,,,661.5539111232142,661.5539111232142,,1.0,1.0,0.0,'1',0.5797093510627747,0.5797093510627747,0.0,660.919921875,660.919921875,0.0,,'space',0.1820930540561676,0.1820930540561676,0.0,660.61962890625,660.61962890625,0.0,,440.0
Images/exp1a_trial_31_colour3_distractors4_l.png,l,1,1a,31,3,4,1.0,630.8737094094986,630.8737094094986,,630.0728149414062,630.0728149414062,0.0,,629.7728271484375,629.7728271484375,0.0,,,,,,630.8737094094986,630.8737094094986,,1.0,1.0,0.0,'1',0.7389286160469055,0.7389286160469055,0.0,630.0728149414062,630.0728149414062,0.0,,'space',0.1973140686750412,0.1973140686750412,0.0,629.7728271484375,629.7728271484375,0.0,,416.0
Images/exp1a_trial_32_colour3_distractors9_l.png,l,1,1a,32,3,9,1.0,420.0162597203285,420.0162597203285,,418.881591796875,418.881591796875,0.0,,418.53143310546875,418.53143310546875,0.0,,,,,,420.0162597203285,420.0162597203285,,1.0,1.0,0.0,'1',1.0742896795272827,1.0742896795272827,0.0,418.881591796875,418.881591796875,0.0,,'space',0.24660778045654297,0.24660778045654297,0.0,418.53143310546875,418.53143310546875,0.0,,238.0
Images/exp1a_trial_33_colour3_distractors19_l.png,l,1,1a,33,3,19,1.0,366.213229470631,366.213229470631,,365.46234130859375,365.46234130859375,0.0,,365.1123046875,365.1123046875,0.0,,,,,,366.213229470631,366.213229470631,,1.0,1.0,0.0,'1',0.6776810884475708,0.6776810884475708,0.0,365.46234130859375,365.46234130859375,0.0,,'space',0.24262669682502747,0.24262669682502747,0.0,365.1123046875,365.1123046875,0.0,,192.0
Images/exp1a_trial_34_colour3_distractors31_l.png,l,1,1a,34,3,31,1.0,192.892780309137,192.892780309137,,191.94163513183594,191.94163513183594,0.0,,190.74066162109375,190.74066162109375,0.0,,,,,,192.892780309137,192.892780309137,,1.0,1.0,0.0,'1',0.8945255875587463,0.8945255875587463,0.0,191.94163513183594,191.94163513183594,0.0,,'space',1.0955259799957275,1.0955259799957275,0.0,190.74066162109375,190.74066162109375,0.0,,60.0
Images/exp1a_trial_35_colour3_distractors43_l.png,l,1,1a,35,3,43,1.0,809.132538224519,809.132538224519,,808.2648315429688,808.2648315429688,0.0,,808.0482788085938,808.0482788085938,0.0,,,,,,809.132538224519,809.132538224519,,1.0,1.0,0.0,'1',0.8027886748313904,0.8027886748313904,0.0,808.2648315429688,808.2648315429688,0.0,,'space',0.09787896275520325,0.09787896275520325,0.0,808.0482788085938,808.0482788085938,0.0,,552.0
Images/exp1a_trial_36_colour0_distractors0_r.png,r,2,1a,36,0,0,1.0,359.6234680512753,359.6234680512753,,358.8558044433594,358.8558044433594,0.0,,358.5892333984375,358.5892333984375,0.0,,,,,,359.6234680512753,359.6234680512753,,1.0,1.0,0.0,'2',0.7081282138824463,0.7081282138824463,0.0,358.8558044433594,358.8558044433594,0.0,,'space',0.16565126180648804,0.16565126180648804,0.0,358.5892333984375,358.5892333984375,0.0,,186.0
Images/exp1a_trial_37_colour0_distractors0_l.png,l,1,1a,37,0,0,1.0,175.6756958268787,175.6756958268787,,174.94158935546875,174.94158935546875,0.0,,174.30787658691406,174.30787658691406,0.0,,,,,,175.6756958268787,175.6756958268787,,1.0,1.0,0.0,'1',0.6707637310028076,0.6707637310028076,0.0,174.94158935546875,174.94158935546875,0.0,,'space',0.5264895558357239,0.5264895558357239,0.0,174.30787658691406,174.30787658691406,0.0,,53.0
Images/exp1a_trial_38_colour1_distractors1_r.png,r,2,1a,38,1,1,1.0,387.41743852765245,387.41743852765245,,386.6332092285156,386.6332092285156,0.0,,386.283203125,386.283203125,0.0,,,,,,387.41743852765245,387.41743852765245,,1.0,1.0,0.0,'2',0.7226794958114624,0.7226794958114624,0.0,386.6332092285156,386.6332092285156,0.0,,'space',0.23889264464378357,0.23889264464378357,0.0,386.283203125,386.283203125,0.0,,211.0
Images/exp1a_trial_39_colour1_distractors4_r.png,r,2,1a,39,1,4,1.0,614.5576880554158,614.5576880554158,,613.8234252929688,613.8234252929688,0.0,,613.5399780273438,613.5399780273438,0.0,,,,,,614.5576880554158,614.5576880554158,,1.0,1.0,0.0,'2',0.6845517754554749,0.6845517754554749,0.0,613.8234252929688,613.8234252929688,0.0,,'space',0.18202842772006989,0.18202842772006989,0.0,613.5399780273438,613.5399780273438,0.0,,401.0
Images/exp1a_trial_40_colour1_distractors9_r.png,r,2,1a,40,1,9,1.0,335.46637864745304,335.46637864745304,,334.5820617675781,334.5820617675781,0.0,,334.1985778808594,334.1985778808594,0.0,,,,,,335.46637864745304,335.46637864745304,,1.0,1.0,0.0,'2',0.8221091628074646,0.8221091628074646,0.0,334.5820617675781,334.5820617675781,0.0,,'space',0.27541300654411316,0.27541300654411316,0.0,334.1985778808594,334.1985778808594,0.0,,167.0
Images/exp1a_trial_41_colour1_distractors19_r.png,r,2,1a,41,1,19,1.0,642.1015442126345,642.1015442126345,,641.4840087890625,641.4840087890625,0.0,,641.0839233398438,641.0839233398438,0.0,,,,,,642.1015442126345,642.1015442126345,,1.0,1.0,0.0,'2',0.5681126117706299,0.5681126117706299,0.0,641.4840087890625,641.4840087890625,0.0,,'space',0.294093519449234,0.294093519449234,0.0,641.0839233398438,641.0839233398438,0.0,,424.0
Images/exp1a_trial_42_colour1_distractors31_r.png,r,2,1a,42,1,31,1.0,720.8124253805494,720.8124253805494,,719.644287109375,719.644287109375,0.0,,719.32763671875,719.32763671875,0.0,,,,,,720.8124253805494,720.8124253805494,,1.0,1.0,0.0,'2',1.0954923629760742,1.0954923629760742,0.0,719.644287109375,719.644287109375,0.0,,'space',0.18613174557685852,0.18613174557685852,0.0,719.32763671875,719.32763671875,0.0,,482.0
Images/exp1a_trial_43_colour1_distractors43_r.png,r,2,1a,43,1,43,1.0,543.2708892062554,543.2708892062554,,542.3530883789062,542.3530883789062,0.0,,541.9864501953125,541.9864501953125,0.0,,,,,,543.2708892062554,543.2708892062554,,1.0,1.0,0.0,'2',0.8427112102508545,0.8427112102508545,0.0,542.3530883789062,542.3530883789062,0.0,,'space',0.23938480019569397,0.23938480019569397,0.0,541.9864501953125,541.9864501953125,0.0,,339.0
Images/exp1a_trial_44_colour2_distractors1_r.png,r,2,1a,44,2,1,1.0,266.0646516841635,266.0646516841635,,265.197021484375,265.197021484375,0.0,,264.7802429199219,264.7802429199219,0.0,,,,,,266.0646516841635,266.0646516841635,,1.0,1.0,0.0,'2',0.8070449233055115,0.8070449233055115,0.0,265.197021484375,265.197021484375,0.0,,'space',0.30215778946876526,0.30215778946876526,0.0,264.7802429199219,264.7802429199219,0.0,,110.0
Images/exp1a_trial_45_colour2_distractors4_r.png,r,2,1a,45,2,4,1.0,323.45447889503527,323.45447889503527,,322.73699951171875,322.73699951171875,0.0,,322.4202880859375,322.4202880859375,0.0,,,,,,323.45447889503527,323.45447889503527,,1.0,1.0,0.0,'2',0.6589714884757996,0.6589714884757996,0.0,322.73699951171875,322.73699951171875,0.0,,'space',0.2145356982946396,0.2145356982946396,0.0,322.4202880859375,322.4202880859375,0.0,,156.0
Images/exp1a_trial_46_colour2_distractors9_r.png,r,2,1a,46,2,9,1.0,242.79179001242537,242.79179001242537,,242.1578369140625,242.1578369140625,0.0,,241.50743103027344,241.50743103027344,0.0,,,,,,242.79179001242537,242.79179001242537,,1.0,1.0,0.0,'2',0.5823588967323303,0.5823588967323303,0.0,242.1578369140625,242.1578369140625,0.0,,'space',0.5352312326431274,0.5352312326431274,0.0,241.50743103027344,241.50743103027344,0.0,,92.0
Images/exp1a_trial_47_colour2_distractors19_r.png,r,2,1a,47,2,19,1.0,629.7727258327377,629.7727258327377,,628.921630859375,628.921630859375,0.0,,628.60498046875,628.60498046875,0.0,,,,,,629.7727258327377,629.7727258327377,,1.0,1.0,0.0,'2',0.7941074371337891,0.7941074371337891,0.0,628.921630859375,628.921630859375,0.0,,'space',0.20485864579677582,0.20485864579677582,0.0,628.60498046875,628.60498046875,0.0,,415.0
Images/exp1a_trial_48_colour2_distractors31_r.png,r,2,1a,48,2,31,1.0,316.63134063333297,316.63134063333297,,315.94696044921875,315.94696044921875,0.0,,315.61346435546875,315.61346435546875,0.0,,,,,,316.63134063333297,316.63134063333297,,1.0,1.0,0.0,'2',0.6251784563064575,0.6251784563064575,0.0,315.94696044921875,315.94696044921875,0.0,,'space',0.22942934930324554,0.22942934930324554,0.0,315.61346435546875,315.61346435546875,0.0,,150.0
Images/exp1a_trial_49_colour2_distractors43_r.png,r,2,1a,49,2,43,1.0,603.5969450464845,603.5969450464845,,602.7792358398438,602.7792358398438,0.0,,602.479248046875,602.479248046875,0.0,,,,,,603.5969450464845,603.5969450464845,,1.0,1.0,0.0,'2',0.7606465816497803,0.7606465816497803,0.0,602.7792358398438,602.7792358398438,0.0,,'space',0.18778805434703827,0.18778805434703827,0.0,602.479248046875,602.479248046875,0.0,,391.0
Images/exp1a_trial_50_colour3_distractors1_r.png,r,2,1a,50,3,1,1.0,726.1507825702402,726.1507825702402,,724.4324340820312,724.4324340820312,0.0,,724.1656494140625,724.1656494140625,0.0,,,,,,726.1507825702402,726.1507825702402,,1.0,1.0,0.0,'2',1.659163475036621,1.659163475036621,0.0,724.4324340820312,724.4324340820312,0.0,,'space',0.14809074997901917,0.14809074997901917,0.0,724.1656494140625,724.1656494140625,0.0,,486.0
Images/exp1a_trial_51_colour3_distractors4_r.png,r,2,1a,51,3,4,1.0,769.9107302570251,769.9107302570251,,769.2264404296875,769.2264404296875,0.0,,768.9765625,768.9765625,0.0,,,,,,769.9107302570251,769.9107302570251,,1.0,1.0,0.0,'2',0.6333706974983215,0.6333706974983215,0.0,769.2264404296875,769.2264404296875,0.0,,'space',0.14523988962173462,0.14523988962173462,0.0,768.9765625,768.9765625,0.0,,522.0
Images/exp1a_trial_52_colour3_distractors9_r.png,r,2,1a,52,3,9,1.0,236.01853682356895,236.01853682356895,,235.26766967773438,235.26766967773438,0.0,,234.6672821044922,234.6672821044922,0.0,,,,,,236.01853682356895,236.01853682356895,,1.0,1.0,0.0,'2',0.6965430378913879,0.6965430378913879,0.0,235.26766967773438,235.26766967773438,0.0,,'space',0.49543890357017517,0.49543890357017517,0.0,234.6672821044922,234.6672821044922,0.0,,87.0
Images/exp1a_trial_53_colour3_distractors19_r.png,r,2,1a,53,3,19,1.0,761.4021541601454,761.4021541601454,,760.3510131835938,760.3510131835938,0.0,,760.0510864257812,760.0510864257812,0.0,,,,,,761.4021541601454,761.4021541601454,,1.0,1.0,0.0,'2',0.9726104140281677,0.9726104140281677,0.0,760.3510131835938,760.3510131835938,0.0,,'space',0.17457792162895203,0.17457792162895203,0.0,760.0510864257812,760.0510864257812,0.0,,514.0
Images/exp1a_trial_54_colour3_distractors31_r.png,r,2,1a,54,3,31,1.0,693.2518192666103,693.2518192666103,,692.3173828125,692.3173828125,0.0,,692.0507202148438,692.0507202148438,0.0,,,,,,693.2518192666103,693.2518192666103,,1.0,1.0,0.0,'2',0.8703481554985046,0.8703481554985046,0.0,692.3173828125,692.3173828125,0.0,,'space',0.15906891226768494,0.15906891226768494,0.0,692.0507202148438,692.0507202148438,0.0,,468.0
Images/exp1a_trial_55_colour3_distractors43_r.png,r,2,1a,55,3,43,1.0,313.3278855867621,313.3278855867621,,312.6603698730469,312.6603698730469,0.0,,312.2769775390625,312.2769775390625,0.0,,,,,,313.3278855867621,313.3278855867621,,1.0,1.0,0.0,'2',0.6157260537147522,0.6157260537147522,0.0,312.6603698730469,312.6603698730469,0.0,,'space',0.2615334391593933,0.2615334391593933,0.0,312.2769775390625,312.2769775390625,0.0,,147.0
Images/exp1a_trial_56_colour1_distractors1_l.png,l,1,1a,56,1,1,1.0,710.7356957052798,710.7356957052798,,708.9671020507812,708.9671020507812,0.0,,708.7337036132812,708.7337036132812,0.0,,,,,,710.7356957052798,710.7356957052798,,1.0,1.0,0.0,'1',1.716628909111023,1.716628909111023,0.0,708.9671020507812,708.9671020507812,0.0,,'space',0.1330735832452774,0.1330735832452774,0.0,708.7337036132812,708.7337036132812,0.0,,476.0
Images/exp1a_trial_57_colour1_distractors4_l.png,l,1,1a,57,1,4,1.0,240.12245573872573,240.12245573872573,,239.2381591796875,239.2381591796875,0.0,,238.65463256835938,238.65463256835938,0.0,,,,,,240.12245573872573,240.12245573872573,,1.0,1.0,0.0,'1',0.805980920791626,0.805980920791626,0.0,239.2381591796875,239.2381591796875,0.0,,'space',0.4675203859806061,0.4675203859806061,0.0,238.65463256835938,238.65463256835938,0.0,,90.0
Images/exp1a_trial_58_colour1_distractors9_l.png,l,1,1a,58,1,9,1.0,310.6253045177589,310.6253045177589,,309.9244689941406,309.9244689941406,0.0,,309.52423095703125,309.52423095703125,0.0,,,,,,310.6253045177589,310.6253045177589,,1.0,1.0,0.0,'1',0.655491828918457,0.655491828918457,0.0,309.9244689941406,309.9244689941406,0.0,,'space',0.28586286306381226,0.28586286306381226,0.0,309.52423095703125,309.52423095703125,0.0,,145.0
Images/exp1a_trial_59_colour1_distractors19_l.png,l,1,1a,59,1,19,1.0,135.01905297977018,135.01905297977018,,134.40162658691406,134.40162658691406,0.0,,133.50091552734375,133.50091552734375,0.0,,,,,,135.01905297977018,135.01905297977018,,1.0,1.0,0.0,'1',0.5625392198562622,0.5625392198562622,0.0,134.40162658691406,134.40162658691406,0.0,,'space',0.7901711463928223,0.7901711463928223,0.0,133.50091552734375,133.50091552734375,0.0,,26.0
Images/exp1a_trial_60_colour1_distractors31_l.png,l,1,1a,60,1,31,1.0,612.4224304909116,612.4224304909116,,611.7547607421875,611.7547607421875,0.0,,611.4379272460938,611.4379272460938,0.0,,,,,,612.4224304909116,612.4224304909116,,1.0,1.0,0.0,'1',0.5930171012878418,0.5930171012878418,0.0,611.7547607421875,611.7547607421875,0.0,,'space',0.1878754198551178,0.1878754198551178,0.0,611.4379272460938,611.4379272460938,0.0,,399.0
Images/exp1a_trial_61_colour1_distractors43_l.png,l,1,1a,61,1,43,1.0,321.1523201589237,321.1523201589237,,320.3846740722656,320.3846740722656,0.0,,319.93450927734375,319.93450927734375,0.0,,,,,,321.1523201589237,321.1523201589237,,1.0,1.0,0.0,'1',0.6913430690765381,0.6913430690765381,0.0,320.3846740722656,320.3846740722656,0.0,,'space',0.3241064250469208,0.3241064250469208,0.0,319.93450927734375,319.93450927734375,0.0,,154.0
Images/exp1a_trial_62_colour2_distractors1_l.png,l,1,1a,62,2,1,1.0,492.6377953058264,492.6377953058264,,491.75347900390625,491.75347900390625,0.0,,491.3863830566406,491.3863830566406,0.0,,,,,,492.6377953058264,492.6377953058264,,1.0,1.0,0.0,'1',0.8263638615608215,0.8263638615608215,0.0,491.75347900390625,491.75347900390625,0.0,,'space',0.2561875581741333,0.2561875581741333,0.0,491.3863830566406,491.3863830566406,0.0,,297.0
Images/exp1a_trial_63_colour2_distractors4_l.png,l,1,1a,63,2,4,1.0,200.43353504918204,200.43353504918204,,199.66595458984375,199.66595458984375,0.0,,198.99884033203125,198.99884033203125,0.0,,,,,,200.43353504918204,200.43353504918204,,1.0,1.0,0.0,'1',0.7062181830406189,0.7062181830406189,0.0,199.66595458984375,199.66595458984375,0.0,,'space',0.55516517162323,0.55516517162323,0.0,198.99884033203125,198.99884033203125,0.0,,65.0
Images/exp1a_trial_64_colour2_distractors9_l.png,l,1,1a,64,2,9,1.0,633.2594947301186,633.2594947301186,,632.308349609375,632.308349609375,0.0,,631.9583129882812,631.9583129882812,0.0,,,,,,633.2594947301186,633.2594947301186,,1.0,1.0,0.0,'1',0.8873668909072876,0.8873668909072876,0.0,632.308349609375,632.308349609375,0.0,,'space',0.22795255482196808,0.22795255482196808,0.0,631.9583129882812,631.9583129882812,0.0,,418.0
Images/exp1a_trial_65_colour2_distractors19_l.png,l,1,1a,65,2,19,1.0,488.5503847491685,488.5503847491685,,487.7159729003906,487.7159729003906,0.0,,487.36578369140625,487.36578369140625,0.0,,,,,,488.5503847491685,488.5503847491685,,1.0,1.0,0.0,'1',0.7598523497581482,0.7598523497581482,0.0,487.7159729003906,487.7159729003906,0.0,,'space',0.23664690554141998,0.23664690554141998,0.0,487.36578369140625,487.36578369140625,0.0,,294.0
Images/exp1a_trial_66_colour2_distractors31_l.png,l,1,1a,66,2,31,1.0,526.7212830113572,526.7212830113572,,526.0704956054688,526.0704956054688,0.0,,525.7535400390625,525.7535400390625,0.0,,,,,,526.7212830113572,526.7212830113572,,1.0,1.0,0.0,'1',0.5893275141716003,0.5893275141716003,0.0,526.0704956054688,526.0704956054688,0.0,,'space',0.18443703651428223,0.18443703651428223,0.0,525.7535400390625,525.7535400390625,0.0,,325.0
Images/exp1a_trial_67_colour2_distractors43_l.png,l,1,1a,67,2,43,1.0,617.2103120521033,617.2103120521033,,616.0422973632812,616.0422973632812,0.0,,615.708740234375,615.708740234375,0.0,,,,,,617.2103120521033,617.2103120521033,,1.0,1.0,0.0,'1',1.1136103868484497,1.1136103868484497,0.0,616.0422973632812,616.0422973632812,0.0,,'space',0.221163809299469,0.221163809299469,0.0,615.708740234375,615.708740234375,0.0,,403.0
Images/exp1a_trial_68_colour3_distractors1_l.png,l,1,1a,68,3,1,1.0,360.60780000659184,360.60780000659184,,359.9569396972656,359.9569396972656,0.0,,359.6402587890625,359.6402587890625,0.0,,,,,,360.60780000659184,360.60780000659184,,1.0,1.0,0.0,'1',0.5910890698432922,0.5910890698432922,0.0,359.9569396972656,359.9569396972656,0.0,,'space',0.20991557836532593,0.20991557836532593,0.0,359.6402587890625,359.6402587890625,0.0,,187.0
Images/exp1a_trial_69_colour3_distractors4_l.png,l,1,1a,69,3,4,1.0,707.582491712861,707.582491712861,,706.464599609375,706.464599609375,0.0,,706.2312622070312,706.2312622070312,0.0,,,,,,707.582491712861,707.582491712861,,1.0,1.0,0.0,'1',1.043023705482483,1.043023705482483,0.0,706.464599609375,706.464599609375,0.0,,'space',0.12235622107982635,0.12235622107982635,0.0,706.2312622070312,706.2312622070312,0.0,,474.0
Images/exp1a_trial_70_colour3_distractors9_l.png,l,1,1a,70,3,9,1.0,459.6385626601787,459.6385626601787,,458.8709411621094,458.8709411621094,0.0,,458.5710754394531,458.5710754394531,0.0,,,,,,459.6385626601787,459.6385626601787,,1.0,1.0,0.0,'1',0.7170138955116272,0.7170138955116272,0.0,458.8709411621094,458.8709411621094,0.0,,'space',0.19961869716644287,0.19961869716644287,0.0,458.5710754394531,458.5710754394531,0.0,,270.0
Images/exp1a_trial_71_colour3_distractors19_l.png,l,1,1a,71,3,19,1.0,447.7102571725073,447.7102571725073,,446.87579345703125,446.87579345703125,0.0,,446.5423278808594,446.5423278808594,0.0,,,,,,447.7102571725073,447.7102571725073,,1.0,1.0,0.0,'1',0.784138560295105,0.784138560295105,0.0,446.87579345703125,446.87579345703125,0.0,,'space',0.21947646141052246,0.21947646141052246,0.0,446.5423278808594,446.5423278808594,0.0,,260.0
Images/exp1a_trial_72_colour3_distractors31_l.png,l,1,1a,72,3,31,1.0,599.3759581929478,599.3759581929478,,598.591796875,598.591796875,0.0,,598.2918701171875,598.2918701171875,0.0,,,,,,599.3759581929478,599.3759581929478,,1.0,1.0,0.0,'1',0.7478146553039551,0.7478146553039551,0.0,598.591796875,598.591796875,0.0,,'space',0.1740003228187561,0.1740003228187561,0.0,598.2918701171875,598.2918701171875,0.0,,387.0
Images/exp1a_trial_73_colour3_distractors43_l.png,l,1,1a,73,3,43,1.0,317.6988745362835,317.6988745362835,,316.9980773925781,316.9980773925781,0.0,,316.64794921875,316.64794921875,0.0,,,,,,317.6988745362835,317.6988745362835,,1.0,1.0,0.0,'1',0.6539202928543091,0.6539202928543091,0.0,316.9980773925781,316.9980773925781,0.0,,'space',0.23401395976543427,0.23401395976543427,0.0,316.64794921875,316.64794921875,0.0,,151.0
Images/exp1a_trial_74_colour0_distractors0_r.png,r,2,1a,74,0,0,1.0,368.3320077964227,368.3320077964227,,367.5812683105469,367.5812683105469,0.0,,367.2641906738281,367.2641906738281,0.0,,,,,,368.3320077964227,368.3320077964227,,1.0,1.0,0.0,'2',0.6868262887001038,0.6868262887001038,0.0,367.5812683105469,367.5812683105469,0.0,,'space',0.18648982048034668,0.18648982048034668,0.0,367.2641906738281,367.2641906738281,0.0,,194.0
Images/exp1a_trial_75_colour0_distractors0_l.png,l,1,1a,75,0,0,1.0,494.9398087630077,494.9398087630077,,494.2057800292969,494.2057800292969,0.0,,493.85565185546875,493.85565185546875,0.0,,'space',0.20792615413665771,0.20792615413665771,0.0,494.9398087630077,494.9398087630077,,1.0,1.0,0.0,'1',0.6781719923019409,0.6781719923019409,0.0,494.2057800292969,494.2057800292969,0.0,,'space',0.23489715158939362,0.23489715158939362,0.0,493.85565185546875,493.85565185546875,0.0,,299.0
Images/exp1a_trial_76_colour1_distractors1_r.png,r,2,1a,76,1,1,1.0,392.57263482540753,392.57263482540753,,391.88836669921875,391.88836669921875,0.0,,391.62152099609375,391.62152099609375,0.0,,,,,,392.57263482540753,392.57263482540753,,1.0,1.0,0.0,'2',0.627549946308136,0.627549946308136,0.0,391.88836669921875,391.88836669921875,0.0,,'space',0.15716172754764557,0.15716172754764557,0.0,391.62152099609375,391.62152099609375,0.0,,216.0
Images/exp1a_trial_77_colour1_distractors4_r.png,r,2,1a,77,1,4,1.0,555.1158593072757,555.1158593072757,,554.3148803710938,554.3148803710938,0.0,,553.9981079101562,553.9981079101562,0.0,,,,,,555.1158593072757,555.1158593072757,,1.0,1.0,0.0,'2',0.7528098225593567,0.7528098225593567,0.0,554.3148803710938,554.3148803710938,0.0,,'space',0.2276674509048462,0.2276674509048462,0.0,553.9981079101562,553.9981079101562,0.0,,350.0
Images/exp1a_trial_78_colour1_distractors9_r.png,r,2,1a,78,1,9,1.0,408.5215318415258,408.5215318415258,,407.887451171875,407.887451171875,0.0,,407.6707763671875,407.6707763671875,0.0,,,,,,408.5215318415258,408.5215318415258,,1.0,1.0,0.0,'2',0.5804561972618103,0.5804561972618103,0.0,407.887451171875,407.887451171875,0.0,,'space',0.11532042920589447,0.11532042920589447,0.0,407.6707763671875,407.6707763671875,0.0,,229.0
Images/exp1a_trial_79_colour1_distractors19_r.png,r,2,1a,79,1,19,1.0,220.33633992453824,220.33633992453824,,219.56875610351562,219.56875610351562,0.0,,218.86834716796875,218.86834716796875,0.0,,,,,,220.33633992453824,220.33633992453824,,1.0,1.0,0.0,'2',0.7153841853141785,0.7153841853141785,0.0,219.56875610351562,219.56875610351562,0.0,,'space',0.5737893581390381,0.5737893581390381,0.0,218.86834716796875,218.86834716796875,0.0,,79.0
Images/exp1a_trial_80_colour1_distractors31_r.png,r,2,1a,80,1,31,1.0,724.1489560236837,724.1489560236837,,723.3980102539062,723.3980102539062,0.0,,723.1646728515625,723.1646728515625,0.0,,,,,,724.1489560236837,724.1489560236837,,1.0,1.0,0.0,'2',0.6935974359512329,0.6935974359512329,0.0,723.3980102539062,723.3980102539062,0.0,,'space',0.12490051984786987,0.12490051984786987,0.0,723.1646728515625,723.1646728515625,0.0,,485.0
Images/exp1a_trial_81_colour1_distractors43_r.png,r,2,1a,81,1,43,1.0,398.46166796212407,398.46166796212407,,397.64410400390625,397.64410400390625,0.0,,397.3272705078125,397.3272705078125,0.0,,,,,,398.46166796212407,398.46166796212407,,1.0,1.0,0.0,'2',0.7598331570625305,0.7598331570625305,0.0,397.64410400390625,397.64410400390625,0.0,,'space',0.18693941831588745,0.18693941831588745,0.0,397.3272705078125,397.3272705078125,0.0,,221.0
Images/exp1a_trial_82_colour2_distractors1_r.png,r,2,1a,82,2,1,1.0,547.5416878531773,547.5416878531773,,546.7742309570312,546.7742309570312,0.0,,546.50732421875,546.50732421875,0.0,,,,,,547.5416878531773,547.5416878531773,,1.0,1.0,0.0,'2',0.7178190350532532,0.7178190350532532,0.0,546.7742309570312,546.7742309570312,0.0,,'space',0.16650725901126862,0.16650725901126862,0.0,546.50732421875,546.50732421875,0.0,,343.0
Images/exp1a_trial_83_colour2_distractors4_r.png,r,2,1a,83,2,4,1.0,800.9413095519616,800.9413095519616,,800.1735229492188,800.1735229492188,0.0,,799.90673828125,799.90673828125,0.0,,,,,,800.9413095519616,800.9413095519616,,1.0,1.0,0.0,'2',0.7021007537841797,0.7021007537841797,0.0,800.1735229492188,800.1735229492188,0.0,,'space',0.15935339033603668,0.15935339033603668,0.0,799.90673828125,799.90673828125,0.0,,546.0
Images/exp1a_trial_84_colour2_distractors9_r.png,r,2,1a,84,2,9,1.0,606.8835150973289,606.8835150973289,,606.0825805664062,606.0825805664062,0.0,,605.7658081054688,605.7658081054688,0.0,,,,,,606.8835150973289,606.8835150973289,,1.0,1.0,0.0,'2',0.7612283229827881,0.7612283229827881,0.0,606.0825805664062,606.0825805664062,0.0,,'space',0.19618351757526398,0.19618351757526398,0.0,605.7658081054688,605.7658081054688,0.0,,394.0
Images/exp1a_trial_85_colour2_distractors19_r.png,r,2,1a,85,2,19,1.0,457.4364137479948,457.4364137479948,,456.4519348144531,456.4519348144531,0.0,,456.20196533203125,456.20196533203125,0.0,,,,,,457.4364137479948,457.4364137479948,,1.0,1.0,0.0,'2',0.9281211495399475,0.9281211495399475,0.0,456.4519348144531,456.4519348144531,0.0,,'space',0.14470581710338593,0.14470581710338593,0.0,456.20196533203125,456.20196533203125,0.0,,268.0
Images/exp1a_trial_86_colour2_distractors31_r.png,r,2,1a,86,2,31,1.0,435.1310790352582,435.1310790352582,,434.3634948730469,434.3634948730469,0.0,,433.9967041015625,433.9967041015625,0.0,,,,,,435.1310790352582,435.1310790352582,,1.0,1.0,0.0,'2',0.7045276165008545,0.7045276165008545,0.0,434.3634948730469,434.3634948730469,0.0,,'space',0.25341668725013733,0.25341668725013733,0.0,433.9967041015625,433.9967041015625,0.0,,249.0
Images/exp1a_trial_87_colour2_distractors43_r.png,r,2,1a,87,2,43,1.0,461.1067083346266,461.1067083346266,,459.98870849609375,459.98870849609375,0.0,,459.6386413574219,459.6386413574219,0.0,,,,,,461.1067083346266,461.1067083346266,,1.0,1.0,0.0,'2',1.0551435947418213,1.0551435947418213,0.0,459.98870849609375,459.98870849609375,0.0,,'space',0.21920990943908691,0.21920990943908691,0.0,459.6386413574219,459.6386413574219,0.0,,271.0
Images/exp1a_trial_88_colour3_distractors1_r.png,r,2,1a,88,3,1,1.0,649.658915470382,649.658915470382,,648.8580932617188,648.8580932617188,0.0,,648.5743408203125,648.5743408203125,0.0,,,,,,649.658915470382,649.658915470382,,1.0,1.0,0.0,'2',0.7455666661262512,0.7455666661262512,0.0,648.8580932617188,648.8580932617188,0.0,,'space',0.16342023015022278,0.16342023015022278,0.0,648.5743408203125,648.5743408203125,0.0,,431.0
Images/exp1a_trial_89_colour3_distractors4_r.png,r,2,1a,89,3,4,1.0,327.6921005061402,327.6921005061402,,326.9911804199219,326.9911804199219,0.0,,326.62445068359375,326.62445068359375,0.0,,,,,,327.6921005061402,327.6921005061402,,1.0,1.0,0.0,'2',0.62885582447052,0.62885582447052,0.0,326.9911804199219,326.9911804199219,0.0,,'space',0.2582835257053375,0.2582835257053375,0.0,326.62445068359375,326.62445068359375,0.0,,160.0
Images/exp1a_trial_90_colour3_distractors9_r.png,r,2,1a,90,3,9,1.0,286.7517823068825,286.7517823068825,,286.0675964355469,286.0675964355469,0.0,,285.61712646484375,285.61712646484375,0.0,,,,,,286.7517823068825,286.7517823068825,,1.0,1.0,0.0,'2',0.6325217485427856,0.6325217485427856,0.0,286.0675964355469,286.0675964355469,0.0,,'space',0.34557217359542847,0.34557217359542847,0.0,285.61712646484375,285.61712646484375,0.0,,126.0
Images/exp1a_trial_91_colour3_distractors19_r.png,r,2,1a,91,3,19,1.0,760.0509375450997,760.0509375450997,,759.199951171875,759.199951171875,0.0,,758.8663330078125,758.8663330078125,0.0,,,,,,760.0509375450997,760.0509375450997,,1.0,1.0,0.0,'2',0.7956846952438354,0.7956846952438354,0.0,759.199951171875,759.199951171875,0.0,,'space',0.2161324918270111,0.2161324918270111,0.0,758.8663330078125,758.8663330078125,0.0,,513.0
Images/exp1a_trial_92_colour3_distractors31_r.png,r,2,1a,92,3,31,1.0,208.89176239662888,208.89176239662888,,208.14088439941406,208.14088439941406,0.0,,207.57394409179688,207.57394409179688,0.0,,,,,,208.89176239662888,208.89176239662888,,1.0,1.0,0.0,'2',0.679186999797821,0.679186999797821,0.0,208.14088439941406,208.14088439941406,0.0,,'space',0.4600439667701721,0.4600439667701721,0.0,207.57394409179688,207.57394409179688,0.0,,71.0
Images/exp1a_trial_93_colour3_distractors43_r.png,r,2,1a,93,3,43,1.0,330.92851636611937,330.92851636611937,,330.11090087890625,330.11090087890625,0.0,,329.7940979003906,329.7940979003906,0.0,,,,,,330.92851636611937,330.92851636611937,,1.0,1.0,0.0,'2',0.7573186159133911,0.7573186159133911,0.0,330.11090087890625,330.11090087890625,0.0,,'space',0.21611233055591583,0.21611233055591583,0.0,329.7940979003906,329.7940979003906,0.0,,163.0
Images/exp1a_trial_94_colour1_distractors1_l.png,l,1,1a,94,1,1,1.0,143.52765947642624,143.52765947642624,,142.8433380126953,142.8433380126953,0.0,,142.20960998535156,142.20960998535156,0.0,,,,,,143.52765947642624,143.52765947642624,,1.0,1.0,0.0,'1',0.632956326007843,0.632956326007843,0.0,142.8433380126953,142.8433380126953,0.0,,'space',0.5205664038658142,0.5205664038658142,0.0,142.20960998535156,142.20960998535156,0.0,,32.0
Images/exp1a_trial_95_colour1_distractors4_l.png,l,1,1a,95,1,4,1.0,621.3644341177651,621.3644341177651,,620.68017578125,620.68017578125,0.0,,620.3802490234375,620.3802490234375,0.0,,,,,,621.3644341177651,621.3644341177651,,1.0,1.0,0.0,'1',0.6275681853294373,0.6275681853294373,0.0,620.68017578125,620.68017578125,0.0,,'space',0.19017715752124786,0.19017715752124786,0.0,620.3802490234375,620.3802490234375,0.0,,407.0
Images/exp1a_trial_96_colour1_distractors9_l.png,l,1,1a,96,1,9,1.0,814.2875332437552,814.2875332437552,,813.419921875,813.419921875,0.0,,813.1864624023438,813.1864624023438,0.0,,,,,,814.2875332437552,814.2875332437552,,1.0,1.0,0.0,'1',0.8076679706573486,0.8076679706573486,0.0,813.419921875,813.419921875,0.0,,'space',0.11916808038949966,0.11916808038949966,0.0,813.1864624023438,813.1864624023438,0.0,,556.0
Images/exp1a_trial_97_colour1_distractors19_l.png,l,1,1a,97,1,19,1.0,151.0849852945083,151.0849852945083,,150.30067443847656,150.30067443847656,0.0,,149.4666748046875,149.4666748046875,0.0,,,,,,151.0849852945083,151.0849852945083,,1.0,1.0,0.0,'1',0.7354544401168823,0.7354544401168823,0.0,150.30067443847656,150.30067443847656,0.0,,'space',0.7197134494781494,0.7197134494781494,0.0,149.4666748046875,149.4666748046875,0.0,,37.0
Images/exp1a_trial_98_colour1_distractors31_l.png,l,1,1a,98,1,31,1.0,690.9661896888438,690.9661896888438,,690.3320922851562,690.3320922851562,0.0,,690.0152587890625,690.0152587890625,0.0,,,,,,690.9661896888438,690.9661896888438,,1.0,1.0,0.0,'1',0.5836468935012817,0.5836468935012817,0.0,690.3320922851562,690.3320922851562,0.0,,'space',0.19503024220466614,0.19503024220466614,0.0,690.0152587890625,690.0152587890625,0.0,,466.0
Images/exp1a_trial_99_colour1_distractors43_l.png,l,1,1a,99,1,43,1.0,445.44132059188047,445.44132059188047,,444.5401916503906,444.5401916503906,0.0,,444.19012451171875,444.19012451171875,0.0,,,,,,445.44132059188047,445.44132059188047,,1.0,1.0,0.0,'1',0.847882091999054,0.847882091999054,0.0,444.5401916503906,444.5401916503906,0.0,,'space',0.22843192517757416,0.22843192517757416,0.0,444.19012451171875,444.19012451171875,0.0,,258.0
Images/exp1a_trial_100_colour2_distractors1_l.png,l,1,1a,100,2,1,1.0,382.57940597557223,382.57940597557223,,381.8287353515625,381.8287353515625,0.0,,381.5284423828125,381.5284423828125,0.0,,,,,,382.57940597557223,382.57940597557223,,1.0,1.0,0.0,'1',0.6874327063560486,0.6874327063560486,0.0,381.8287353515625,381.8287353515625,0.0,,'space',0.19349808990955353,0.19349808990955353,0.0,381.5284423828125,381.5284423828125,0.0,,207.0
Images/exp1a_trial_101_colour2_distractors4_l.png,l,1,1a,101,2,4,1.0,227.86056486624247,227.86056486624247,,226.97608947753906,226.97608947753906,0.0,,226.39248657226562,226.39248657226562,0.0,,,,,,227.86056486624247,227.86056486624247,,1.0,1.0,0.0,'1',0.8199811577796936,0.8199811577796936,0.0,226.97608947753906,226.97608947753906,0.0,,'space',0.47388002276420593,0.47388002276420593,0.0,226.39248657226562,226.39248657226562,0.0,,82.0
Images/exp1a_trial_102_colour2_distractors9_l.png,l,1,1a,102,2,9,1.0,194.64458565584968,194.64458565584968,,193.71002197265625,193.71002197265625,0.0,,192.89283752441406,192.89283752441406,0.0,,,,,,194.64458565584968,194.64458565584968,,1.0,1.0,0.0,'1',0.878216564655304,0.878216564655304,0.0,193.71002197265625,193.71002197265625,0.0,,'space',0.701725423336029,0.701725423336029,0.0,192.89283752441406,192.89283752441406,0.0,,61.0
Images/exp1a_trial_103_colour2_distractors19_l.png,l,1,1a,103,2,19,1.0,692.0506089075184,692.0506089075184,,691.283203125,691.283203125,0.0,,690.9661865234375,690.9661865234375,0.0,,,,,,692.0506089075184,692.0506089075184,,1.0,1.0,0.0,'1',0.7126782536506653,0.7126782536506653,0.0,691.283203125,691.283203125,0.0,,'space',0.19539983570575714,0.19539983570575714,0.0,690.9661865234375,690.9661865234375,0.0,,467.0
Images/exp1a_trial_104_colour2_distractors31_l.png,l,1,1a,104,2,31,1.0,688.0300314589686,688.0300314589686,,687.2957763671875,687.2957763671875,0.0,,687.0125122070312,687.0125122070312,0.0,,,,,,688.0300314589686,688.0300314589686,,1.0,1.0,0.0,'1',0.6759028434753418,0.6759028434753418,0.0,687.2957763671875,687.2957763671875,0.0,,'space',0.15725228190422058,0.15725228190422058,0.0,687.0125122070312,687.0125122070312,0.0,,463.0
Images/exp1a_trial_105_colour2_distractors43_l.png,l,1,1a,105,2,43,1.0,164.74839481181434,164.74839481181434,,163.96408081054688,163.96408081054688,0.0,,163.29696655273438,163.29696655273438,0.0,,,,,,164.74839481181434,164.74839481181434,,1.0,1.0,0.0,'1',0.7360790371894836,0.7360790371894836,0.0,163.96408081054688,163.96408081054688,0.0,,'space',0.5540112853050232,0.5540112853050232,0.0,163.29696655273438,163.29696655273438,0.0,,46.0
Images/exp1a_trial_106_colour3_distractors1_l.png,l,1,1a,106,3,1,1.0,798.7556609983352,798.7556609983352,,795.9027099609375,795.9027099609375,0.0,,795.6692504882812,795.6692504882812,0.0,,,,,,798.7556609983352,798.7556609983352,,1.0,1.0,0.0,'1',2.78098726272583,2.78098726272583,0.0,795.9027099609375,795.9027099609375,0.0,,'space',0.13230206072330475,0.13230206072330475,0.0,795.6692504882812,795.6692504882812,0.0,,544.0
Images/exp1a_trial_107_colour3_distractors4_l.png,l,1,1a,107,3,4,1.0,341.388786578531,341.388786578531,,340.6212158203125,340.6212158203125,0.0,,340.27105712890625,340.27105712890625,0.0,,,,,,341.388786578531,341.388786578531,,1.0,1.0,0.0,'1',0.7107845544815063,0.7107845544815063,0.0,340.6212158203125,340.6212158203125,0.0,,'space',0.24302157759666443,0.24302157759666443,0.0,340.27105712890625,340.27105712890625,0.0,,172.0
Images/exp1a_trial_108_colour3_distractors9_l.png,l,1,1a,108,3,9,1.0,269.8018520183692,269.8018520183692,,268.9673767089844,268.9673767089844,0.0,,268.5672607421875,268.5672607421875,0.0,,,,,,269.8018520183692,269.8018520183692,,1.0,1.0,0.0,'1',0.7806656360626221,0.7806656360626221,0.0,268.9673767089844,268.9673767089844,0.0,,'space',0.29124200344085693,0.29124200344085693,0.0,268.5672607421875,268.5672607421875,0.0,,113.0
Images/exp1a_trial_109_colour3_distractors19_l.png,l,1,1a,109,3,19,1.0,786.7438111655497,786.7438111655497,,786.0262451171875,786.0262451171875,0.0,,785.7095336914062,785.7095336914062,0.0,,,,,,786.7438111655497,786.7438111655497,,1.0,1.0,0.0,'1',0.6653950810432434,0.6653950810432434,0.0,786.0262451171875,786.0262451171875,0.0,,'space',0.20480649173259735,0.20480649173259735,0.0,785.7095336914062,785.7095336914062,0.0,,535.0
Images/exp1a_trial_110_colour3_distractors31_l.png,l,1,1a,110,3,31,1.0,474.38646851559184,474.38646851559184,,473.4853210449219,473.4853210449219,0.0,,473.18524169921875,473.18524169921875,0.0,,,,,,474.38646851559184,474.38646851559184,,1.0,1.0,0.0,'1',0.8465604782104492,0.8465604782104492,0.0,473.4853210449219,473.4853210449219,0.0,,'space',0.1766294240951538,0.1766294240951538,0.0,473.18524169921875,473.18524169921875,0.0,,282.0
Images/exp1a_trial_111_colour3_distractors43_l.png,l,1,1a,111,3,43,1.0,746.9713611707816,746.9713611707816,,745.8702392578125,745.8702392578125,0.0,,745.5699462890625,745.5699462890625,0.0,,,,,,746.9713611707816,746.9713611707816,,1.0,1.0,0.0,'1',1.0374727249145508,1.0374727249145508,0.0,745.8702392578125,745.8702392578125,0.0,,'space',0.1677686870098114,0.1677686870098114,0.0,745.5699462890625,745.5699462890625,0.0,,502.0
Images/exp1a_trial_112_colour0_distractors0_r.png,r,2,1a,112,0,0,1.0,702.511097038326,702.511097038326,,701.5765991210938,701.5765991210938,0.0,,698.4901733398438,698.4901733398438,0.0,,,,,,702.511097038326,702.511097038326,,1.0,1.0,0.0,'2',0.8671555519104004,0.8671555519104004,0.0,701.5765991210938,701.5765991210938,0.0,,'space',2.9598028659820557,2.9598028659820557,0.0,698.4901733398438,698.4901733398438,0.0,,470.0
Images/exp1a_trial_113_colour0_distractors0_l.png,l,1,1a,113,0,0,1.0,371.6352887642748,371.6352887642748,,370.7676086425781,370.7676086425781,0.0,,370.45086669921875,370.45086669921875,0.0,,,,,,371.6352887642748,371.6352887642748,,1.0,1.0,0.0,'1',0.8123319149017334,0.8123319149017334,0.0,370.7676086425781,370.7676086425781,0.0,,'space',0.21538402140140533,0.21538402140140533,0.0,370.45086669921875,370.45086669921875,0.0,,197.0
Images/exp1b_trial_0_colour1_distractors1_r.png,r,2,1b,0,1,1,1.0,450.06250961992924,450.06250961992924,,449.0947570800781,449.0947570800781,0.0,,448.8111877441406,448.8111877441406,0.0,,,,,,450.06250961992924,450.06250961992924,,1.0,1.0,0.0,'2',0.9171708226203918,0.9171708226203918,0.0,449.0947570800781,449.0947570800781,0.0,,'space',0.1588599532842636,0.1588599532842636,0.0,448.8111877441406,448.8111877441406,0.0,,262.0
Images/exp1b_trial_1_colour1_distractors4_r.png,r,2,1b,1,1,4,1.0,281.11290540901615,281.11290540901615,,280.39532470703125,280.39532470703125,0.0,,280.0284118652344,280.0284118652344,0.0,,,,,,281.11290540901615,281.11290540901615,,1.0,1.0,0.0,'2',0.6567266583442688,0.6567266583442688,0.0,280.39532470703125,280.39532470703125,0.0,,'space',0.2547418177127838,0.2547418177127838,0.0,280.0284118652344,280.0284118652344,0.0,,122.0
Images/exp1b_trial_2_colour1_distractors9_r.png,r,2,1b,2,1,9,1.0,479.2911424971913,479.2911424971913,,478.20660400390625,478.20660400390625,0.0,,477.87322998046875,477.87322998046875,0.0,,,,,,479.2911424971913,479.2911424971913,,1.0,1.0,0.0,'2',1.0212548971176147,1.0212548971176147,0.0,478.20660400390625,478.20660400390625,0.0,,'space',0.22498778998851776,0.22498778998851776,0.0,477.87322998046875,477.87322998046875,0.0,,286.0
Images/exp1b_trial_3_colour1_distractors19_r.png,r,2,1b,3,1,19,1.0,698.4902479117754,698.4902479117754,,693.5185546875,693.5185546875,0.0,,693.2683715820312,693.2683715820312,0.0,,,,,,698.4902479117754,698.4902479117754,,0.0,0.0,0.0,,,,,693.5185546875,693.5185546875,0.0,,'space',0.13422396779060364,0.13422396779060364,0.0,693.2683715820312,693.2683715820312,0.0,,469.0
Images/exp1b_trial_4_colour1_distractors31_r.png,r,2,1b,4,1,31,1.0,463.5425454468655,463.5425454468655,,462.758056640625,462.758056640625,0.0,,462.3079528808594,462.3079528808594,0.0,,,,,,463.5425454468655,463.5425454468655,,1.0,1.0,0.0,'2',0.733898937702179,0.733898937702179,0.0,462.758056640625,462.758056640625,0.0,,'space',0.3505443036556244,0.3505443036556244,0.0,462.3079528808594,462.3079528808594,0.0,,273.0
Images/exp1b_trial_5_colour1_distractors43_r.png,r,2,1b,5,1,43,1.0,590.0169656351327,590.0169656351327,,589.049072265625,589.049072265625,0.0,,588.7657470703125,588.7657470703125,0.0,,,,,,590.0169656351327,590.0169656351327,,1.0,1.0,0.0,'2',0.9067094922065735,0.9067094922065735,0.0,589.049072265625,589.049072265625,0.0,,'space',0.17210786044597626,0.17210786044597626,0.0,588.7657470703125,588.7657470703125,0.0,,379.0
Images/exp1b_trial_6_colour2_distractors1_r.png,r,2,1b,6,2,1,1.0,755.3797408851069,755.3797408851069,,754.5786743164062,754.5786743164062,0.0,,754.2953491210938,754.2953491210938,0.0,,,,,,755.3797408851069,755.3797408851069,,1.0,1.0,0.0,'2',0.7449737191200256,0.7449737191200256,0.0,754.5786743164062,754.5786743164062,0.0,,'space',0.17912732064723969,0.17912732064723969,0.0,754.2953491210938,754.2953491210938,0.0,,509.0
Images/exp1b_trial_7_colour2_distractors4_r.png,r,2,1b,7,2,4,1.0,410.9405505175483,410.9405505175483,,410.089599609375,410.089599609375,0.0,,409.7729797363281,409.7729797363281,0.0,,,,,,410.9405505175483,410.9405505175483,,1.0,1.0,0.0,'2',0.7864620685577393,0.7864620685577393,0.0,410.089599609375,410.089599609375,0.0,,'space',0.21313507854938507,0.21313507854938507,0.0,409.7729797363281,409.7729797363281,0.0,,231.0
Images/exp1b_trial_8_colour2_distractors9_r.png,r,2,1b,8,2,9,1.0,533.4111915336302,533.4111915336302,,532.6103515625,532.6103515625,0.0,,532.2935180664062,532.2935180664062,0.0,,,,,,533.4111915336302,533.4111915336302,,1.0,1.0,0.0,'2',0.7375123500823975,0.7375123500823975,0.0,532.6103515625,532.6103515625,0.0,,'space',0.1968647837638855,0.1968647837638855,0.0,532.2935180664062,532.2935180664062,0.0,,331.0
Images/exp1b_trial_9_colour2_distractors19_r.png,r,2,1b,9,2,19,1.0,112.48032414481425,112.48032414481425,,111.0620346069336,111.0620346069336,0.0,,110.27823638916016,110.27823638916016,0.0,,,,,,112.48032414481425,112.48032414481425,,1.0,1.0,0.0,'2',1.3582803010940552,1.3582803010940552,0.0,111.0620346069336,111.0620346069336,0.0,,'space',0.6680293083190918,0.6680293083190918,0.0,110.27823638916016,110.27823638916016,0.0,,15.0
Images/exp1b_trial_10_colour2_distractors31_r.png,r,2,1b,10,2,31,1.0,785.7094664583269,785.7094664583269,,784.975341796875,784.975341796875,0.0,,784.6918334960938,784.6918334960938,0.0,,,,,,785.7094664583269,785.7094664583269,,1.0,1.0,0.0,'2',0.6844487190246582,0.6844487190246582,0.0,784.975341796875,784.975341796875,0.0,,'space',0.16651877760887146,0.16651877760887146,0.0,784.6918334960938,784.6918334960938,0.0,,534.0
Images/exp1b_trial_11_colour2_distractors43_r.png,r,2,1b,11,2,43,1.0,475.8378418334842,475.8378418334842,,474.7700500488281,474.7700500488281,0.0,,474.403076171875,474.403076171875,0.0,,,,,,475.8378418334842,475.8378418334842,,1.0,1.0,0.0,'2',1.0097784996032715,1.0097784996032715,0.0,474.7700500488281,474.7700500488281,0.0,,'space',0.23878832161426544,0.23878832161426544,0.0,474.403076171875,474.403076171875,0.0,,283.0
Images/exp1b_trial_12_colour3_distractors1_r.png,r,2,1b,12,3,1,1.0,812.0187979416473,812.0187979416473,,810.5338134765625,810.5338134765625,0.0,,810.2504272460938,810.2504272460938,0.0,,,,,,812.0187979416473,812.0187979416473,,1.0,1.0,0.0,'2',1.4298688173294067,1.4298688173294067,0.0,810.5338134765625,810.5338134765625,0.0,,'space',0.1679350882768631,0.1679350882768631,0.0,810.2504272460938,810.2504272460938,0.0,,554.0
Images/exp1b_trial_13_colour3_distractors4_r.png,r,2,1b,13,3,4,1.0,623.3162181526345,623.3162181526345,,622.63232421875,622.63232421875,0.0,,622.3486328125,622.3486328125,0.0,,,,,,623.3162181526345,623.3162181526345,,1.0,1.0,0.0,'2',0.6193774938583374,0.6193774938583374,0.0,622.63232421875,622.63232421875,0.0,,'space',0.1969374269247055,0.1969374269247055,0.0,622.3486328125,622.3486328125,0.0,,409.0
Images/exp1b_trial_14_colour3_distractors9_r.png,r,2,1b,14,3,9,1.0,764.6386935392156,764.6386935392156,,763.75439453125,763.75439453125,0.0,,763.4708862304688,763.4708862304688,0.0,,,,,,764.6386935392156,764.6386935392156,,1.0,1.0,0.0,'2',0.8332082629203796,0.8332082629203796,0.0,763.75439453125,763.75439453125,0.0,,'space',0.1787606030702591,0.1787606030702591,0.0,763.4708862304688,763.4708862304688,0.0,,517.0
Images/exp1b_trial_15_colour3_distractors19_r.png,r,2,1b,15,3,19,1.0,215.8152909594588,215.8152909594588,,215.1477813720703,215.1477813720703,0.0,,214.48057556152344,214.48057556152344,0.0,,,,,,215.8152909594588,215.8152909594588,,1.0,1.0,0.0,'2',0.6163458824157715,0.6163458824157715,0.0,215.1477813720703,215.1477813720703,0.0,,'space',0.5543671250343323,0.5543671250343323,0.0,214.48057556152344,214.48057556152344,0.0,,76.0
Images/exp1b_trial_16_colour3_distractors31_r.png,r,2,1b,16,3,31,1.0,782.1727648084511,782.1727648084511,,780.470947265625,780.470947265625,0.0,,780.1707763671875,780.1707763671875,0.0,,,,,,782.1727648084511,782.1727648084511,,1.0,1.0,0.0,'2',1.6526405811309814,1.6526405811309814,0.0,780.470947265625,780.470947265625,0.0,,'space',0.18286073207855225,0.18286073207855225,0.0,780.1707763671875,780.1707763671875,0.0,,531.0
Images/exp1b_trial_17_colour3_distractors43_r.png,r,2,1b,17,3,43,1.0,508.3366112825411,508.3366112825411,,506.9182434082031,506.9182434082031,0.0,,506.61822509765625,506.61822509765625,0.0,,,,,,508.3366112825411,508.3366112825411,,1.0,1.0,0.0,'2',1.3656456470489502,1.3656456470489502,0.0,506.9182434082031,506.9182434082031,0.0,,'space',0.2001562863588333,0.2001562863588333,0.0,506.61822509765625,506.61822509765625,0.0,,309.0
Images/exp1b_trial_18_colour1_distractors1_l.png,l,1,1b,18,1,1,1.0,182.78292031770647,182.78292031770647,,182.1153106689453,182.1153106689453,0.0,,181.5149383544922,181.5149383544922,0.0,,,,,,182.78292031770647,182.78292031770647,,1.0,1.0,0.0,'1',0.6168709993362427,0.6168709993362427,0.0,182.1153106689453,182.1153106689453,0.0,,'space',0.4954773187637329,0.4954773187637329,0.0,181.5149383544922,181.5149383544922,0.0,,58.0
Images/exp1b_trial_19_colour1_distractors4_l.png,l,1,1b,19,1,4,1.0,816.9069299649955,816.9069299649955,,815.6387329101562,815.6387329101562,0.0,,815.3387451171875,815.3387451171875,0.0,,,,,,816.9069299649955,816.9069299649955,,1.0,1.0,0.0,'1',1.2130297422409058,1.2130297422409058,0.0,815.6387329101562,815.6387329101562,0.0,,'space',0.19089587032794952,0.19089587032794952,0.0,815.3387451171875,815.3387451171875,0.0,,558.0
Images/exp1b_trial_20_colour1_distractors9_l.png,l,1,1b,20,1,9,1.0,794.3346480969899,794.3346480969899,,793.4669189453125,793.4669189453125,0.0,,793.2334594726562,793.2334594726562,0.0,,,,,,794.3346480969899,794.3346480969899,,1.0,1.0,0.0,'1',0.8087441325187683,0.8087441325187683,0.0,793.4669189453125,793.4669189453125,0.0,,'space',0.12875713407993317,0.12875713407993317,0.0,793.2334594726562,793.2334594726562,0.0,,542.0
Images/exp1b_trial_21_colour1_distractors19_l.png,l,1,1b,21,1,19,1.0,400.3470096060092,400.3470096060092,,398.7451477050781,398.7451477050781,0.0,,398.4617614746094,398.4617614746094,0.0,,,,,,400.3470096060092,400.3470096060092,,1.0,1.0,0.0,'1',1.5469127893447876,1.5469127893447876,0.0,398.7451477050781,398.7451477050781,0.0,,'space',0.17281857132911682,0.17281857132911682,0.0,398.4617614746094,398.4617614746094,0.0,,222.0
Images/exp1b_trial_22_colour1_distractors31_l.png,l,1,1b,22,1,31,1.0,777.0843897788914,777.0843897788914,,775.6828002929688,775.6828002929688,0.0,,775.4161376953125,775.4161376953125,0.0,,,,,,777.0843897788914,777.0843897788914,,1.0,1.0,0.0,'1',1.3448083400726318,1.3448083400726318,0.0,775.6828002929688,775.6828002929688,0.0,,'space',0.16199688613414764,0.16199688613414764,0.0,775.4161376953125,775.4161376953125,0.0,,527.0
Images/exp1b_trial_23_colour1_distractors43_l.png,l,1,1b,23,1,43,1.0,174.3077906946606,174.3077906946606,,172.2889404296875,172.2889404296875,0.0,,171.638671875,171.638671875,0.0,,,,,,174.3077906946606,174.3077906946606,,1.0,1.0,0.0,'1',1.9631667137145996,1.9631667137145996,0.0,172.2889404296875,172.2889404296875,0.0,,'space',0.5236530900001526,0.5236530900001526,0.0,171.638671875,171.638671875,0.0,,52.0
Images/exp1b_trial_24_colour2_distractors1_l.png,l,1,1b,24,2,1,1.0,788.0118088730868,788.0118088730868,,787.0441284179688,787.0441284179688,0.0,,786.7606201171875,786.7606201171875,0.0,,,,,,788.0118088730868,788.0118088730868,,1.0,1.0,0.0,'1',0.8954737186431885,0.8954737186431885,0.0,787.0441284179688,787.0441284179688,0.0,,'space',0.1689971536397934,0.1689971536397934,0.0,786.7606201171875,786.7606201171875,0.0,,536.0
Images/exp1b_trial_25_colour2_distractors4_l.png,l,1,1b,25,2,4,1.0,454.98397163796886,454.98397163796886,,454.06622314453125,454.06622314453125,0.0,,453.76605224609375,453.76605224609375,0.0,,,,,,454.98397163796886,454.98397163796886,,1.0,1.0,0.0,'1',0.8577146530151367,0.8577146530151367,0.0,454.06622314453125,454.06622314453125,0.0,,'space',0.18835636973381042,0.18835636973381042,0.0,453.76605224609375,453.76605224609375,0.0,,266.0
Images/exp1b_trial_26_colour2_distractors9_l.png,l,1,1b,26,2,9,1.0,605.765623485011,605.765623485011,,604.9813842773438,604.9813842773438,0.0,,604.6813354492188,604.6813354492188,0.0,,,,,,605.765623485011,605.765623485011,,1.0,1.0,0.0,'1',0.7344825863838196,0.7344825863838196,0.0,604.9813842773438,604.9813842773438,0.0,,'space',0.1923953890800476,0.1923953890800476,0.0,604.6813354492188,604.6813354492188,0.0,,393.0
Images/exp1b_trial_27_colour2_distractors19_l.png,l,1,1b,27,2,19,1.0,264.78007745862993,264.78007745862993,,263.9293518066406,263.9293518066406,0.0,,263.4955749511719,263.4955749511719,0.0,,,,,,264.78007745862993,264.78007745862993,,1.0,1.0,0.0,'1',0.7946325540542603,0.7946325540542603,0.0,263.9293518066406,263.9293518066406,0.0,,'space',0.33059245347976685,0.33059245347976685,0.0,263.4955749511719,263.4955749511719,0.0,,109.0
Images/exp1b_trial_28_colour2_distractors31_l.png,l,1,1b,28,2,31,1.0,627.4537793801837,627.4537793801837,,626.7862548828125,626.7862548828125,0.0,,626.4361572265625,626.4361572265625,0.0,,,,,,627.4537793801837,627.4537793801837,,1.0,1.0,0.0,'1',0.6175938248634338,0.6175938248634338,0.0,626.7862548828125,626.7862548828125,0.0,,'space',0.23827697336673737,0.23827697336673737,0.0,626.4361572265625,626.4361572265625,0.0,,413.0
Images/exp1b_trial_29_colour2_distractors43_l.png,l,1,1b,29,2,43,1.0,802.4760131365432,802.4760131365432,,801.2079467773438,801.2079467773438,0.0,,800.9411010742188,800.9411010742188,0.0,,,,,,802.4760131365432,802.4760131365432,,1.0,1.0,0.0,'1',1.195631504058838,1.195631504058838,0.0,801.2079467773438,801.2079467773438,0.0,,'space',0.1564462035894394,0.1564462035894394,0.0,800.9411010742188,800.9411010742188,0.0,,547.0
Images/exp1b_trial_30_colour3_distractors1_l.png,l,1,1b,30,3,1,1.0,373.82066915987485,373.82066915987485,,373.13665771484375,373.13665771484375,0.0,,372.78631591796875,372.78631591796875,0.0,,,,,,373.82066915987485,373.82066915987485,,1.0,1.0,0.0,'1',0.6193774938583374,0.6193774938583374,0.0,373.13665771484375,373.13665771484375,0.0,,'space',0.2322443723678589,0.2322443723678589,0.0,372.78631591796875,372.78631591796875,0.0,,199.0
Images/exp1b_trial_31_colour3_distractors4_l.png,l,1,1b,31,3,4,1.0,261.20987237533933,261.20987237533933,,260.0586242675781,260.0586242675781,0.0,,259.62506103515625,259.62506103515625,0.0,,,,,,261.20987237533933,261.20987237533933,,1.0,1.0,0.0,'1',1.0894819498062134,1.0894819498062134,0.0,260.0586242675781,260.0586242675781,0.0,,'space',0.3215099573135376,0.3215099573135376,0.0,259.62506103515625,259.62506103515625,0.0,,106.0
Images/exp1b_trial_32_colour3_distractors9_l.png,l,1,1b,32,3,9,1.0,493.8556228226162,493.8556228226162,,492.95452880859375,492.95452880859375,0.0,,492.6378479003906,492.6378479003906,0.0,,,,,,493.8556228226162,493.8556228226162,,1.0,1.0,0.0,'1',0.8492571115493774,0.8492571115493774,0.0,492.95452880859375,492.95452880859375,0.0,,'space',0.21256130933761597,0.21256130933761597,0.0,492.6378479003906,492.6378479003906,0.0,,298.0
Images/exp1b_trial_33_colour3_distractors19_l.png,l,1,1b,33,3,19,1.0,824.5477994881958,824.5477994881958,,822.6458129882812,822.6458129882812,0.0,,822.3453979492188,822.3453979492188,0.0,,,,,,824.5477994881958,824.5477994881958,,1.0,1.0,0.0,'1',1.83785879611969,1.83785879611969,0.0,822.6458129882812,822.6458129882812,0.0,,'space',0.1847112774848938,0.1847112774848938,0.0,822.3453979492188,822.3453979492188,0.0,,564.0
Images/exp1b_trial_34_colour3_distractors31_l.png,l,1,1b,34,3,31,1.0,283.03133288938994,283.03133288938994,,281.4964294433594,281.4964294433594,0.0,,281.12957763671875,281.12957763671875,0.0,,,,,,283.03133288938994,283.03133288938994,,1.0,1.0,0.0,'1',1.4756189584732056,1.4756189584732056,0.0,281.4964294433594,281.4964294433594,0.0,,'space',0.2567315399646759,0.2567315399646759,0.0,281.12957763671875,281.12957763671875,0.0,,123.0
Images/exp1b_trial_35_colour3_distractors43_l.png,l,1,1b,35,3,43,1.0,155.5560986271142,155.5560986271142,,154.40469360351562,154.40469360351562,0.0,,153.75418090820312,153.75418090820312,0.0,,,,,,155.5560986271142,155.5560986271142,,1.0,1.0,0.0,'1',1.0955291986465454,1.0955291986465454,0.0,154.40469360351562,154.40469360351562,0.0,,'space',0.5447095632553101,0.5447095632553101,0.0,153.75418090820312,153.75418090820312,0.0,,40.0
Images/exp1b_trial_36_colour0_distractors0_r.png,r,2,1b,36,0,0,1.0,570.2473719393424,570.2473719393424,,569.6466064453125,569.6466064453125,0.0,,569.1295776367188,569.1295776367188,0.0,,,,,,570.2473719393424,570.2473719393424,,1.0,1.0,0.0,'2',0.5411515235900879,0.5411515235900879,0.0,569.6466064453125,569.6466064453125,0.0,,'space',0.40812307596206665,0.40812307596206665,0.0,569.1295776367188,569.1295776367188,0.0,,362.0
Images/exp1b_trial_37_colour0_distractors0_l.png,l,1,1b,37,0,0,1.0,427.20672551850026,427.20672551850026,,426.5392150878906,426.5392150878906,0.0,,426.2222595214844,426.2222595214844,0.0,,,,,,427.20672551850026,427.20672551850026,,1.0,1.0,0.0,'1',0.6167042851448059,0.6167042851448059,0.0,426.5392150878906,426.5392150878906,0.0,,'space',0.19564688205718994,0.19564688205718994,0.0,426.2222595214844,426.2222595214844,0.0,,243.0
Images/exp1b_trial_38_colour1_distractors1_r.png,r,2,1b,38,1,1,1.0,129.03003561893783,129.03003561893783,,127.97871398925781,127.97871398925781,0.0,,126.81124877929688,126.81124877929688,0.0,,,,,,129.03003561893783,129.03003561893783,,1.0,1.0,0.0,'2',0.9936144351959229,0.9936144351959229,0.0,127.97871398925781,127.97871398925781,0.0,,'space',1.0630372762680054,1.0630372762680054,0.0,126.81124877929688,126.81124877929688,0.0,,22.0
Images/exp1b_trial_39_colour1_distractors4_r.png,r,2,1b,39,1,4,1.0,416.8131789750028,416.8131789750028,,415.9954833984375,415.9954833984375,0.0,,415.6952819824219,415.6952819824219,0.0,,,,,,416.8131789750028,416.8131789750028,,1.0,1.0,0.0,'2',0.7604705691337585,0.7604705691337585,0.0,415.9954833984375,415.9954833984375,0.0,,'space',0.19500400125980377,0.19500400125980377,0.0,415.6952819824219,415.6952819824219,0.0,,236.0
Images/exp1b_trial_40_colour1_distractors9_r.png,r,2,1b,40,1,9,1.0,406.6863920681545,406.6863920681545,,405.15142822265625,405.15142822265625,0.0,,404.91815185546875,404.91815185546875,0.0,,,,,,406.6863920681545,406.6863920681545,,1.0,1.0,0.0,'2',1.4764604568481445,1.4764604568481445,0.0,405.15142822265625,405.15142822265625,0.0,,'space',0.12464900314807892,0.12464900314807892,0.0,404.91815185546875,404.91815185546875,0.0,,227.0
Images/exp1b_trial_41_colour1_distractors19_r.png,r,2,1b,41,1,19,1.0,501.93018995380186,501.93018995380186,,501.0792541503906,501.0792541503906,0.0,,500.79583740234375,500.79583740234375,0.0,,,,,,501.93018995380186,501.93018995380186,,1.0,1.0,0.0,'2',0.7965090274810791,0.7965090274810791,0.0,501.0792541503906,501.0792541503906,0.0,,'space',0.1740380823612213,0.1740380823612213,0.0,500.79583740234375,500.79583740234375,0.0,,304.0
Images/exp1b_trial_42_colour1_distractors31_r.png,r,2,1b,42,1,31,1.0,815.3219243506369,815.3219243506369,,814.5543823242188,814.5543823242188,0.0,,814.3042602539062,814.3042602539062,0.0,,,,,,815.3219243506369,815.3219243506369,,1.0,1.0,0.0,'2',0.7052140235900879,0.7052140235900879,0.0,814.5543823242188,814.5543823242188,0.0,,'space',0.12966369092464447,0.12966369092464447,0.0,814.3042602539062,814.3042602539062,0.0,,557.0
Images/exp1b_trial_43_colour1_distractors43_r.png,r,2,1b,43,1,43,1.0,635.1114906994287,635.1114906994287,,633.5762329101562,633.5762329101562,0.0,,633.2760620117188,633.2760620117188,0.0,,'space',0.2522525489330292,0.2522525489330292,0.0,635.1114906994287,635.1114906994287,,1.0,1.0,0.0,'2',1.4834773540496826,1.4834773540496826,0.0,633.5762329101562,633.5762329101562,0.0,,'space',0.18955764174461365,0.18955764174461365,0.0,633.2760620117188,633.2760620117188,0.0,,419.0
Images/exp1b_trial_44_colour2_distractors1_r.png,r,2,1b,44,2,1,1.0,468.21377218663685,468.21377218663685,,467.4461364746094,467.4461364746094,0.0,,467.11260986328125,467.11260986328125,0.0,,,,,,468.21377218663685,468.21377218663685,,1.0,1.0,0.0,'2',0.7019174098968506,0.7019174098968506,0.0,467.4461364746094,467.4461364746094,0.0,,'space',0.2255522608757019,0.2255522608757019,0.0,467.11260986328125,467.11260986328125,0.0,,277.0
Images/exp1b_trial_45_colour2_distractors4_r.png,r,2,1b,45,2,4,1.0,280.0118440728275,280.0118440728275,,279.02728271484375,279.02728271484375,0.0,,278.5104064941406,278.5104064941406,0.0,,,,,,280.0118440728275,280.0118440728275,,1.0,1.0,0.0,'2',0.9207746386528015,0.9207746386528015,0.0,279.02728271484375,279.02728271484375,0.0,,'space',0.4118673801422119,0.4118673801422119,0.0,278.5104064941406,278.5104064941406,0.0,,121.0
Images/exp1b_trial_46_colour2_distractors9_r.png,r,2,1b,46,2,9,1.0,756.4474395868447,756.4474395868447,,755.6463623046875,755.6463623046875,0.0,,755.396484375,755.396484375,0.0,,,,,,756.4474395868447,756.4474395868447,,1.0,1.0,0.0,'2',0.7413132786750793,0.7413132786750793,0.0,755.6463623046875,755.6463623046875,0.0,,'space',0.14113527536392212,0.14113527536392212,0.0,755.396484375,755.396484375,0.0,,510.0
Images/exp1b_trial_47_colour2_distractors19_r.png,r,2,1b,47,2,19,1.0,480.50924585195077,480.50924585195077,,479.59130859375,479.59130859375,0.0,,479.2913818359375,479.2913818359375,0.0,,,,,,480.50924585195077,480.50924585195077,,1.0,1.0,0.0,'2',0.8686012625694275,0.8686012625694275,0.0,479.59130859375,479.59130859375,0.0,,'space',0.19065235555171967,0.19065235555171967,0.0,479.2913818359375,479.2913818359375,0.0,,287.0
Images/exp1b_trial_48_colour2_distractors31_r.png,r,2,1b,48,2,31,1.0,704.0124133486379,704.0124133486379,,703.1615600585938,703.1615600585938,0.0,,702.5108642578125,702.5108642578125,0.0,,,,,,704.0124133486379,704.0124133486379,,1.0,1.0,0.0,'2',0.7862386703491211,0.7862386703491211,0.0,703.1615600585938,703.1615600585938,0.0,,'space',0.5236371159553528,0.5236371159553528,0.0,702.5108642578125,702.5108642578125,0.0,,471.0
Images/exp1b_trial_49_colour2_distractors43_r.png,r,2,1b,49,2,43,1.0,573.7508821535074,573.7508821535074,,572.6829833984375,572.6829833984375,0.0,,572.3994750976562,572.3994750976562,0.0,,,,,,573.7508821535074,573.7508821535074,,1.0,1.0,0.0,'2',1.000831961631775,1.000831961631775,0.0,572.6829833984375,572.6829833984375,0.0,,'space',0.1784108430147171,0.1784108430147171,0.0,572.3994750976562,572.3994750976562,0.0,,365.0
Images/exp1b_trial_50_colour3_distractors1_r.png,r,2,1b,50,3,1,1.0,379.39296862775115,379.39296862775115,,378.3583679199219,378.3583679199219,0.0,,378.0414733886719,378.0414733886719,0.0,,,,,,379.39296862775115,379.39296862775115,,1.0,1.0,0.0,'2',0.9816017150878906,0.9816017150878906,0.0,378.3583679199219,378.3583679199219,0.0,,'space',0.20113803446292877,0.20113803446292877,0.0,378.0414733886719,378.0414733886719,0.0,,204.0
Images/exp1b_trial_51_colour3_distractors4_r.png,r,2,1b,51,3,4,1.0,146.69739710715734,146.69739710715734,,145.86294555664062,145.86294555664062,0.0,,145.02915954589844,145.02915954589844,0.0,,,,,,146.69739710715734,146.69739710715734,,1.0,1.0,0.0,'2',0.7812182307243347,0.7812182307243347,0.0,145.86294555664062,145.86294555664062,0.0,,'space',0.7177799940109253,0.7177799940109253,0.0,145.02915954589844,145.02915954589844,0.0,,34.0
Images/exp1b_trial_52_colour3_distractors9_r.png,r,2,1b,52,3,9,1.0,162.04568734374115,162.04568734374115,,160.86102294921875,160.86102294921875,0.0,,160.21054077148438,160.21054077148438,0.0,,,,,,162.04568734374115,162.04568734374115,,1.0,1.0,0.0,'2',1.1272016763687134,1.1272016763687134,0.0,160.86102294921875,160.86102294921875,0.0,,'space',0.5436814427375793,0.5436814427375793,0.0,160.21054077148438,160.21054077148438,0.0,,44.0
Images/exp1b_trial_53_colour3_distractors19_r.png,r,2,1b,53,3,19,1.0,648.5744818518136,648.5744818518136,,647.3065795898438,647.3065795898438,0.0,,646.9896240234375,646.9896240234375,0.0,,,,,,648.5744818518136,648.5744818518136,,1.0,1.0,0.0,'2',1.193104863166809,1.193104863166809,0.0,647.3065795898438,647.3065795898438,0.0,,'space',0.18890485167503357,0.18890485167503357,0.0,646.9896240234375,646.9896240234375,0.0,,430.0
Images/exp1b_trial_54_colour3_distractors31_r.png,r,2,1b,54,3,31,1.0,357.65485630025756,357.65485630025756,,356.4201354980469,356.4201354980469,0.0,,356.0867614746094,356.0867614746094,0.0,,,,,,357.65485630025756,357.65485630025756,,1.0,1.0,0.0,'2',1.1758108139038086,1.1758108139038086,0.0,356.4201354980469,356.4201354980469,0.0,,'space',0.22799032926559448,0.22799032926559448,0.0,356.0867614746094,356.0867614746094,0.0,,184.0
Images/exp1b_trial_55_colour3_distractors43_r.png,r,2,1b,55,3,43,1.0,657.5166157177082,657.5166157177082,,654.2966918945312,654.2966918945312,0.0,,654.0299682617188,654.0299682617188,0.0,,,,,,657.5166157177082,657.5166157177082,,1.0,1.0,0.0,'2',3.1630170345306396,3.1630170345306396,0.0,654.2966918945312,654.2966918945312,0.0,,'space',0.1398015320301056,0.1398015320301056,0.0,654.0299682617188,654.0299682617188,0.0,,436.0
Images/exp1b_trial_56_colour1_distractors1_l.png,l,1,1b,56,1,1,1.0,110.27819795246303,110.27819795246303,,109.5773696899414,109.5773696899414,0.0,,108.81009674072266,108.81009674072266,0.0,,,,,,110.27819795246303,110.27819795246303,,1.0,1.0,0.0,'1',0.6508006453514099,0.6508006453514099,0.0,109.5773696899414,109.5773696899414,0.0,,'space',0.6645410060882568,0.6645410060882568,0.0,108.81009674072266,108.81009674072266,0.0,,14.0
Images/exp1b_trial_57_colour1_distractors4_l.png,l,1,1b,57,1,4,1.0,229.94595399777845,229.94595399777845,,228.52757263183594,228.52757263183594,0.0,,227.8606719970703,227.8606719970703,0.0,,,,,,229.94595399777845,229.94595399777845,,1.0,1.0,0.0,'1',1.3565144538879395,1.3565144538879395,0.0,228.52757263183594,228.52757263183594,0.0,,'space',0.5574916005134583,0.5574916005134583,0.0,227.8606719970703,227.8606719970703,0.0,,83.0
Images/exp1b_trial_58_colour1_distractors9_l.png,l,1,1b,58,1,9,1.0,587.7313296574139,587.7313296574139,,586.5800170898438,586.5800170898438,0.0,,586.3298950195312,586.3298950195312,0.0,,,,,,587.7313296574139,587.7313296574139,,1.0,1.0,0.0,'1',1.095974326133728,1.095974326133728,0.0,586.5800170898438,586.5800170898438,0.0,,'space',0.143917977809906,0.143917977809906,0.0,586.3298950195312,586.3298950195312,0.0,,377.0
Images/exp1b_trial_59_colour1_distractors19_l.png,l,1,1b,59,1,19,1.0,705.2970858134486,705.2970858134486,,704.2791748046875,704.2791748046875,0.0,,704.0125122070312,704.0125122070312,0.0,,,,,,705.2970858134486,705.2970858134486,,1.0,1.0,0.0,'1',0.9564934372901917,0.9564934372901917,0.0,704.2791748046875,704.2791748046875,0.0,,'space',0.14173880219459534,0.14173880219459534,0.0,704.0125122070312,704.0125122070312,0.0,,472.0
Images/exp1b_trial_60_colour1_distractors31_l.png,l,1,1b,60,1,31,1.0,804.6615829707494,804.6615829707494,,802.7427368164062,802.7427368164062,0.0,,802.4759521484375,802.4759521484375,0.0,,,,,,804.6615829707494,804.6615829707494,,1.0,1.0,0.0,'1',1.8692220449447632,1.8692220449447632,0.0,802.7427368164062,802.7427368164062,0.0,,'space',0.14972689747810364,0.14972689747810364,0.0,802.4759521484375,802.4759521484375,0.0,,548.0
Images/exp1b_trial_61_colour1_distractors43_l.png,l,1,1b,61,1,43,1.0,312.2768018027387,312.2768018027387,,311.0087890625,311.0087890625,0.0,,310.64202880859375,310.64202880859375,0.0,,,,,,312.2768018027387,312.2768018027387,,1.0,1.0,0.0,'1',1.211274266242981,1.211274266242981,0.0,311.0087890625,311.0087890625,0.0,,'space',0.25656387209892273,0.25656387209892273,0.0,310.64202880859375,310.64202880859375,0.0,,146.0
Images/exp1b_trial_62_colour2_distractors1_l.png,l,1,1b,62,2,1,1.0,722.0468636550836,722.0468636550836,,721.0958251953125,721.0958251953125,0.0,,720.8121948242188,720.8121948242188,0.0,,,,,,722.0468636550836,722.0468636550836,,1.0,1.0,0.0,'1',0.8998787999153137,0.8998787999153137,0.0,721.0958251953125,721.0958251953125,0.0,,'space',0.18242265284061432,0.18242265284061432,0.0,720.8121948242188,720.8121948242188,0.0,,483.0
Images/exp1b_trial_63_colour2_distractors4_l.png,l,1,1b,63,2,4,1.0,579.2230277985154,579.2230277985154,,578.2217407226562,578.2217407226562,0.0,,577.9551391601562,577.9551391601562,0.0,,,,,,579.2230277985154,579.2230277985154,,1.0,1.0,0.0,'1',0.9421274662017822,0.9421274662017822,0.0,578.2217407226562,578.2217407226562,0.0,,'space',0.16661125421524048,0.16661125421524048,0.0,577.9551391601562,577.9551391601562,0.0,,370.0
Images/exp1b_trial_64_colour2_distractors9_l.png,l,1,1b,64,2,9,1.0,104.93955756485646,104.93955756485646,,104.0052261352539,104.0052261352539,0.0,,103.18767547607422,103.18767547607422,0.0,,,,,,104.93955756485646,104.93955756485646,,1.0,1.0,0.0,'1',0.8709254264831543,0.8709254264831543,0.0,104.0052261352539,104.0052261352539,0.0,,'space',0.6866029500961304,0.6866029500961304,0.0,103.18767547607422,103.18767547607422,0.0,,11.0
Images/exp1b_trial_65_colour2_distractors19_l.png,l,1,1b,65,2,19,1.0,347.7117746013392,347.7117746013392,,346.59381103515625,346.59381103515625,0.0,,346.2604064941406,346.2604064941406,0.0,,,,,,347.7117746013392,347.7117746013392,,1.0,1.0,0.0,'1',1.0582226514816284,1.0582226514816284,0.0,346.59381103515625,346.59381103515625,0.0,,'space',0.2139478623867035,0.2139478623867035,0.0,346.2604064941406,346.2604064941406,0.0,,176.0
Images/exp1b_trial_66_colour2_distractors31_l.png,l,1,1b,66,2,31,1.0,97.01508820895074,97.01508820895074,,96.16424560546875,96.16424560546875,0.0,,95.4301986694336,95.4301986694336,0.0,,,,,,97.01508820895074,97.01508820895074,,1.0,1.0,0.0,'1',0.7440387010574341,0.7440387010574341,0.0,96.16424560546875,96.16424560546875,0.0,,'space',0.628759503364563,0.628759503364563,0.0,95.4301986694336,95.4301986694336,0.0,,6.0
Images/exp1b_trial_67_colour2_distractors43_l.png,l,1,1b,67,2,43,1.0,394.05733461801725,394.05733461801725,,392.87274169921875,392.87274169921875,0.0,,392.5727844238281,392.5727844238281,0.0,,,,,,394.05733461801725,394.05733461801725,,1.0,1.0,0.0,'1',1.1312886476516724,1.1312886476516724,0.0,392.87274169921875,392.87274169921875,0.0,,'space',0.19703087210655212,0.19703087210655212,0.0,392.5727844238281,392.5727844238281,0.0,,217.0
Images/exp1b_trial_68_colour3_distractors1_l.png,l,1,1b,68,3,1,1.0,336.8678624125328,336.8678624125328,,335.79986572265625,335.79986572265625,0.0,,335.4665222167969,335.4665222167969,0.0,,,,,,336.8678624125328,336.8678624125328,,1.0,1.0,0.0,'1',1.004237413406372,1.004237413406372,0.0,335.79986572265625,335.79986572265625,0.0,,'space',0.2315717339515686,0.2315717339515686,0.0,335.4665222167969,335.4665222167969,0.0,,168.0
Images/exp1b_trial_69_colour3_distractors4_l.png,l,1,1b,69,3,4,1.0,237.40333271147128,237.40333271147128,,236.61891174316406,236.61891174316406,0.0,,236.01870727539062,236.01870727539062,0.0,,,,,,237.40333271147128,237.40333271147128,,1.0,1.0,0.0,'1',0.7291799187660217,0.7291799187660217,0.0,236.61891174316406,236.61891174316406,0.0,,'space',0.5118387937545776,0.5118387937545776,0.0,236.01870727539062,236.01870727539062,0.0,,88.0
Images/exp1b_trial_70_colour3_distractors9_l.png,l,1,1b,70,3,9,1.0,581.5918250841673,581.5918250841673,,580.5907592773438,580.5907592773438,0.0,,580.2907104492188,580.2907104492188,0.0,,,,,,581.5918250841673,581.5918250841673,,1.0,1.0,0.0,'1',0.9410161375999451,0.9410161375999451,0.0,580.5907592773438,580.5907592773438,0.0,,'space',0.1911381185054779,0.1911381185054779,0.0,580.2907104492188,580.2907104492188,0.0,,372.0
Images/exp1b_trial_71_colour3_distractors19_l.png,l,1,1b,71,3,19,1.0,418.5313589691978,418.5313589691978,,417.0965270996094,417.0965270996094,0.0,,416.813232421875,416.813232421875,0.0,,,,,,418.5313589691978,418.5313589691978,,1.0,1.0,0.0,'1',1.3794394731521606,1.3794394731521606,0.0,417.0965270996094,417.0965270996094,0.0,,'space',0.17332927882671356,0.17332927882671356,0.0,416.813232421875,416.813232421875,0.0,,237.0
Images/exp1b_trial_72_colour3_distractors31_l.png,l,1,1b,72,3,31,1.0,676.6188792850485,676.6188792850485,,674.9002685546875,674.9002685546875,0.0,,674.5668334960938,674.5668334960938,0.0,,,,,,676.6188792850485,676.6188792850485,,1.0,1.0,0.0,'1',1.6635342836380005,1.6635342836380005,0.0,674.9002685546875,674.9002685546875,0.0,,'space',0.21952702105045319,0.21952702105045319,0.0,674.5668334960938,674.5668334960938,0.0,,452.0
Images/exp1b_trial_73_colour3_distractors43_l.png,l,1,1b,73,3,43,1.0,126.81115210992046,126.81115210992046,,121.85601043701172,121.85601043701172,0.0,,121.12206268310547,121.12206268310547,0.0,,,,,,126.81115210992046,126.81115210992046,,0.0,0.0,0.0,,,,,121.85601043701172,121.85601043701172,0.0,,'space',0.6323166489601135,0.6323166489601135,0.0,121.12206268310547,121.12206268310547,0.0,,21.0
Images/exp1b_trial_74_colour0_distractors0_r.png,r,2,1b,74,0,0,1.0,294.8763820298282,294.8763820298282,,294.1087951660156,294.1087951660156,0.0,,293.7085266113281,293.7085266113281,0.0,,,,,,294.8763820298282,294.8763820298282,,1.0,1.0,0.0,'2',0.71122807264328,0.71122807264328,0.0,294.1087951660156,294.1087951660156,0.0,,'space',0.29375430941581726,0.29375430941581726,0.0,293.7085266113281,293.7085266113281,0.0,,132.0
Images/exp1b_trial_75_colour0_distractors0_l.png,l,1,1b,75,0,0,1.0,665.9415524301739,665.9415524301739,,665.190673828125,665.190673828125,0.0,,664.8906860351562,664.8906860351562,0.0,,,,,,665.9415524301739,665.9415524301739,,1.0,1.0,0.0,'1',0.7012709975242615,0.7012709975242615,0.0,665.190673828125,665.190673828125,0.0,,'space',0.19176754355430603,0.19176754355430603,0.0,664.8906860351562,664.8906860351562,0.0,,444.0
Images/exp1b_trial_76_colour1_distractors1_r.png,r,2,1b,76,1,1,1.0,593.9207676231504,593.9207676231504,,593.1364135742188,593.1364135742188,0.0,,592.8362426757812,592.8362426757812,0.0,,,,,,593.9207676231504,593.9207676231504,,1.0,1.0,0.0,'2',0.7313296794891357,0.7313296794891357,0.0,593.1364135742188,593.1364135742188,0.0,,'space',0.1896088421344757,0.1896088421344757,0.0,592.8362426757812,592.8362426757812,0.0,,382.0
Images/exp1b_trial_77_colour1_distractors4_r.png,r,2,1b,77,1,4,1.0,473.16854787948756,473.16854787948756,,472.5010070800781,472.5010070800781,0.0,,472.2008361816406,472.2008361816406,0.0,,,,,,473.16854787948756,473.16854787948756,,1.0,1.0,0.0,'2',0.6068652868270874,0.6068652868270874,0.0,472.5010070800781,472.5010070800781,0.0,,'space',0.18513047695159912,0.18513047695159912,0.0,472.2008361816406,472.2008361816406,0.0,,281.0
Images/exp1b_trial_78_colour1_distractors9_r.png,r,2,1b,78,1,9,1.0,805.795950941801,805.795950941801,,805.0118408203125,805.0118408203125,0.0,,804.6614379882812,804.6614379882812,0.0,,,,,,805.795950941801,805.795950941801,,1.0,1.0,0.0,'2',0.7357990741729736,0.7357990741729736,0.0,805.0118408203125,805.0118408203125,0.0,,'space',0.22011134028434753,0.22011134028434753,0.0,804.6614379882812,804.6614379882812,0.0,,549.0
Images/exp1b_trial_79_colour1_distractors19_r.png,r,2,1b,79,1,19,1.0,390.6540575861364,390.6540575861364,,389.8863525390625,389.8863525390625,0.0,,389.5863342285156,389.5863342285156,0.0,,,,,,390.6540575861364,390.6540575861364,,1.0,1.0,0.0,'2',0.7177828550338745,0.7177828550338745,0.0,389.8863525390625,389.8863525390625,0.0,,'space',0.19152210652828217,0.19152210652828217,0.0,389.5863342285156,389.5863342285156,0.0,,214.0
Images/exp1b_trial_80_colour1_distractors31_r.png,r,2,1b,80,1,31,1.0,98.85020750247291,98.85020750247291,,97.69890594482422,97.69890594482422,0.0,,97.0150375366211,97.0150375366211,0.0,,,,,,98.85020750247291,98.85020750247291,,1.0,1.0,0.0,'2',1.0734212398529053,1.0734212398529053,0.0,97.69890594482422,97.69890594482422,0.0,,'space',0.5711541771888733,0.5711541771888733,0.0,97.0150375366211,97.0150375366211,0.0,,7.0
Images/exp1b_trial_81_colour1_distractors43_r.png,r,2,1b,81,1,43,1.0,534.6124143726302,534.6124143726302,,533.694580078125,533.694580078125,0.0,,533.4111938476562,533.4111938476562,0.0,,,,,,534.6124143726302,534.6124143726302,,1.0,1.0,0.0,'2',0.861345648765564,0.861345648765564,0.0,533.694580078125,533.694580078125,0.0,,'space',0.1750713586807251,0.1750713586807251,0.0,533.4111938476562,533.4111938476562,0.0,,332.0
Images/exp1b_trial_82_colour2_distractors1_r.png,r,2,1b,82,2,1,1.0,491.38648003550685,491.38648003550685,,490.1517333984375,490.1517333984375,0.0,,489.851806640625,489.851806640625,0.0,,,,,,491.38648003550685,491.38648003550685,,1.0,1.0,0.0,'2',1.1801061630249023,1.1801061630249023,0.0,490.1517333984375,490.1517333984375,0.0,,'space',0.19795821607112885,0.19795821607112885,0.0,489.851806640625,489.851806640625,0.0,,296.0
Images/exp1b_trial_83_colour2_distractors4_r.png,r,2,1b,83,2,4,1.0,177.36085302412184,177.36085302412184,,176.37632751464844,176.37632751464844,0.0,,175.6923828125,175.6923828125,0.0,,,,,,177.36085302412184,177.36085302412184,,1.0,1.0,0.0,'2',0.931756317615509,0.931756317615509,0.0,176.37632751464844,176.37632751464844,0.0,,'space',0.5746079087257385,0.5746079087257385,0.0,175.6923828125,175.6923828125,0.0,,54.0
Images/exp1b_trial_84_colour2_distractors9_r.png,r,2,1b,84,2,9,1.0,674.5666623893649,674.5666623893649,,672.9817504882812,672.9817504882812,0.0,,672.5814208984375,672.5814208984375,0.0,,,,,,674.5666623893649,674.5666623893649,,1.0,1.0,0.0,'2',1.533913493156433,1.533913493156433,0.0,672.9817504882812,672.9817504882812,0.0,,'space',0.2684415578842163,0.2684415578842163,0.0,672.5814208984375,672.5814208984375,0.0,,451.0
Images/exp1b_trial_85_colour2_distractors19_r.png,r,2,1b,85,2,19,1.0,592.8363048847959,592.8363048847959,,591.3847045898438,591.3847045898438,0.0,,591.1346435546875,591.1346435546875,0.0,,,,,,592.8363048847959,592.8363048847959,,1.0,1.0,0.0,'2',1.4031022787094116,1.4031022787094116,0.0,591.3847045898438,591.3847045898438,0.0,,'space',0.14715507626533508,0.14715507626533508,0.0,591.1346435546875,591.1346435546875,0.0,,381.0
Images/exp1b_trial_86_colour2_distractors31_r.png,r,2,1b,86,2,31,1.0,536.9646514601654,536.9646514601654,,535.996826171875,535.996826171875,0.0,,535.7133178710938,535.7133178710938,0.0,,,,,,536.9646514601654,536.9646514601654,,1.0,1.0,0.0,'2',0.9190041422843933,0.9190041422843933,0.0,535.996826171875,535.996826171875,0.0,,'space',0.16847683489322662,0.16847683489322662,0.0,535.7133178710938,535.7133178710938,0.0,,334.0
Images/exp1b_trial_87_colour2_distractors43_r.png,r,2,1b,87,2,43,1.0,157.3577298471083,157.3577298471083,,156.35670471191406,156.35670471191406,0.0,,155.55604553222656,155.55604553222656,0.0,,,,,,157.3577298471083,157.3577298471083,,1.0,1.0,0.0,'2',0.9194965958595276,0.9194965958595276,0.0,156.35670471191406,156.35670471191406,0.0,,'space',0.678249716758728,0.678249716758728,0.0,155.55604553222656,155.55604553222656,0.0,,41.0
Images/exp1b_trial_88_colour3_distractors1_r.png,r,2,1b,88,3,1,1.0,564.6086300804825,564.6086300804825,,563.9576416015625,563.9576416015625,0.0,,563.64111328125,563.64111328125,0.0,,'space',0.23530098795890808,0.23530098795890808,0.0,564.6086300804825,564.6086300804825,,1.0,1.0,0.0,'2',0.5900849103927612,0.5900849103927612,0.0,563.9576416015625,563.9576416015625,0.0,,'space',0.20073868334293365,0.20073868334293365,0.0,563.64111328125,563.64111328125,0.0,,359.0
Images/exp1b_trial_89_colour3_distractors4_r.png,r,2,1b,89,3,4,1.0,204.87119870797764,204.87119870797764,,203.75335693359375,203.75335693359375,0.0,,203.13609313964844,203.13609313964844,0.0,,,,,,204.87119870797764,204.87119870797764,,1.0,1.0,0.0,'2',1.0427151918411255,1.0427151918411255,0.0,203.75335693359375,203.75335693359375,0.0,,'space',0.4980459213256836,0.4980459213256836,0.0,203.13609313964844,203.13609313964844,0.0,,68.0
Images/exp1b_trial_90_colour3_distractors9_r.png,r,2,1b,90,3,9,1.0,678.8042868804487,678.8042868804487,,678.03662109375,678.03662109375,0.0,,677.7366333007812,677.7366333007812,0.0,,,,,,678.8042868804487,678.8042868804487,,1.0,1.0,0.0,'2',0.7191054224967957,0.7191054224967957,0.0,678.03662109375,678.03662109375,0.0,,'space',0.19376881420612335,0.19376881420612335,0.0,677.7366333007812,677.7366333007812,0.0,,454.0
Images/exp1b_trial_91_colour3_distractors19_r.png,r,2,1b,91,3,19,1.0,569.129757764983,569.129757764983,,567.5278930664062,567.5278930664062,0.0,,566.7440795898438,566.7440795898438,0.0,,,,,,569.129757764983,569.129757764983,,1.0,1.0,0.0,'2',1.5400391817092896,1.5400391817092896,0.0,567.5278930664062,567.5278930664062,0.0,,'space',0.6825818419456482,0.6825818419456482,0.0,566.7440795898438,566.7440795898438,0.0,,361.0
Images/exp1b_trial_92_colour3_distractors31_r.png,r,2,1b,92,3,31,1.0,315.59679208761014,315.59679208761014,,314.662353515625,314.662353515625,0.0,,314.3123779296875,314.3123779296875,0.0,,,,,,315.59679208761014,315.59679208761014,,1.0,1.0,0.0,'2',0.877723753452301,0.877723753452301,0.0,314.662353515625,314.662353515625,0.0,,'space',0.25034311413764954,0.25034311413764954,0.0,314.3123779296875,314.3123779296875,0.0,,149.0
Images/exp1b_trial_93_colour3_distractors43_r.png,r,2,1b,93,3,43,1.0,344.2583964982019,344.2583964982019,,341.72247314453125,341.72247314453125,0.0,,341.38885498046875,341.38885498046875,0.0,,,,,,344.2583964982019,344.2583964982019,,1.0,1.0,0.0,'2',2.473814010620117,2.473814010620117,0.0,341.72247314453125,341.72247314453125,0.0,,'space',0.20569896697998047,0.20569896697998047,0.0,341.38885498046875,341.38885498046875,0.0,,173.0
Images/exp1b_trial_94_colour1_distractors1_l.png,l,1,1b,94,1,1,1.0,453.7494808838206,453.7494808838206,,452.71484375,452.71484375,0.0,,452.3982238769531,452.3982238769531,0.0,,,,,,453.7494808838206,453.7494808838206,,1.0,1.0,0.0,'1',0.9770916700363159,0.9770916700363159,0.0,452.71484375,452.71484375,0.0,,'space',0.2044413685798645,0.2044413685798645,0.0,452.3982238769531,452.3982238769531,0.0,,265.0
Images/exp1b_trial_95_colour1_distractors4_l.png,l,1,1b,95,1,4,1.0,644.2202130992314,644.2202130992314,,643.4694213867188,643.4694213867188,0.0,,643.152587890625,643.152587890625,0.0,,,,,,644.2202130992314,644.2202130992314,,1.0,1.0,0.0,'1',0.6863165497779846,0.6863165497779846,0.0,643.4694213867188,643.4694213867188,0.0,,'space',0.19317105412483215,0.19317105412483215,0.0,643.152587890625,643.152587890625,0.0,,426.0
Images/exp1b_trial_96_colour1_distractors9_l.png,l,1,1b,96,1,9,1.0,715.3570117723934,715.3570117723934,,714.3890991210938,714.3890991210938,0.0,,713.572021484375,713.572021484375,0.0,,,,,,715.3570117723934,715.3570117723934,,1.0,1.0,0.0,'1',0.9106032252311707,0.9106032252311707,0.0,714.3890991210938,714.3890991210938,0.0,,'space',0.7096492052078247,0.7096492052078247,0.0,713.572021484375,713.572021484375,0.0,,478.0
Images/exp1b_trial_97_colour1_distractors19_l.png,l,1,1b,97,1,19,1.0,451.2803851363656,451.2803851363656,,450.4127197265625,450.4127197265625,0.0,,450.07928466796875,450.07928466796875,0.0,,,,,,451.2803851363656,451.2803851363656,,1.0,1.0,0.0,'1',0.807155966758728,0.807155966758728,0.0,450.4127197265625,450.4127197265625,0.0,,'space',0.21892958879470825,0.21892958879470825,0.0,450.07928466796875,450.07928466796875,0.0,,263.0
Images/exp1b_trial_98_colour1_distractors31_l.png,l,1,1b,98,1,31,1.0,504.48277628676675,504.48277628676675,,503.4314270019531,503.4314270019531,0.0,,503.0978698730469,503.0978698730469,0.0,,,,,,504.48277628676675,504.48277628676675,,1.0,1.0,0.0,'1',0.9884119033813477,0.9884119033813477,0.0,503.4314270019531,503.4314270019531,0.0,,'space',0.2239353060722351,0.2239353060722351,0.0,503.0978698730469,503.0978698730469,0.0,,306.0
Images/exp1b_trial_99_colour1_distractors43_l.png,l,1,1b,99,1,43,1.0,132.01616564102105,132.01616564102105,,131.18186950683594,131.18186950683594,0.0,,130.4480743408203,130.4480743408203,0.0,,,,,,132.01616564102105,132.01616564102105,,1.0,1.0,0.0,'1',0.774345338344574,0.774345338344574,0.0,131.18186950683594,131.18186950683594,0.0,,'space',0.618218183517456,0.618218183517456,0.0,130.4480743408203,130.4480743408203,0.0,,24.0
Images/exp1b_trial_100_colour2_distractors1_l.png,l,1,1b,100,2,1,1.0,292.4406050771468,292.4406050771468,,291.5063171386719,291.5063171386719,0.0,,291.139404296875,291.139404296875,0.0,,,,,,292.4406050771468,292.4406050771468,,1.0,1.0,0.0,'1',0.8817154169082642,0.8817154169082642,0.0,291.5063171386719,291.5063171386719,0.0,,'space',0.2549104392528534,0.2549104392528534,0.0,291.139404296875,291.139404296875,0.0,,130.0
Images/exp1b_trial_101_colour2_distractors4_l.png,l,1,1b,101,2,4,1.0,364.0777818275256,364.0777818275256,,362.9598693847656,362.9598693847656,0.0,,362.6431579589844,362.6431579589844,0.0,,,,,,364.0777818275256,364.0777818275256,,1.0,1.0,0.0,'1',1.0683258771896362,1.0683258771896362,0.0,362.9598693847656,362.9598693847656,0.0,,'space',0.2149190604686737,0.2149190604686737,0.0,362.6431579589844,362.6431579589844,0.0,,190.0
Images/exp1b_trial_102_colour2_distractors9_l.png,l,1,1b,102,2,9,1.0,370.4508552417056,370.4508552417056,,369.6831970214844,369.6831970214844,0.0,,369.3665466308594,369.3665466308594,0.0,,,,,,370.4508552417056,370.4508552417056,,1.0,1.0,0.0,'1',0.7129029035568237,0.7129029035568237,0.0,369.6831970214844,369.6831970214844,0.0,,'space',0.20391562581062317,0.20391562581062317,0.0,369.3665466308594,369.3665466308594,0.0,,196.0
Images/exp1b_trial_103_colour2_distractors19_l.png,l,1,1b,103,2,19,1.0,489.8515790123784,489.8515790123784,,488.8672790527344,488.8672790527344,0.0,,488.5504455566406,488.5504455566406,0.0,,,,,,489.8515790123784,489.8515790123784,,1.0,1.0,0.0,'1',0.9206255674362183,0.9206255674362183,0.0,488.8672790527344,488.8672790527344,0.0,,'space',0.21999326348304749,0.21999326348304749,0.0,488.5504455566406,488.5504455566406,0.0,,295.0
Images/exp1b_trial_104_colour2_distractors31_l.png,l,1,1b,104,2,31,1.0,224.9744542680165,224.9744542680165,,221.03688049316406,221.03688049316406,0.0,,220.33648681640625,220.33648681640625,0.0,,,,,,224.9744542680165,224.9744542680165,,1.0,1.0,0.0,'1',3.8793115615844727,3.8793115615844727,0.0,221.03688049316406,221.03688049316406,0.0,,'space',0.5945847630500793,0.5945847630500793,0.0,220.33648681640625,220.33648681640625,0.0,,80.0
Images/exp1b_trial_105_colour2_distractors43_l.png,l,1,1b,105,2,43,1.0,523.568243497728,523.568243497728,,522.2333374023438,522.2333374023438,0.0,,521.8832397460938,521.8832397460938,0.0,,,,,,523.568243497728,523.568243497728,,1.0,1.0,0.0,'1',1.274548053741455,1.274548053741455,0.0,522.2333374023438,522.2333374023438,0.0,,'space',0.24650155007839203,0.24650155007839203,0.0,521.8832397460938,521.8832397460938,0.0,,322.0
Images/exp1b_trial_106_colour3_distractors1_l.png,l,1,1b,106,3,1,1.0,107.29180713229955,107.29180713229955,,105.64002227783203,105.64002227783203,0.0,,104.93971252441406,104.93971252441406,0.0,,,,,,107.29180713229955,107.29180713229955,,1.0,1.0,0.0,'1',1.5961741209030151,1.5961741209030151,0.0,105.64002227783203,105.64002227783203,0.0,,'space',0.5913223624229431,0.5913223624229431,0.0,104.93971252441406,104.93971252441406,0.0,,12.0
Images/exp1b_trial_107_colour3_distractors4_l.png,l,1,1b,107,3,4,1.0,116.48416507654504,116.48416507654504,,114.54883575439453,114.54883575439453,0.0,,113.86516571044922,113.86516571044922,0.0,,,,,,116.48416507654504,116.48416507654504,,1.0,1.0,0.0,'1',1.8715286254882812,1.8715286254882812,0.0,114.54883575439453,114.54883575439453,0.0,,'space',0.5775122046470642,0.5775122046470642,0.0,113.86516571044922,113.86516571044922,0.0,,17.0
Images/exp1b_trial_108_colour3_distractors9_l.png,l,1,1b,108,3,9,1.0,646.1053573045701,646.1053573045701,,645.42138671875,645.42138671875,0.0,,645.1378784179688,645.1378784179688,0.0,,,,,,646.1053573045701,646.1053573045701,,1.0,1.0,0.0,'1',0.6225451827049255,0.6225451827049255,0.0,645.42138671875,645.42138671875,0.0,,'space',0.1684390753507614,0.1684390753507614,0.0,645.1378784179688,645.1378784179688,0.0,,428.0
Images/exp1b_trial_109_colour3_distractors19_l.png,l,1,1b,109,3,19,1.0,672.5646905638773,672.5646905638773,,671.4804077148438,671.4804077148438,0.0,,671.1969604492188,671.1969604492188,0.0,,,,,,672.5646905638773,672.5646905638773,,1.0,1.0,0.0,'1',1.0192927122116089,1.0192927122116089,0.0,671.4804077148438,671.4804077148438,0.0,,'space',0.165554940700531,0.165554940700531,0.0,671.1969604492188,671.1969604492188,0.0,,450.0
Images/exp1b_trial_110_colour3_distractors31_l.png,l,1,1b,110,3,31,1.0,218.86838272870327,218.86838272870327,,217.933837890625,217.933837890625,0.0,,217.21685791015625,217.21685791015625,0.0,,,,,,218.86838272870327,218.86838272870327,,1.0,1.0,0.0,'1',0.886396050453186,0.886396050453186,0.0,217.933837890625,217.933837890625,0.0,,'space',0.609542727470398,0.609542727470398,0.0,217.21685791015625,217.21685791015625,0.0,,78.0
Images/exp1b_trial_111_colour3_distractors43_l.png,l,1,1b,111,3,43,1.0,546.5075098647272,546.5075098647272,,545.673095703125,545.673095703125,0.0,,545.4061279296875,545.4061279296875,0.0,,,,,,546.5075098647272,546.5075098647272,,1.0,1.0,0.0,'1',0.7147864103317261,0.7147864103317261,0.0,545.673095703125,545.673095703125,0.0,,'space',0.1640007197856903,0.1640007197856903,0.0,545.4061279296875,545.4061279296875,0.0,,342.0
Images/exp1b_trial_112_colour0_distractors0_r.png,r,2,1b,112,0,0,1.0,575.9031232730126,575.9031232730126,,575.152099609375,575.152099609375,0.0,,574.835205078125,574.835205078125,0.0,,,,,,575.9031232730126,575.9031232730126,,1.0,1.0,0.0,'2',0.699700117111206,0.699700117111206,0.0,575.152099609375,575.152099609375,0.0,,'space',0.19891181588172913,0.19891181588172913,0.0,574.835205078125,574.835205078125,0.0,,367.0
Images/exp1b_trial_113_colour0_distractors0_l.png,l,1,1b,113,0,0,1.0,559.3200312445701,559.3200312445701,,558.6358032226562,558.6358032226562,0.0,,558.369140625,558.369140625,0.0,,,,,,559.3200312445701,559.3200312445701,,1.0,1.0,0.0,'1',0.6240286827087402,0.6240286827087402,0.0,558.6358032226562,558.6358032226562,0.0,,'space',0.161514014005661,0.161514014005661,0.0,558.369140625,558.369140625,0.0,,354.0
Images/exp2a_trial_0_colour1_distractors1_r.png,r,2,2a,0,1,1,1.0,361.6755585478891,361.6755585478891,,360.9579162597656,360.9579162597656,0.0,,360.6079406738281,360.6079406738281,0.0,,,,,,361.6755585478891,361.6755585478891,,1.0,1.0,0.0,'2',0.6621301770210266,0.6621301770210266,0.0,360.9579162597656,360.9579162597656,0.0,,'space',0.23467667400836945,0.23467667400836945,0.0,360.6079406738281,360.6079406738281,0.0,,188.0
Images/exp2a_trial_1_colour1_distractors4_r.png,r,2,2a,1,1,4,1.0,285.60065701916443,285.60065701916443,,284.8164367675781,284.8164367675781,0.0,,284.316162109375,284.316162109375,0.0,,,,,,285.60065701916443,285.60065701916443,,1.0,1.0,0.0,'2',0.7316547632217407,0.7316547632217407,0.0,284.8164367675781,284.8164367675781,0.0,,'space',0.3745162785053253,0.3745162785053253,0.0,284.316162109375,284.316162109375,0.0,,125.0
Images/exp2a_trial_2_colour1_distractors9_r.png,r,2,2a,2,1,9,1.0,561.555530951292,561.555530951292,,560.7044677734375,560.7044677734375,0.0,,560.3878173828125,560.3878173828125,0.0,,,,,,561.555530951292,561.555530951292,,1.0,1.0,0.0,'2',0.7874178886413574,0.7874178886413574,0.0,560.7044677734375,560.7044677734375,0.0,,'space',0.2065812051296234,0.2065812051296234,0.0,560.3878173828125,560.3878173828125,0.0,,356.0
Images/exp2a_trial_3_colour1_distractors19_r.png,r,2,2a,3,1,19,1.0,681.8239580956683,681.8239580956683,,681.0896606445312,681.0896606445312,0.0,,680.8062133789062,680.8062133789062,0.0,,,,,,681.8239580956683,681.8239580956683,,1.0,1.0,0.0,'2',0.6820692420005798,0.6820692420005798,0.0,681.0896606445312,681.0896606445312,0.0,,'space',0.17145410180091858,0.17145410180091858,0.0,680.8062133789062,680.8062133789062,0.0,,457.0
Images/exp2a_trial_4_colour1_distractors31_r.png,r,2,2a,4,1,31,1.0,289.9550435308798,289.9550435308798,,288.8037414550781,288.8037414550781,0.0,,288.2033386230469,288.2033386230469,0.0,,,,,,289.9550435308798,289.9550435308798,,1.0,1.0,0.0,'2',1.096380352973938,1.096380352973938,0.0,288.8037414550781,288.8037414550781,0.0,,'space',0.4707184433937073,0.4707184433937073,0.0,288.2033386230469,288.2033386230469,0.0,,128.0
