ImageFile,targ_side,correctAnswer,exp,trial,colour,distNo,trials_2.thisRepN,trials_2.thisTrialN,trials_2.thisN,trials_2.thisIndex,trials.thisRepN,trials.thisTrialN,trials.thisN,trials.thisIndex,text_2.started,text_2.stopped,key_resp_5.keys,key_resp_5.rt,key_resp_5.started,key_resp_5.stopped,text_5.started,text_5.stopped,key_resp_8.keys,key_resp_8.rt,key_resp_8.started,key_resp_8.stopped,image_2.started,image_2.stopped,key_resp_6.keys,key_resp_6.rt,key_resp_6.started,key_resp_6.stopped,text_3.started,text_3.stopped,image_3.started,image_3.stopped,fix.started,fix.stopped,key_resp_7.keys,key_resp_7.rt,key_resp_7.started,key_resp_7.stopped,image.started,image.stopped,key_resp_4.keys,key_resp_4.corr,key_resp_4.rt,key_resp_4.started,key_resp_4.stopped,text_4.started,text_4.stopped,text.started,text.stopped,key_resp_3.keys,key_resp_3.rt,key_resp_3.started,key_resp_3.stopped,fix2experiment.started,fix2experiment.stopped,key_resp_9.keys,key_resp_9.rt,key_resp_9.started,key_resp_9.stopped,dispStimuli.started,dispStimuli.stopped,key_resp_2.keys,key_resp_2.corr,key_resp_2.rt,key_resp_2.started,key_resp_2.stopped,breakMessage.started,breakMessage.stopped,key_resp.keys,key_resp.started,key_resp.stopped,key_resp.rt,participant,session,date,expName,psychopyVersion,frameRate,
,,,,,,,,,,,,,,,7.005663949239533,None,space,0.7530562926549464,7.973231919866521,None,,,,,,,,,,,,,,,,,,,,,,,,,,,,,,,,,,,,,,,,,,,,,,,,,,,,,,,,,,001,2021_Jan_05_1650,searchDisc3,2020.2.2,59.917171245894544,
,,,,,,,,,,,,,,,,,,,,,8.757474173035007,None,space,1.2328558336012065,8.757474173035007,None,,,,,,,,,,,,,,,,,,,,,,,,,,,,,,,,,,,,,,,,,,,,,,,,,,,,001,2021_Jan_05_1650,searchDisc3,2020.2.2,59.917171245894544,
,,,,,,,,,,,,,,,,,,,,,,,,,,,10.008553523337469,None,space,0.47701684589264914,10.993322939844802,None,,,,,,,,,,,,,,,,,,,,,,,,,,,,,,,,,,,,,,,,,,,,,,001,2021_Jan_05_1650,searchDisc3,2020.2.2,59.917171245894544,
Practice arrays/exp1a_trial_13_colour3_distractors4_r.png,r,2,,,,,0,0,0,7,,,,,,,,,,,,,,,,,,,,,,,10.008553523337469,None,10.008553523337469,None,11.526786319969688,None,space,1.9595050028292462,11.526786319969688,None,13.57870105485199,None,2,1,0.7718650841270573,13.57870105485199,None,14.39621532993624,None,,,,,,,,,,,,,,,,,,,,,,,,,,,001,2021_Jan_05_1650,searchDisc3,2020.2.2,59.917171245894544,
Practice arrays/exp1a_trial_12_colour3_distractors1_r.png,r,2,,,,,0,1,1,6,,,,,,,,,,,,,,,,,,,,,,,,,,,15.39731708006002,None,space,0.12096627615392208,15.39731708006002,None,15.61406137800077,None,2,1,0.9841617419151589,15.61406137800077,None,16.615142008347902,None,,,,,,,,,,,,,,,,,,,,,,,,,,,001,2021_Jan_05_1650,searchDisc3,2020.2.2,59.917171245894544,
Practice arrays/exp1a_trial_10_colour2_distractors31_r.png,r,2,,,,,0,2,2,5,,,,,,,,,,,,,,,,,,,,,,,,,,,17.616108079673722,None,space,0.5901268724701367,17.616108079673722,None,18.30003699165536,None,2,1,1.1462242898414843,18.30003699165536,None,19.46797116700327,None,,,,,,,,,,,,,,,,,,,,,,,,,,,001,2021_Jan_05_1650,searchDisc3,2020.2.2,59.917171245894544,
Practice arrays/exp1a_trial_19_colour1_distractors4_l.png,l,1,,,,,0,3,3,9,,,,,,,,,,,,,,,,,,,,,,,,,,,20.468965398089495,None,space,0.601278132526204,20.468965398089495,None,21.152838630543556,None,1,1,0.6933656274341047,21.152838630543556,None,21.870185163163114,None,,,,,,,,,,,,,,,,,,,,,,,,,,,001,2021_Jan_05_1650,searchDisc3,2020.2.2,59.917171245894544,
Practice arrays/exp1a_trial_32_colour3_distractors9_l.png,l,1,,,,,0,4,4,15,,,,,,,,,,,,,,,,,,,,,,,,,,,22.871306113083847,None,space,0.5669277203269303,22.871306113083847,None,23.521819324523676,None,1,1,0.6524082344258204,23.521819324523676,None,24.20582919579465,None,,,,,,,,,,,,,,,,,,,,,,,,,,,001,2021_Jan_05_1650,searchDisc3,2020.2.2,59.917171245894544,
Practice arrays/exp1a_trial_33_colour3_distractors19_l.png,l,1,,,,,0,5,5,16,,,,,,,,,,,,,,,,,,,,,,,,,,,25.206925505946856,None,space,0.4313334152684547,25.206925505946856,None,25.723965353274252,None,1,1,0.5942967550945468,25.723965353274252,None,26.341367181332316,None,,,,,,,,,,,,,,,,,,,,,,,,,,,001,2021_Jan_05_1650,searchDisc3,2020.2.2,59.917171245894544,
Practice arrays/exp1a_trial_7_colour2_distractors4_r.png,r,2,,,,,0,6,6,3,,,,,,,,,,,,,,,,,,,,,,,,,,,27.342389252211433,None,space,0.5198583820601925,27.342389252211433,None,27.9595101227751,None,2,1,0.6627063821651973,27.9595101227751,None,28.643656952830497,None,,,,,,,,,,,,,,,,,,,,,,,,,,,001,2021_Jan_05_1650,searchDisc3,2020.2.2,59.917171245894544,
Practice arrays/exp1a_trial_37_colour0_distractors0_l.png,l,1,,,,,0,7,7,19,,,,,,,,,,,,,,,,,,,,,,,,,,,29.644614704244304,None,space,0.697748948179651,29.644614704244304,None,30.42859743977897,None,1,1,0.5696048163808882,30.42859743977897,None,31.029398456565104,None,,,,,,,,,,,,,,,,,,,,,,,,,,,001,2021_Jan_05_1650,searchDisc3,2020.2.2,59.917171245894544,
Practice arrays/exp1a_trial_21_colour1_distractors19_l.png,l,1,,,,,0,8,8,11,,,,,,,,,,,,,,,,,,,,,,,,,,,32.03037188784219,None,space,0.47985586046706885,32.03037188784219,None,32.59743112704018,None,1,1,0.7689265504013747,32.59743112704018,None,33.39820475206943,None,,,,,,,,,,,,,,,,,,,,,,,,,,,001,2021_Jan_05_1650,searchDisc3,2020.2.2,59.917171245894544,
Practice arrays/exp1a_trial_28_colour2_distractors31_l.png,l,1,,,,,0,9,9,13,,,,,,,,,,,,,,,,,,,,,,,,,,,34.39928378240438,None,space,0.14307007810566574,34.39928378240438,None,34.632739930646494,None,1,1,0.6934606665745378,34.632739930646494,None,35.350218302046414,None,,,,,,,,,,,,,,,,,,,,,,,,,,,001,2021_Jan_05_1650,searchDisc3,2020.2.2,59.917171245894544,
Practice arrays/exp1a_trial_25_colour2_distractors4_l.png,l,1,,,,,0,10,10,12,,,,,,,,,,,,,,,,,,,,,,,,,,,36.351229812949896,None,space,0.41495500202290714,36.351229812949896,None,36.85156388999894,None,1,1,0.8025752088869922,36.85156388999894,None,37.685811455128714,None,,,,,,,,,,,,,,,,,,,,,,,,,,,001,2021_Jan_05_1650,searchDisc3,2020.2.2,59.917171245894544,
Practice arrays/exp1a_trial_36_colour0_distractors0_r.png,r,2,,,,,0,11,11,18,,,,,,,,,,,,,,,,,,,,,,,,,,,38.68684856581967,None,space,0.4153271586401388,38.68684856581967,None,39.187203122652136,None,2,1,0.6509896871284582,39.187203122652136,None,39.854667222185526,None,,,,,,,,,,,,,,,,,,,,,,,,,,,001,2021_Jan_05_1650,searchDisc3,2020.2.2,59.917171245894544,
Practice arrays/exp1a_trial_35_colour3_distractors43_l.png,l,1,,,,,0,12,12,17,,,,,,,,,,,,,,,,,,,,,,,,,,,40.85562785359798,None,space,0.4305033427081071,40.85562785359798,None,41.37269042071421,None,1,1,0.6654573974665254,41.37269042071421,None,42.05680845101597,None,,,,,,,,,,,,,,,,,,,,,,,,,,,001,2021_Jan_05_1650,searchDisc3,2020.2.2,59.917171245894544,
Practice arrays/exp1a_trial_20_colour1_distractors9_l.png,l,1,,,,,0,13,13,10,,,,,,,,,,,,,,,,,,,,,,,,,,,43.05780652206158,None,space,0.4043390970909968,43.05780652206158,None,43.55815787892789,None,1,1,0.8400529531063512,43.55815787892789,None,44.42582946456969,None,,,,,,,,,,,,,,,,,,,,,,,,,,,001,2021_Jan_05_1650,searchDisc3,2020.2.2,59.917171245894544,
Practice arrays/exp1a_trial_29_colour2_distractors43_l.png,l,1,,,,,0,14,14,14,,,,,,,,,,,,,,,,,,,,,,,,,,,45.42677825607825,None,space,0.37160499044694006,45.42677825607825,None,45.89382687129546,None,1,1,0.5923505325336009,45.89382687129546,None,46.511154780047946,None,,,,,,,,,,,,,,,,,,,,,,,,,,,001,2021_Jan_05_1650,searchDisc3,2020.2.2,59.917171245894544,
Practice arrays/exp1a_trial_16_colour3_distractors31_r.png,r,2,,,,,0,15,15,8,,,,,,,,,,,,,,,,,,,,,,,,,,,47.512143571162596,None,space,0.4139914906118065,47.512143571162596,None,48.0125330077135,None,2,1,0.7696017443668097,48.0125330077135,None,48.81331463268725,None,,,,,,,,,,,,,,,,,,,,,,,,,,,001,2021_Jan_05_1650,searchDisc3,2020.2.2,59.917171245894544,
Practice arrays/exp1a_trial_5_colour1_distractors43_r.png,r,2,,,,,0,16,16,2,,,,,,,,,,,,,,,,,,,,,,,,,,,49.81442470278125,None,space,0.4477403082419187,49.81442470278125,None,50.34816744038835,None,2,1,0.7300030591432005,50.34816744038835,None,51.09901415283093,None,,,,,,,,,,,,,,,,,,,,,,,,,,,001,2021_Jan_05_1650,searchDisc3,2020.2.2,59.917171245894544,
Practice arrays/exp1a_trial_8_colour2_distractors9_r.png,r,2,,,,,0,17,17,4,,,,,,,,,,,,,,,,,,,,,,,,,,,52.099977984209545,None,space,0.3861485401284881,52.099977984209545,None,52.58367573027499,None,2,1,0.5984621577663347,52.58367573027499,None,53.2010865182383,None,,,,,,,,,,,,,,,,,,,,,,,,,,,001,2021_Jan_05_1650,searchDisc3,2020.2.2,59.917171245894544,
Practice arrays/exp1a_trial_0_colour1_distractors1_r.png,r,2,,,,,0,18,18,0,,,,,,,,,,,,,,,,,,,,,,,,,,,54.2020762693719,None,space,0.42807136446936056,54.2020762693719,None,54.71914811641909,None,2,1,0.5430031347204931,54.71914811641909,None,55.28634271438932,None,,,,,,,,,,,,,,,,,,,,,,,,,,,001,2021_Jan_05_1650,searchDisc3,2020.2.2,59.917171245894544,
Practice arrays/exp1a_trial_3_colour1_distractors19_r.png,r,2,,,,,0,19,19,1,,,,,,,,,,,,,,,,,,,,,,,,,,,56.28742878464982,None,space,0.4306614212691784,56.28742878464982,None,56.80450511164963,None,2,1,0.6335741631919518,56.80450511164963,None,57.455266960780136,None,,,,,,,,,,,,,,,,,,,,,,,,,,,001,2021_Jan_05_1650,searchDisc3,2020.2.2,59.917171245894544,
,,,,,,,,,,,,,,,,,,,,,,,,,,,,,,,,,,,,,,,,,,,,,,,,,,,,58.52285739517538,None,space,0.39289247966371477,61.50925335707143,None,,,,,,,,,,,,,,,,,,,,,001,2021_Jan_05_1650,searchDisc3,2020.2.2,59.917171245894544,
Images/exp1a_trial_92_colour3_distractors31_r.png,r,2,1a,92,3,31,,,,,0,0,0,92,,,,,,,,,,,,,,,,,,,,,,,,,,,,,,,,,,,,,,,,,,,,62.02641096332809,None,space,1.1077270347741432,62.02641096332809,None,63.22749044169905,None,2,1,0.586637303698808,63.22749044169905,None,63.87829030649154,None,None,63.87829030649154,None,,,001,2021_Jan_05_1650,searchDisc3,2020.2.2,59.917171245894544,
Images/exp1a_trial_49_colour2_distractors43_r.png,r,2,1a,49,2,43,,,,,0,1,1,49,,,,,,,,,,,,,,,,,,,,,,,,,,,,,,,,,,,,,,,,,,,,63.89495870115934,None,space,0.8540585876908153,63.89495870115934,None,64.8457533820183,None,2,1,0.6563739588600583,64.8457533820183,None,65.54649948738515,None,None,65.54649948738515,None,,,001,2021_Jan_05_1650,searchDisc3,2020.2.2,59.917171245894544,
Images/exp1b_trial_85_colour2_distractors19_r.png,r,2,1b,85,2,19,,,,,0,2,2,199,,,,,,,,,,,,,,,,,,,,,,,,,,,,,,,,,,,,,,,,,,,,65.54644790384918,None,space,0.7943954422371462,65.54644790384918,None,66.43064606143162,None,2,1,2.567490275250748,66.43064606143162,None,69.03331240554107,None,None,69.03331240554107,None,,,001,2021_Jan_05_1650,searchDisc3,2020.2.2,59.917171245894544,
Images/exp1a_trial_26_colour2_distractors9_l.png,l,1,1a,26,2,9,,,,,0,3,3,26,,,,,,,,,,,,,,,,,,,,,,,,,,,,,,,,,,,,,,,,,,,,69.03330722154351,None,space,0.619388370309025,69.03330722154351,None,69.75056895491434,None,1,1,0.8315339894616045,69.75056895491434,None,70.61821308478247,None,None,70.61821308478247,None,,,001,2021_Jan_05_1650,searchDisc3,2020.2.2,59.917171245894544,
Images/exp2c_trial_94_colour1_distractors1_l.png,l,1,2c,94,1,1,,,,,0,4,4,550,,,,,,,,,,,,,,,,,,,,,,,,,,,,,,,,,,,,,,,,,,,,70.61818614107324,None,space,0.858347189205233,70.61818614107324,None,71.56901602161815,None,1,1,0.7811914005433209,71.56901602161815,None,72.38659308014903,None,None,72.38659308014903,None,,,001,2021_Jan_05_1650,searchDisc3,2020.2.2,59.917171245894544,
Images/exp1b_trial_41_colour1_distractors19_r.png,r,2,1b,41,1,19,,,,,0,5,5,155,,,,,,,,,,,,,,,,,,,,,,,,,,,,,,,,,,,,,,,,,,,,72.3865885361447,None,space,0.8021969723049551,72.3865885361447,None,73.28735358529957,None,2,1,0.8946742237312719,73.28735358529957,None,74.22173535727197,None,None,74.22173535727197,None,,,001,2021_Jan_05_1650,searchDisc3,2020.2.2,59.917171245894544,
Images/exp2c_trial_57_colour1_distractors4_l.png,l,1,2c,57,1,4,,,,,0,6,6,513,,,,,,,,,,,,,,,,,,,,,,,,,,,,,,,,,,,,,,,,,,,,74.22173305327306,None,space,0.7423856682144105,74.22173305327306,None,75.05578158021672,None,1,1,0.5022719796397723,75.05578158021672,None,75.63970159627497,None,None,75.63970159627497,None,,,001,2021_Jan_05_1650,searchDisc3,2020.2.2,59.917171245894544,
Images/exp2b_trial_8_colour2_distractors9_r.png,r,2,2b,8,2,9,,,,,0,7,7,350,,,,,,,,,,,,,,,,,,,,,,,,,,,,,,,,,,,,,,,,,,,,75.65648083790438,None,space,0.7159452651394531,75.65648083790438,None,76.45715142390691,None,2,1,0.7569404178066179,76.45715142390691,None,77.25807263168971,None,None,77.25807263168971,None,,,001,2021_Jan_05_1650,searchDisc3,2020.2.2,59.917171245894544,
Images/exp2c_trial_49_colour2_distractors43_r.png,r,2,2c,49,2,43,,,,,0,8,8,505,,,,,,,,,,,,,,,,,,,,,,,,,,,,,,,,,,,,,,,,,,,,77.25804504792904,None,space,0.7783783057238907,77.25804504792904,None,78.12546895578271,None,2,1,0.6725706137949601,78.12546895578271,None,78.842950911168,None,None,78.842950911168,None,,,001,2021_Jan_05_1650,searchDisc3,2020.2.2,59.917171245894544,
Images/exp1b_trial_43_colour1_distractors43_r.png,r,2,1b,43,1,43,,,,,0,9,9,157,,,,,,,,,,,,,,,,,,,,,,,,,,,,,,,,,,,,,,,,,,,,78.84290572756436,None,space,0.6499320965958759,78.84290572756436,None,79.57686523126904,None,2,1,1.3011662615463138,79.57686523126904,None,80.91165237561799,None,None,80.91165237561799,None,,,001,2021_Jan_05_1650,searchDisc3,2020.2.2,59.917171245894544,
Images/exp1a_trial_79_colour1_distractors19_r.png,r,2,1a,79,1,19,,,,,0,10,10,79,,,,,,,,,,,,,,,,,,,,,,,,,,,,,,,,,,,,,,,,,,,,80.91163727175444,None,space,0.7408970415708609,80.91163727175444,None,81.74566275888355,None,2,1,0.5803423200850375,81.74566275888355,None,82.36295457192463,None,None,82.36295457192463,None,,,001,2021_Jan_05_1650,searchDisc3,2020.2.2,59.917171245894544,
Images/exp2a_trial_113_colour0_distractors0_l.png,l,1,2a,113,0,0,,,,,0,11,11,341,,,,,,,,,,,,,,,,,,,,,,,,,,,,,,,,,,,,,,,,,,,,82.36303642718121,None,space,0.7611519001075067,82.36303642718121,None,83.2137862444506,None,1,1,0.5842395651852712,83.2137862444506,None,83.83105181776918,None,None,83.83105181776918,None,,,001,2021_Jan_05_1650,searchDisc3,2020.2.2,59.917171245894544,
Images/exp1a_trial_106_colour3_distractors1_l.png,l,1,1a,106,3,1,,,,,0,12,12,106,,,,,,,,,,,,,,,,,,,,,,,,,,,,,,,,,,,,,,,,,,,,83.83115991280647,None,space,1.1578990652342327,83.83115991280647,None,85.08228918269742,None,1,1,0.571961275243666,85.08228918269742,None,85.69959795558825,None,None,85.69959795558825,None,,,001,2021_Jan_05_1650,searchDisc3,2020.2.2,59.917171245894544,
Images/exp2a_trial_66_colour2_distractors31_l.png,l,1,2a,66,2,31,,,,,0,13,13,294,,,,,,,,,,,,,,,,,,,,,,,,,,,,,,,,,,,,,,,,,,,,85.69966765097342,None,space,0.9049323718063533,85.69966765097342,None,86.7005322832265,None,1,1,0.633498323848471,86.7005322832265,None,87.36791420747758,None,None,87.36791420747758,None,,,001,2021_Jan_05_1650,searchDisc3,2020.2.2,59.917171245894544,
Images/exp2b_trial_33_colour3_distractors19_l.png,l,1,2b,33,3,19,,,,,0,14,14,375,,,,,,,,,,,,,,,,,,,,,,,,,,,,,,,,,,,,,,,,,,,,87.36791190347867,None,space,1.0683683474198915,87.36791190347867,None,88.53569728013827,None,1,1,0.6143119357293472,88.53569728013827,None,89.18643039356684,None,None,89.18643039356684,None,,,001,2021_Jan_05_1650,searchDisc3,2020.2.2,59.917171245894544,
Images/exp2b_trial_34_colour3_distractors31_l.png,l,1,2b,34,3,31,,,,,0,15,15,376,,,,,,,,,,,,,,,,,,,,,,,,,,,,,,,,,,,,,,,,,,,,89.1864274496329,None,space,1.1698199184029363,89.1864274496329,None,90.45424776995787,None,1,1,0.5437426480348222,90.45424776995787,None,91.03813572230283,None,None,91.03813572230283,None,,,001,2021_Jan_05_1650,searchDisc3,2020.2.2,59.917171245894544,
Images/exp1b_trial_59_colour1_distractors19_l.png,l,1,1b,59,1,19,,,,,0,16,16,173,,,,,,,,,,,,,,,,,,,,,,,,,,,,,,,,,,,,,,,,,,,,91.03815101814689,None,space,1.9740907921805046,91.03815101814689,None,93.10686112253461,None,1,1,0.5792088903253898,93.10686112253461,None,93.72417469540378,None,None,93.72417469540378,None,,,001,2021_Jan_05_1650,searchDisc3,2020.2.2,59.917171245894544,
Images/exp2b_trial_105_colour2_distractors43_l.png,l,1,2b,105,2,43,,,,,0,17,17,447,,,,,,,,,,,,,,,,,,,,,,,,,,,,,,,,,,,,,,,,,,,,93.72425111068878,None,space,1.024229222908616,93.72425111068878,None,94.84190413652686,None,1,1,0.6761641815537587,94.84190413652686,None,95.55925265311961,None,None,95.55925265311961,None,,,001,2021_Jan_05_1650,searchDisc3,2020.2.2,59.917171245894544,
Images/exp1b_trial_48_colour2_distractors31_r.png,r,2,1b,48,2,31,,,,,0,18,18,162,,,,,,,,,,,,,,,,,,,,,,,,,,,,,,,,,,,,,,,,,,,,95.55932842841139,None,space,0.9973961833165959,95.55932842841139,None,96.64362783310935,None,2,1,0.6104578902595676,96.64362783310935,None,97.29440254615619,None,None,97.29440254615619,None,,,001,2021_Jan_05_1650,searchDisc3,2020.2.2,59.917171245894544,
Images/exp2a_trial_100_colour2_distractors1_l.png,l,1,2a,100,2,1,,,,,0,19,19,328,,,,,,,,,,,,,,,,,,,,,,,,,,,,,,,,,,,,,,,,,,,,97.29438488231972,None,space,0.9416722026071511,97.29438488231972,None,98.32865689526079,None,1,1,0.5253335330053233,98.32865689526079,None,98.89587587696732,None,None,98.89587587696732,None,,,001,2021_Jan_05_1650,searchDisc3,2020.2.2,59.917171245894544,
Images/exp1a_trial_71_colour3_distractors19_l.png,l,1,1a,71,3,19,,,,,0,20,20,71,,,,,,,,,,,,,,,,,,,,,,,,,,,,,,,,,,,,,,,,,,,,98.89588573283982,None,space,0.9160986717324704,98.89588573283982,None,99.89682236447698,None,1,1,0.5732031841180287,99.89682236447698,None,100.51412281745579,None,None,100.51412281745579,None,,,001,2021_Jan_05_1650,searchDisc3,2020.2.2,59.917171245894544,
Images/exp2a_trial_106_colour3_distractors1_l.png,l,1,2a,106,3,1,,,,,0,21,21,334,,,,,,,,,,,,,,,,,,,,,,,,,,,,,,,,,,,,,,,,,,,,100.51421971258242,None,space,0.6986366201890633,100.51421971258242,None,101.29822548787342,None,1,1,0.5718255963874981,101.29822548787342,None,101.91551890092668,None,None,101.91551890092668,None,,,001,2021_Jan_05_1650,searchDisc3,2020.2.2,59.917171245894544,
Images/exp1a_trial_14_colour3_distractors9_r.png,r,2,1a,14,3,9,,,,,0,22,22,14,,,,,,,,,,,,,,,,,,,,,,,,,,,,,,,,,,,,,,,,,,,,101.9155972362496,None,space,0.8728596991859376,101.9155972362496,None,102.88314120704308,None,2,1,0.5788293736986816,102.88314120704308,None,103.50039654046995,None,None,103.50039654046995,None,,,001,2021_Jan_05_1650,searchDisc3,2020.2.2,59.917171245894544,
Images/exp2a_trial_62_colour2_distractors1_l.png,l,1,2a,62,2,1,,,,,0,23,23,290,,,,,,,,,,,,,,,,,,,,,,,,,,,,,,,,,,,,,,,,,,,,103.50049695553025,None,space,0.7757402493734844,103.50049695553025,None,104.36792150343535,None,1,1,0.5900523131713271,104.36792150343535,None,105.00200068609556,None,None,105.00200068609556,None,,,001,2021_Jan_05_1650,searchDisc3,2020.2.2,59.917171245894544,
Images/exp1a_trial_16_colour3_distractors31_r.png,r,2,1a,16,3,31,,,,,0,24,24,16,,,,,,,,,,,,,,,,,,,,,,,,,,,,,,,,,,,,,,,,,,,,105.00199262215756,None,space,0.8100474620005116,105.00199262215756,None,105.90273175149923,None,2,1,0.7992011591559276,105.90273175149923,None,106.73700498040998,None,None,106.73700498040998,None,,,001,2021_Jan_05_1650,searchDisc3,2020.2.2,59.917171245894544,
Images/exp1b_trial_110_colour3_distractors31_l.png,l,1,1b,110,3,31,,,,,0,25,25,224,,,,,,,,,,,,,,,,,,,,,,,,,,,,,,,,,,,,,,,,,,,,106.73701707634609,None,space,0.8833543251384981,106.73701707634609,None,107.70448552782182,None,1,1,1.6936385850422084,107.70448552782182,None,109.4396678045974,None,None,109.4396678045974,None,,,001,2021_Jan_05_1650,searchDisc3,2020.2.2,59.917171245894544,
Images/exp2c_trial_30_colour3_distractors1_l.png,l,1,2c,30,3,1,,,,,0,26,26,486,,,,,,,,,,,,,,,,,,,,,,,,,,,,,,,,,,,,,,,,,,,,109.43965526070679,None,space,0.700572922884021,109.43965526070679,None,110.22367543587461,None,1,1,0.8063025355222635,110.22367543587461,None,111.07463843523291,None,None,111.07463843523291,None,,,001,2021_Jan_05_1650,searchDisc3,2020.2.2,59.917171245894544,
Images/exp2b_trial_102_colour2_distractors9_l.png,l,1,2b,102,2,9,,,,,0,27,27,444,,,,,,,,,,,,,,,,,,,,,,,,,,,,,,,,,,,,,,,,,,,,111.0746159714181,None,space,0.8260396386613138,111.0746159714181,None,111.99205255118432,None,1,1,0.7339723035693169,111.99205255118432,None,112.75952765860129,None,None,112.75952765860129,None,,,001,2021_Jan_05_1650,searchDisc3,2020.2.2,59.917171245894544,
Images/exp1a_trial_31_colour3_distractors4_l.png,l,1,1a,31,3,4,,,,,0,28,28,31,,,,,,,,,,,,,,,,,,,,,,,,,,,,,,,,,,,,,,,,,,,,112.75947607506532,None,space,0.8049246278824285,112.75947607506532,None,113.66039408289362,None,1,1,0.6175256669521332,113.66039408289362,None,114.31110639645485,None,None,114.31110639645485,None,,,001,2021_Jan_05_1650,searchDisc3,2020.2.2,59.917171245894544,
Images/exp2b_trial_42_colour1_distractors31_r.png,r,2,2b,42,1,31,,,,,0,29,29,384,,,,,,,,,,,,,,,,,,,,,,,,,,,,,,,,,,,,,,,,,,,,114.31111785239773,None,space,0.8048478285199963,114.31111785239773,None,115.21187170164194,None,2,1,0.7220639303559437,115.21187170164194,None,115.97942136835772,None,None,115.97942136835772,None,,,001,2021_Jan_05_1650,searchDisc3,2020.2.2,59.917171245894544,
Images/exp1a_trial_6_colour2_distractors1_r.png,r,2,1a,6,2,1,,,,,0,30,30,6,,,,,,,,,,,,,,,,,,,,,,,,,,,,,,,,,,,,,,,,,,,,115.9793825847446,None,space,0.6566373165114783,115.9793825847446,None,116.74672994931461,None,2,1,0.6992916543385945,116.74672994931461,None,117.48082295580534,None,None,117.48082295580534,None,,,001,2021_Jan_05_1650,searchDisc3,2020.2.2,59.917171245894544,
Images/exp1b_trial_84_colour2_distractors9_r.png,r,2,1b,84,2,9,,,,,0,31,31,198,,,,,,,,,,,,,,,,,,,,,,,,,,,,,,,,,,,,,,,,,,,,117.48090961104026,None,space,0.6278372546075843,117.48090961104026,None,118.19817582436372,None,2,1,0.8397195161087438,118.19817582436372,None,119.08234972613863,None,None,119.08234972613863,None,,,001,2021_Jan_05_1650,searchDisc3,2020.2.2,59.917171245894544,
Images/exp2c_trial_12_colour3_distractors1_r.png,r,2,2c,12,3,1,,,,,0,32,32,468,,,,,,,,,,,,,,,,,,,,,,,,,,,,,,,,,,,,,,,,,,,,119.08245654118946,None,space,0.5462840652908199,119.08245654118946,None,119.71632478170795,None,2,1,0.569605776341632,119.71632478170795,None,120.33359323502518,None,None,120.33359323502518,None,,,001,2021_Jan_05_1650,searchDisc3,2020.2.2,59.917171245894544,
Images/exp2b_trial_9_colour2_distractors19_r.png,r,2,2b,9,2,19,,,,,0,33,33,351,,,,,,,,,,,,,,,,,,,,,,,,,,,,,,,,,,,,,,,,,,,,120.33369141013827,None,space,0.7345614183577709,120.33369141013827,None,121.16774153703591,None,2,1,0.6861823318176903,121.16774153703591,None,121.90188254313543,None,None,121.90188254313543,None,,,001,2021_Jan_05_1650,searchDisc3,2020.2.2,59.917171245894544,
Images/exp2b_trial_30_colour3_distractors1_l.png,l,1,2b,30,3,1,,,,,0,34,34,372,,,,,,,,,,,,,,,,,,,,,,,,,,,,,,,,,,,,,,,,,,,,121.90187063923804,None,space,0.6231569765368477,121.90187063923804,None,122.61914229247486,None,1,1,0.6508728881599382,122.61914229247486,None,123.30325366687029,None,None,123.30325366687029,None,,,001,2021_Jan_05_1650,searchDisc3,2020.2.2,59.917171245894544,
Images/exp1b_trial_53_colour3_distractors19_r.png,r,2,1b,53,3,19,,,,,0,35,35,167,,,,,,,,,,,,,,,,,,,,,,,,,,,,,,,,,,,,,,,,,,,,123.30329424247611,None,space,0.6770672134589404,123.30329424247611,None,124.07059328746982,None,2,1,1.6553195683518425,124.07059328746982,None,125.77234322382137,None,None,125.77234322382137,None,,,001,2021_Jan_05_1650,searchDisc3,2020.2.2,59.917171245894544,
Images/exp2c_trial_79_colour1_distractors19_r.png,r,2,2c,79,1,19,,,,,0,36,36,535,,,,,,,,,,,,,,,,,,,,,,,,,,,,,,,,,,,,,,,,,,,,125.77234635979403,None,space,0.512007572397124,125.77234635979403,None,126.3728449792834,None,2,1,0.7290440277429298,126.3728449792834,None,127.14036168637685,None,None,127.14036168637685,None,,,001,2021_Jan_05_1650,searchDisc3,2020.2.2,59.917171245894544,
Images/exp2b_trial_57_colour1_distractors4_l.png,l,1,2b,57,1,4,,,,,0,37,37,399,,,,,,,,,,,,,,,,,,,,,,,,,,,,,,,,,,,,,,,,,,,,127.14038594212616,None,space,0.6716826217598282,127.14038594212616,None,127.90768082719296,None,1,1,0.7461984340334311,127.90768082719296,None,128.6918053854257,None,None,128.6918053854257,None,,,001,2021_Jan_05_1650,searchDisc3,2020.2.2,59.917171245894544,
Images/exp1a_trial_84_colour2_distractors9_r.png,r,2,1a,84,2,9,,,,,0,38,38,84,,,,,,,,,,,,,,,,,,,,,,,,,,,,,,,,,,,,,,,,,,,,128.6917854815838,None,space,0.7282129952218384,128.6917854815838,None,129.50923959718784,None,2,1,0.672722612391226,129.50923959718784,None,130.2267481123214,None,None,130.2267481123214,None,,,001,2021_Jan_05_1650,searchDisc3,2020.2.2,59.917171245894544,
Images/exp2a_trial_69_colour3_distractors4_l.png,l,1,2a,69,3,4,,,,,0,39,39,297,,,,,,,,,,,,,,,,,,,,,,,,,,,,,,,,,,,,,,,,,,,,130.22673172847135,None,space,0.5698265743558295,130.22673172847135,None,130.8939439902315,None,1,1,0.6079100731294602,130.8939439902315,None,131.54470782339342,None,None,131.54470782339342,None,,,001,2021_Jan_05_1650,searchDisc3,2020.2.2,59.917171245894544,
Images/exp2a_trial_42_colour1_distractors31_r.png,r,2,2a,42,1,31,,,,,0,40,40,270,,,,,,,,,,,,,,,,,,,,,,,,,,,,,,,,,,,,,,,,,,,,131.5447240792564,None,space,0.6755235472810455,131.5447240792564,None,132.31201160437195,None,2,1,0.6938638629508205,132.31201160437195,None,133.04606077129722,None,None,133.04606077129722,None,,,001,2021_Jan_05_1650,searchDisc3,2020.2.2,59.917171245894544,
Images/exp1a_trial_68_colour3_distractors1_l.png,l,1,1a,68,3,1,,,,,0,41,41,68,,,,,,,,,,,,,,,,,,,,,,,,,,,,,,,,,,,,,,,,,,,,133.0461615063832,None,space,0.5821381440619007,133.0461615063832,None,133.71338720805943,None,1,1,0.5645322217606008,133.71338720805943,None,134.3139898906462,None,None,134.3139898906462,None,,,001,2021_Jan_05_1650,searchDisc3,2020.2.2,59.917171245894544,
Images/exp1b_trial_45_colour2_distractors4_r.png,r,2,1b,45,2,4,,,,,0,42,42,159,,,,,,,,,,,,,,,,,,,,,,,,,,,,,,,,,,,,,,,,,,,,134.314072385896,None,space,0.6425219230004586,134.314072385896,None,135.04804724949645,None,2,1,1.0059001071495004,135.04804724949645,None,136.09910765601091,None,None,136.09910765601091,None,,,001,2021_Jan_05_1650,searchDisc3,2020.2.2,59.917171245894544,
Images/exp1a_trial_33_colour3_distractors19_l.png,l,1,1a,33,3,19,,,,,0,43,43,33,,,,,,,,,,,,,,,,,,,,,,,,,,,,,,,,,,,,,,,,,,,,136.0991059920052,None,space,0.4169047445175238,136.0991059920052,None,136.6162459984189,None,1,1,0.6138885795371607,136.6162459984189,None,137.28379227320548,None,None,137.28379227320548,None,,,001,2021_Jan_05_1650,searchDisc3,2020.2.2,59.917171245894544,
Images/exp2c_trial_42_colour1_distractors31_r.png,r,2,2c,42,1,31,,,,,0,44,44,498,,,,,,,,,,,,,,,,,,,,,,,,,,,,,,,,,,,,,,,,,,,,137.2835798591259,None,space,0.5694156980607659,137.2835798591259,None,137.96755741070956,None,2,1,0.7745485800551251,137.96755741070956,None,138.80197611026816,None,None,138.80197611026816,None,,,001,2021_Jan_05_1650,searchDisc3,2020.2.2,59.917171245894544,
Images/exp1a_trial_48_colour2_distractors31_r.png,r,2,1a,48,2,31,,,,,0,45,45,48,,,,,,,,,,,,,,,,,,,,,,,,,,,,,,,,,,,,,,,,,,,,138.81870658439584,None,space,0.41816393326735124,138.81870658439584,None,139.35249508166453,None,2,1,0.6057635323377326,139.35249508166453,None,140.01992359746365,None,None,140.01992359746365,None,,,001,2021_Jan_05_1650,searchDisc3,2020.2.2,59.917171245894544,
Images/exp2c_trial_38_colour1_distractors1_r.png,r,2,2c,38,1,1,,,,,0,46,46,494,,,,,,,,,,,,,,,,,,,,,,,,,,,,,,,,,,,,,,,,,,,,140.01993838133058,None,space,0.536116796429269,140.01993838133058,None,140.67029671411728,None,2,1,0.543888566782698,140.67029671411728,None,141.27103526751162,None,None,141.27103526751162,None,,,001,2021_Jan_05_1650,searchDisc3,2020.2.2,59.917171245894544,
Images/exp2c_trial_83_colour2_distractors4_r.png,r,2,2c,83,2,4,,,,,0,47,47,539,,,,,,,,,,,,,,,,,,,,,,,,,,,,,,,,,,,,,,,,,,,,141.2710548513569,None,space,0.5337769773905165,141.2710548513569,None,141.90471413376508,None,2,1,0.5813691909424961,141.90471413376508,None,142.5388879075821,None,None,142.5388879075821,None,,,001,2021_Jan_05_1650,searchDisc3,2020.2.2,59.917171245894544,
Images/exp1b_trial_56_colour1_distractors1_l.png,l,1,1b,56,1,1,,,,,0,48,48,170,,,,,,,,,,,,,,,,,,,,,,,,,,,,,,,,,,,,,,,,,,,,142.5389823706937,None,space,0.5611482521053404,142.5389823706937,None,143.20609223342035,None,1,1,0.7039780123159289,143.20609223342035,None,143.97363217227976,None,None,143.97363217227976,None,,,001,2021_Jan_05_1650,searchDisc3,2020.2.2,59.917171245894544,
Images/exp1a_trial_88_colour3_distractors1_r.png,r,2,1a,88,3,1,,,,,0,49,49,88,,,,,,,,,,,,,,,,,,,,,,,,,,,,,,,,,,,,,,,,,,,,143.97360599646345,None,space,0.5747058906126767,143.97360599646345,None,144.657394429727,None,2,1,0.6688890467630699,144.657394429727,None,145.37500649592258,None,None,145.37500649592258,None,,,001,2021_Jan_05_1650,searchDisc3,2020.2.2,59.917171245894544,
Images/exp2b_trial_21_colour1_distractors19_l.png,l,1,2b,21,1,19,,,,,0,50,50,363,,,,,,,,,,,,,,,,,,,,,,,,,,,,,,,,,,,,,,,,,,,,145.37501263990998,None,space,0.5570612487499602,145.37501263990998,None,146.05898443149636,None,1,1,0.6991194959264249,146.05898443149636,None,146.8097238808463,None,None,146.8097238808463,None,,,001,2021_Jan_05_1650,searchDisc3,2020.2.2,59.917171245894544,
Images/exp2c_trial_36_colour0_distractors0_r.png,r,2,2c,36,0,0,,,,,0,51,51,492,,,,,,,,,,,,,,,,,,,,,,,,,,,,,,,,,,,,,,,,,,,,146.8263887555804,None,space,0.5136478777276352,146.8263887555804,None,147.44350290618604,None,2,1,0.5706300871097483,147.44350290618604,None,148.07773683948326,None,None,148.07773683948326,None,,,001,2021_Jan_05_1650,searchDisc3,2020.2.2,59.917171245894544,
Images/exp2b_trial_49_colour2_distractors43_r.png,r,2,2b,49,2,43,,,,,0,52,52,391,,,,,,,,,,,,,,,,,,,,,,,,,,,,,,,,,,,,,,,,,,,,148.09427883528406,None,space,0.4859297260409221,148.09427883528406,None,148.694859054056,None,2,1,0.5993575098109432,148.694859054056,None,149.3456931585737,None,None,149.3456931585737,None,,,001,2021_Jan_05_1650,searchDisc3,2020.2.2,59.917171245894544,
Images/exp2c_trial_96_colour1_distractors9_l.png,l,1,2c,96,1,9,,,,,0,53,53,552,,,,,,,,,,,,,,,,,,,,,,,,,,,,,,,,,,,,,,,,,,,,149.34565130295232,None,space,0.5867822624277323,149.34565130295232,None,150.04615190648474,None,1,1,0.6159554410842247,150.04615190648474,None,150.7136677815055,None,None,150.7136677815055,None,,,001,2021_Jan_05_1650,searchDisc3,2020.2.2,59.917171245894544,
Images/exp1b_trial_58_colour1_distractors9_l.png,l,1,1b,58,1,9,,,,,0,54,54,172,,,,,,,,,,,,,,,,,,,,,,,,,,,,,,,,,,,,,,,,,,,,150.7302078573266,None,space,0.5785336963017471,150.7302078573266,None,151.4309430187568,None,1,1,0.9031307879486121,151.4309430187568,None,152.39852212521365,None,None,152.39852212521365,None,,,001,2021_Jan_05_1650,searchDisc3,2020.2.2,59.917171245894544,
Images/exp2a_trial_99_colour1_distractors43_l.png,l,1,2a,99,1,43,,,,,0,55,55,327,,,,,,,,,,,,,,,,,,,,,,,,,,,,,,,,,,,,,,,,,,,,152.398497229442,None,space,0.6616247918573208,152.398497229442,None,153.16586187388748,None,1,1,0.5761932373279706,153.16586187388748,None,153.7999610883475,None,None,153.7999610883475,None,,,001,2021_Jan_05_1650,searchDisc3,2020.2.2,59.917171245894544,
Images/exp2c_trial_25_colour2_distractors4_l.png,l,1,2c,25,2,4,,,,,0,56,56,481,,,,,,,,,,,,,,,,,,,,,,,,,,,,,,,,,,,,,,,,,,,,153.81656420358922,None,space,0.5635488705593161,153.81656420358922,None,154.4837508655619,None,1,1,0.5302678887965158,154.4837508655619,None,155.06791164749885,None,None,155.06791164749885,None,,,001,2021_Jan_05_1650,searchDisc3,2020.2.2,59.917171245894544,
Images/exp1b_trial_51_colour3_distractors4_r.png,r,2,1b,51,3,4,,,,,0,57,57,165,,,,,,,,,,,,,,,,,,,,,,,,,,,,,,,,,,,,,,,,,,,,155.06782723224023,None,space,0.5282928664819337,155.06782723224023,None,155.7016282734112,None,2,1,0.7524281382211484,155.7016282734112,None,156.5026459922723,None,None,156.5026459922723,None,,,001,2021_Jan_05_1650,searchDisc3,2020.2.2,59.917171245894544,
Images/exp1a_trial_97_colour1_distractors19_l.png,l,1,1a,97,1,19,,,,,0,58,58,97,,,,,,,,,,,,,,,,,,,,,,,,,,,,,,,,,,,,,,,,,,,,156.51941422605887,None,space,0.5488379623857327,156.51941422605887,None,157.16973159922054,None,1,1,0.6683072919840924,157.16973159922054,None,157.88733054552577,None,None,157.88733054552577,None,,,001,2021_Jan_05_1650,searchDisc3,2020.2.2,59.917171245894544,
Images/exp2a_trial_84_colour2_distractors9_r.png,r,2,2a,84,2,9,,,,,0,59,59,312,,,,,,,,,,,,,,,,,,,,,,,,,,,,,,,,,,,,,,,,,,,,157.8873290095362,None,space,0.6375075679388829,157.8873290095362,None,158.63810052262852,None,2,1,0.5841170062776655,158.63810052262852,None,159.27179916464956,None,space,159.27179916464956,None,6.97429175034631,,001,2021_Jan_05_1650,searchDisc3,2020.2.2,59.917171245894544,
Images/exp2c_trial_4_colour1_distractors31_r.png,r,2,2c,4,1,31,,,,,0,60,60,460,,,,,,,,,,,,,,,,,,,,,,,,,,,,,,,,,,,,,,,,,,,,166.26234164938796,None,space,1.1516863208962604,166.26234164938796,None,167.51324724132428,None,2,1,0.6207035584957339,167.51324724132428,None,168.19749992638245,None,None,168.19749992638245,None,,,001,2021_Jan_05_1650,searchDisc3,2020.2.2,59.917171245894544,
Images/exp2a_trial_47_colour2_distractors19_r.png,r,2,2a,47,2,19,,,,,0,61,61,275,,,,,,,,,,,,,,,,,,,,,,,,,,,,,,,,,,,,,,,,,,,,168.2141897608526,None,space,0.5181313575594686,168.2141897608526,None,168.86473177198786,None,2,1,0.6133458644035272,168.86473177198786,None,169.5321282881254,None,None,169.5321282881254,None,,,001,2021_Jan_05_1650,searchDisc3,2020.2.2,59.917171245894544,
Images/exp1a_trial_34_colour3_distractors31_l.png,l,1,1a,34,3,31,,,,,0,62,62,34,,,,,,,,,,,,,,,,,,,,,,,,,,,,,,,,,,,,,,,,,,,,169.53214339201804,None,space,0.5200305405305699,169.53214339201804,None,170.16582507418934,None,1,1,0.7761741654830985,170.16582507418934,None,171.0002408938657,None,None,171.0002408938657,None,,,001,2021_Jan_05_1650,searchDisc3,2020.2.2,59.917171245894544,
Images/exp2c_trial_112_colour0_distractors0_r.png,r,2,2c,112,0,0,,,,,0,63,63,568,,,,,,,,,,,,,,,,,,,,,,,,,,,,,,,,,,,,,,,,,,,,171.0001062390511,None,space,0.5159502570750192,171.0001062390511,None,171.61742166790646,None,2,1,0.6125938711920753,171.61742166790646,None,172.28487322352012,None,None,172.28487322352012,None,,,001,2021_Jan_05_1650,searchDisc3,2020.2.2,59.917171245894544,
Images/exp2a_trial_81_colour1_distractors43_r.png,r,2,2a,81,1,43,,,,,0,64,64,309,,,,,,,,,,,,,,,,,,,,,,,,,,,,,,,,,,,,,,,,,,,,172.3016539372038,None,space,0.4628704126807861,172.3016539372038,None,172.86850165820215,None,2,1,0.6974327909993008,172.86850165820215,None,173.6194839854201,None,None,173.6194839854201,None,,,001,2021_Jan_05_1650,searchDisc3,2020.2.2,59.917171245894544,
Images/exp2b_trial_103_colour2_distractors19_l.png,l,1,2b,103,2,19,,,,,0,65,65,445,,,,,,,,,,,,,,,,,,,,,,,,,,,,,,,,,,,,,,,,,,,,173.6194258099422,None,space,0.4484750216943212,173.6194258099422,None,174.1700077567366,None,1,1,0.6361082204384729,174.1700077567366,None,174.87060493539903,None,None,174.87060493539903,None,,,001,2021_Jan_05_1650,searchDisc3,2020.2.2,59.917171245894544,
Images/exp1b_trial_92_colour3_distractors31_r.png,r,2,1b,92,3,31,,,,,0,66,66,206,,,,,,,,,,,,,,,,,,,,,,,,,,,,,,,,,,,,,,,,,,,,174.87051188020268,None,space,0.3820391368935816,174.87051188020268,None,175.37111507478403,None,2,1,0.8348629196407273,175.37111507478403,None,176.25542324741255,None,None,176.25542324741255,None,,,001,2021_Jan_05_1650,searchDisc3,2020.2.2,59.917171245894544,
Images/exp2b_trial_69_colour3_distractors4_l.png,l,1,2b,69,3,4,,,,,0,67,67,411,,,,,,,,,,,,,,,,,,,,,,,,,,,,,,,,,,,,,,,,,,,,176.25548315088963,None,space,0.3409310252754949,176.25548315088963,None,176.70555847819196,None,1,1,0.6923486765590496,176.70555847819196,None,177.4564723260177,None,None,177.4564723260177,None,,,001,2021_Jan_05_1650,searchDisc3,2020.2.2,59.917171245894544,
Images/exp1a_trial_30_colour3_distractors1_l.png,l,1,1a,30,3,1,,,,,0,68,68,30,,,,,,,,,,,,,,,,,,,,,,,,,,,,,,,,,,,,,,,,,,,,177.4564989497885,None,space,0.3639832987100817,177.4564989497885,None,177.92354052508017,None,1,1,0.6744691567728296,177.92354052508017,None,178.65779724211316,None,None,178.65779724211316,None,,,001,2021_Jan_05_1650,searchDisc3,2020.2.2,59.917171245894544,
Images/exp1b_trial_86_colour2_distractors31_r.png,r,2,1b,86,2,31,,,,,0,69,69,200,,,,,,,,,,,,,,,,,,,,,,,,,,,,,,,,,,,,,,,,,,,,178.65775058657164,None,space,0.395035820431076,178.65775058657164,None,179.15818386268802,None,2,1,1.1678157763672061,179.15818386268802,None,180.37613672583248,None,None,180.37613672583248,None,,,001,2021_Jan_05_1650,searchDisc3,2020.2.2,59.917171245894544,
Images/exp2b_trial_60_colour1_distractors31_l.png,l,1,2b,60,1,31,,,,,0,70,70,402,,,,,,,,,,,,,,,,,,,,,,,,,,,,,,,,,,,,,,,,,,,,180.39270624134224,None,space,0.4438177833799273,180.39270624134224,None,180.94328658812447,None,1,1,0.6386361977783963,180.94328658812447,None,181.64397336601397,None,None,181.64397336601397,None,,,001,2021_Jan_05_1650,searchDisc3,2020.2.2,59.917171245894544,
Images/exp2b_trial_110_colour3_distractors31_l.png,l,1,2b,110,3,31,,,,,0,71,71,452,,,,,,,,,,,,,,,,,,,,,,,,,,,,,,,,,,,,,,,,,,,,181.6440988688846,None,space,0.49656163080362603,181.6440988688846,None,182.24440229014726,None,1,1,0.6179375032661483,182.24440229014726,None,182.91204040410813,None,None,182.91204040410813,None,,,001,2021_Jan_05_1650,searchDisc3,2020.2.2,59.917171245894544,
Images/exp2c_trial_104_colour2_distractors31_l.png,l,1,2c,104,2,31,,,,,0,72,72,560,,,,,,,,,,,,,,,,,,,,,,,,,,,,,,,,,,,,,,,,,,,,182.91209742758656,None,space,0.49259750632336363,182.91209742758656,None,183.52907045953907,None,1,1,0.5968999317847192,183.52907045953907,None,184.17988568422734,None,None,184.17988568422734,None,,,001,2021_Jan_05_1650,searchDisc3,2020.2.2,59.917171245894544,
Images/exp1a_trial_90_colour3_distractors9_r.png,r,2,1a,90,3,9,,,,,0,73,73,90,,,,,,,,,,,,,,,,,,,,,,,,,,,,,,,,,,,,,,,,,,,,184.17998270737007,None,space,0.5038582054548897,184.17998270737007,None,184.79683734034188,None,2,1,0.8571139202686027,184.79683734034188,None,185.71466393262963,None,None,185.71466393262963,None,,,001,2021_Jan_05_1650,searchDisc3,2020.2.2,59.917171245894544,
Images/exp2c_trial_21_colour1_distractors19_l.png,l,1,2c,21,1,19,,,,,0,74,74,477,,,,,,,,,,,,,,,,,,,,,,,,,,,,,,,,,,,,,,,,,,,,185.71469599631382,None,space,0.48123504809336737,185.71469599631382,None,186.29829428729136,None,1,1,0.5880942507064901,186.29829428729136,None,186.94928263041075,None,None,186.94928263041075,None,,,001,2021_Jan_05_1650,searchDisc3,2020.2.2,59.917171245894544,
Images/exp2b_trial_109_colour3_distractors19_l.png,l,1,2b,109,3,19,,,,,0,75,75,451,,,,,,,,,,,,,,,,,,,,,,,,,,,,,,,,,,,,,,,,,,,,186.9657878265134,None,space,0.4623644972452894,186.9657878265134,None,187.53289986524032,None,1,1,0.5130517230718397,187.53289986524032,None,188.10026879760554,None,None,188.10026879760554,None,,,001,2021_Jan_05_1650,searchDisc3,2020.2.2,59.917171245894544,
Images/exp2a_trial_27_colour2_distractors19_l.png,l,1,2a,27,2,19,,,,,0,76,76,255,,,,,,,,,,,,,,,,,,,,,,,,,,,,,,,,,,,,,,,,,,,,188.10041382029885,None,space,0.46365760563639924,188.10041382029885,None,188.66730058100075,None,1,1,0.6827030029380694,188.66730058100075,None,189.40158641775488,None,None,189.40158641775488,None,,,001,2021_Jan_05_1650,searchDisc3,2020.2.2,59.917171245894544,
Images/exp2b_trial_107_colour3_distractors4_l.png,l,1,2b,107,3,4,,,,,0,77,77,449,,,,,,,,,,,,,,,,,,,,,,,,,,,,,,,,,,,,,,,,,,,,189.4015986416489,None,space,0.490495125122834,189.4015986416489,None,190.002222380077,None,1,1,0.5077349707134999,190.002222380077,None,190.5693439546798,None,None,190.5693439546798,None,,,001,2021_Jan_05_1650,searchDisc3,2020.2.2,59.917171245894544,
Images/exp1a_trial_29_colour2_distractors43_l.png,l,1,1a,29,2,43,,,,,0,78,78,29,,,,,,,,,,,,,,,,,,,,,,,,,,,,,,,,,,,,,,,,,,,,190.5693782583694,None,space,0.42660993756726384,190.5693782583694,None,191.1030326768523,None,1,1,0.7110217892332003,191.1030326768523,None,191.8707550140156,None,None,191.8707550140156,None,,,001,2021_Jan_05_1650,searchDisc3,2020.2.2,59.917171245894544,
Images/exp2a_trial_103_colour2_distractors19_l.png,l,1,2a,103,2,19,,,,,0,79,79,331,,,,,,,,,,,,,,,,,,,,,,,,,,,,,,,,,,,,,,,,,,,,191.88719973067055,None,space,0.3893645112984814,191.88719973067055,None,192.3876483666827,None,1,1,0.5543291132198647,192.3876483666827,None,193.02175289309818,None,None,193.02175289309818,None,,,001,2021_Jan_05_1650,searchDisc3,2020.2.2,59.917171245894544,
Images/exp2c_trial_8_colour2_distractors9_r.png,r,2,2c,8,2,9,,,,,0,80,80,464,,,,,,,,,,,,,,,,,,,,,,,,,,,,,,,,,,,,,,,,,,,,193.02184268430574,None,space,0.43856791040161625,193.02184268430574,None,193.57211807381827,None,2,1,0.7380903466837481,193.57211807381827,None,194.373208112031,None,None,194.373208112031,None,,,001,2021_Jan_05_1650,searchDisc3,2020.2.2,59.917171245894544,
Images/exp2a_trial_36_colour0_distractors0_r.png,r,2,2a,36,0,0,,,,,0,81,81,264,,,,,,,,,,,,,,,,,,,,,,,,,,,,,,,,,,,,,,,,,,,,194.37300433788914,None,space,0.36690615251427516,194.37300433788914,None,194.84003855322953,None,2,1,0.5738566181971692,194.84003855322953,None,195.4741752073809,None,None,195.4741752073809,None,,,001,2021_Jan_05_1650,searchDisc3,2020.2.2,59.917171245894544,
Images/exp1a_trial_99_colour1_distractors43_l.png,l,1,1a,99,1,43,,,,,0,82,82,99,,,,,,,,,,,,,,,,,,,,,,,,,,,,,,,,,,,,,,,,,,,,195.47416023153346,None,space,0.3857536636060104,195.47416023153346,None,195.97458614769857,None,1,1,0.6233406548853964,195.97458614769857,None,196.65881451301394,None,None,196.65881451301394,None,,,001,2021_Jan_05_1650,searchDisc3,2020.2.2,59.917171245894544,
Images/exp2b_trial_80_colour1_distractors31_r.png,r,2,2b,80,1,31,,,,,0,83,83,422,,,,,,,,,,,,,,,,,,,,,,,,,,,,,,,,,,,,,,,,,,,,196.65876817743992,None,space,0.36935541057027876,196.65876817743992,None,197.1423340846668,None,2,1,0.791618827090133,197.1423340846668,None,197.99329983600765,None,None,197.99329983600765,None,,,001,2021_Jan_05_1650,searchDisc3,2020.2.2,59.917171245894544,
Images/exp2b_trial_0_colour1_distractors1_r.png,r,2,2b,0,1,1,,,,,0,84,84,342,,,,,,,,,,,,,,,,,,,,,,,,,,,,,,,,,,,,,,,,,,,,197.9932167007937,None,space,0.362704910163302,197.9932167007937,None,198.4602973157307,None,2,1,0.6096889371983707,198.4602973157307,None,199.12797894928954,None,None,199.12797894928954,None,,,001,2021_Jan_05_1650,searchDisc3,2020.2.2,59.917171245894544,
Images/exp1a_trial_110_colour3_distractors31_l.png,l,1,1a,110,3,31,,,,,0,85,85,110,,,,,,,,,,,,,,,,,,,,,,,,,,,,,,,,,,,,,,,,,,,,199.1446726237191,None,space,0.3638588198227808,199.1446726237191,None,199.6114524413715,None,1,1,0.570544647925999,199.6114524413715,None,200.2455711756542,None,None,200.2455711756542,None,,,001,2021_Jan_05_1650,searchDisc3,2020.2.2,59.917171245894544,
Images/exp1a_trial_40_colour1_distractors9_r.png,r,2,1a,40,1,9,,,,,0,86,86,40,,,,,,,,,,,,,,,,,,,,,,,,,,,,,,,,,,,,,,,,,,,,200.26221845054533,None,space,0.4136276539065875,200.26221845054533,None,200.77923909801757,None,2,1,0.6589892954216339,200.77923909801757,None,201.49683964433498,None,None,201.49683964433498,None,,,001,2021_Jan_05_1650,searchDisc3,2020.2.2,59.917171245894544,
Images/exp1b_trial_89_colour3_distractors4_r.png,r,2,1b,89,3,4,,,,,0,87,87,203,,,,,,,,,,,,,,,,,,,,,,,,,,,,,,,,,,,,,,,,,,,,201.4969302674872,None,space,0.33105559373507276,201.4969302674872,None,201.93037790380185,None,2,1,0.7155862283543684,201.93037790380185,None,202.69805864140508,None,None,202.69805864140508,None,,,001,2021_Jan_05_1650,searchDisc3,2020.2.2,59.917171245894544,
Images/exp2b_trial_101_colour2_distractors4_l.png,l,1,2b,101,2,4,,,,,0,88,88,443,,,,,,,,,,,,,,,,,,,,,,,,,,,,,,,,,,,,,,,,,,,,202.71475007582922,None,space,0.36931797093711793,202.71475007582922,None,203.19828238338232,None,1,1,0.6956443270319141,203.19828238338232,None,203.9492797504703,None,None,203.9492797504703,None,,,001,2021_Jan_05_1650,searchDisc3,2020.2.2,59.917171245894544,
Images/exp1a_trial_12_colour3_distractors1_r.png,r,2,1a,12,3,1,,,,,0,89,89,12,,,,,,,,,,,,,,,,,,,,,,,,,,,,,,,,,,,,,,,,,,,,203.94938285351964,None,space,0.3433310037362389,203.94938285351964,None,204.3997116186074,None,2,1,0.7181545253260992,204.3997116186074,None,205.1670809989504,None,None,205.1670809989504,None,,,001,2021_Jan_05_1650,searchDisc3,2020.2.2,59.917171245894544,
Images/exp2c_trial_74_colour0_distractors0_r.png,r,2,2c,74,0,0,,,,,0,90,90,530,,,,,,,,,,,,,,,,,,,,,,,,,,,,,,,,,,,,,,,,,,,,205.18378907325678,None,space,0.3480679212952964,205.18378907325678,None,205.63400327932322,None,2,1,0.5720339145627804,205.63400327932322,None,206.26810921374127,None,None,206.26810921374127,None,,,001,2021_Jan_05_1650,searchDisc3,2020.2.2,59.917171245894544,
Images/exp2b_trial_113_colour0_distractors0_l.png,l,1,2b,113,0,0,,,,,0,91,91,455,,,,,,,,,,,,,,,,,,,,,,,,,,,,,,,,,,,,,,,,,,,,206.28475520858774,None,space,0.3351025974843651,206.28475520858774,None,206.75193246267736,None,1,1,0.5099727106862701,206.75193246267736,None,207.31917851616745,None,None,207.31917851616745,None,,,001,2021_Jan_05_1650,searchDisc3,2020.2.2,59.917171245894544,
Images/exp2c_trial_20_colour1_distractors9_l.png,l,1,2c,20,1,9,,,,,0,92,92,476,,,,,,,,,,,,,,,,,,,,,,,,,,,,,,,,,,,,,,,,,,,,207.3358379508718,None,space,0.35636768699623644,207.3358379508718,None,207.8028059268836,None,1,1,0.5071055363514461,207.8028059268836,None,208.37024589861394,None,None,208.37024589861394,None,,,001,2021_Jan_05_1650,searchDisc3,2020.2.2,59.917171245894544,
Images/exp2b_trial_96_colour1_distractors9_l.png,l,1,2b,96,1,9,,,,,0,93,93,438,,,,,,,,,,,,,,,,,,,,,,,,,,,,,,,,,,,,,,,,,,,,208.386931573099,None,space,0.321525119128637,208.386931573099,None,208.82058432756457,None,1,1,0.6895176619291306,208.82058432756457,None,209.57152153517237,None,None,209.57152153517237,None,,,001,2021_Jan_05_1650,searchDisc3,2020.2.2,59.917171245894544,
Images/exp2c_trial_1_colour1_distractors4_r.png,r,2,2c,1,1,4,,,,,0,94,94,457,,,,,,,,,,,,,,,,,,,,,,,,,,,,,,,,,,,,,,,,,,,,209.5879838516703,None,space,0.32781626272480935,209.5879838516703,None,210.02175884501776,None,2,1,0.6962273618555628,210.02175884501776,None,210.77264421311557,None,None,210.77264421311557,None,,,001,2021_Jan_05_1650,searchDisc3,2020.2.2,59.917171245894544,
Images/exp2a_trial_74_colour0_distractors0_r.png,r,2,2a,74,0,0,,,,,0,95,95,302,,,,,,,,,,,,,,,,,,,,,,,,,,,,,,,,,,,,,,,,,,,,210.77273387630703,None,space,0.2871759869158268,210.77273387630703,None,211.17277957190527,None,2,1,0.6170127115910873,211.17277957190527,None,211.8403607263521,None,None,211.8403607263521,None,,,001,2021_Jan_05_1650,searchDisc3,2020.2.2,59.917171245894544,
Images/exp1a_trial_81_colour1_distractors43_r.png,r,2,1a,81,1,43,,,,,0,96,96,81,,,,,,,,,,,,,,,,,,,,,,,,,,,,,,,,,,,,,,,,,,,,211.8403351905872,None,space,0.3156288519385271,211.8403351905872,None,212.2571810556692,None,2,1,0.5246106595150195,212.2571810556692,None,212.84122279863223,None,None,212.84122279863223,None,,,001,2021_Jan_05_1650,searchDisc3,2020.2.2,59.917171245894544,
Images/exp2b_trial_5_colour1_distractors43_r.png,r,2,2b,5,1,43,,,,,0,97,97,347,,,,,,,,,,,,,,,,,,,,,,,,,,,,,,,,,,,,,,,,,,,,212.8577862342354,None,space,0.2586776822572574,212.8577862342354,None,213.2247291864478,None,2,1,0.6612497552414425,213.2247291864478,None,213.9591403340921,None,None,213.9591403340921,None,,,001,2021_Jan_05_1650,searchDisc3,2020.2.2,59.917171245894544,
Images/exp2a_trial_75_colour0_distractors0_l.png,l,1,2a,75,0,0,,,,,0,98,98,303,,,,,,,,,,,,,,,,,,,,,,,,,,,,,,,,,,,,,,,,,,,,213.95895716774976,None,space,0.2768688792712055,213.95895716774976,None,214.34252365096472,None,1,1,0.5352800039108843,214.34252365096472,None,214.92661115353113,None,None,214.92661115353113,None,,,001,2021_Jan_05_1650,searchDisc3,2020.2.2,59.917171245894544,
Images/exp2a_trial_2_colour1_distractors9_r.png,r,2,2a,2,1,9,,,,,0,99,99,230,,,,,,,,,,,,,,,,,,,,,,,,,,,,,,,,,,,,,,,,,,,,214.92653377825627,None,space,0.27792614977806807,214.92653377825627,None,215.31018890067935,None,2,1,0.7995432360912673,215.31018890067935,None,216.1445600487292,None,None,216.1445600487292,None,,,001,2021_Jan_05_1650,searchDisc3,2020.2.2,59.917171245894544,
Images/exp1b_trial_55_colour3_distractors43_r.png,r,2,1b,55,3,43,,,,,0,100,100,169,,,,,,,,,,,,,,,,,,,,,,,,,,,,,,,,,,,,,,,,,,,,216.16133583441842,None,space,0.3146480607101694,216.16133583441842,None,216.59492970944848,None,2,1,0.9469220755854622,216.59492970944848,None,217.5960381155077,None,None,217.5960381155077,None,,,001,2021_Jan_05_1650,searchDisc3,2020.2.2,59.917171245894544,
Images/exp1a_trial_44_colour2_distractors1_r.png,r,2,1a,44,2,1,,,,,0,101,101,44,,,,,,,,,,,,,,,,,,,,,,,,,,,,,,,,,,,,,,,,,,,,217.59599305992015,None,space,0.2798979720682837,217.59599305992015,None,217.97971314174356,None,2,1,0.5225242782034911,217.97971314174356,None,218.5636128060345,None,None,218.5636128060345,None,,,001,2021_Jan_05_1650,searchDisc3,2020.2.2,59.917171245894544,
Images/exp2b_trial_71_colour3_distractors19_l.png,l,1,2b,71,3,19,,,,,0,102,102,413,,,,,,,,,,,,,,,,,,,,,,,,,,,,,,,,,,,,,,,,,,,,218.56354727060534,None,space,0.24894464947283268,218.56354727060534,None,218.91372365300776,None,1,1,0.7001143670058809,218.91372365300776,None,219.6646298209147,None,None,219.6646298209147,None,,,001,2021_Jan_05_1650,searchDisc3,2020.2.2,59.917171245894544,
Images/exp1a_trial_76_colour1_distractors1_r.png,r,2,1a,76,1,1,,,,,0,103,103,76,,,,,,,,,,,,,,,,,,,,,,,,,,,,,,,,,,,,,,,,,,,,219.66473292396404,None,space,0.26714416639879346,219.66473292396404,None,220.0481285287533,None,2,1,0.6137090611737221,220.0481285287533,None,220.71578712255578,None,None,220.71578712255578,None,,,001,2021_Jan_05_1650,searchDisc3,2020.2.2,59.917171245894544,
Images/exp1b_trial_72_colour3_distractors31_l.png,l,1,1b,72,3,31,,,,,0,104,104,186,,,,,,,,,,,,,,,,,,,,,,,,,,,,,,,,,,,,,,,,,,,,220.71585758589208,None,space,0.21607390395365655,220.71585758589208,None,221.03244226932293,None,1,1,1.085505153867416,221.03244226932293,None,222.16718435800286,None,None,222.16718435800286,None,,,001,2021_Jan_05_1650,searchDisc3,2020.2.2,59.917171245894544,
Images/exp2b_trial_99_colour1_distractors43_l.png,l,1,2b,99,1,43,,,,,0,105,105,441,,,,,,,,,,,,,,,,,,,,,,,,,,,,,,,,,,,,,,,,,,,,222.18391771207098,None,space,0.23624620324699208,222.18391771207098,None,222.5340236951597,None,1,1,0.5923857322195545,222.5340236951597,None,223.20149624259213,None,None,223.20149624259213,None,,,001,2021_Jan_05_1650,searchDisc3,2020.2.2,59.917171245894544,
Images/exp1b_trial_100_colour2_distractors1_l.png,l,1,1b,100,2,1,,,,,0,106,106,214,,,,,,,,,,,,,,,,,,,,,,,,,,,,,,,,,,,,,,,,,,,,223.20141483534826,None,space,0.23437037999974564,223.20141483534826,None,223.5515675379429,None,1,1,0.5582545180222951,223.5515675379429,None,224.1690579412447,None,None,224.1690579412447,None,,,001,2021_Jan_05_1650,searchDisc3,2020.2.2,59.917171245894544,
Images/exp1a_trial_94_colour1_distractors1_l.png,l,1,1a,94,1,1,,,,,0,107,107,94,,,,,,,,,,,,,,,,,,,,,,,,,,,,,,,,,,,,,,,,,,,,224.16907976503717,None,space,0.3069422098342329,224.16907976503717,None,224.60280643886654,None,1,1,0.5312278801575303,224.60280643886654,None,225.18677330250503,None,None,225.18677330250503,None,,,001,2021_Jan_05_1650,searchDisc3,2020.2.2,59.917171245894544,
Images/exp2a_trial_31_colour3_distractors4_l.png,l,1,2a,31,3,4,,,,,0,108,108,259,,,,,,,,,,,,,,,,,,,,,,,,,,,,,,,,,,,,,,,,,,,,225.18677528650733,None,space,0.2498297615093179,225.18677528650733,None,225.5368883094634,None,1,1,0.5729772660997696,225.5368883094634,None,226.17097792402492,None,None,226.17097792402492,None,,,001,2021_Jan_05_1650,searchDisc3,2020.2.2,59.917171245894544,
Images/exp2a_trial_44_colour2_distractors1_r.png,r,2,2a,44,2,1,,,,,0,109,109,272,,,,,,,,,,,,,,,,,,,,,,,,,,,,,,,,,,,,,,,,,,,,226.17098790797172,None,space,0.24879937077639624,226.17098790797172,None,226.5212855692953,None,2,1,0.652524393342901,226.5212855692953,None,227.22215314547648,None,None,227.22215314547648,None,,,001,2021_Jan_05_1650,searchDisc3,2020.2.2,59.917171245894544,
Images/exp2b_trial_83_colour2_distractors4_r.png,r,2,2b,83,2,4,,,,,0,110,110,425,,,,,,,,,,,,,,,,,,,,,,,,,,,,,,,,,,,,,,,,,,,,227.2219605712453,None,space,0.26985870202770457,227.2219605712453,None,227.6055260944995,None,2,1,0.7603192675160244,227.6055260944995,None,228.42339486239362,None,None,228.42339486239362,None,,,001,2021_Jan_05_1650,searchDisc3,2020.2.2,59.917171245894544,
Images/exp2c_trial_97_colour1_distractors19_l.png,l,1,2c,97,1,19,,,,,0,111,111,553,,,,,,,,,,,,,,,,,,,,,,,,,,,,,,,,,,,,,,,,,,,,228.4233222870389,None,space,0.24512068374315277,228.4233222870389,None,228.77339915034827,None,1,1,0.8403438305249438,228.77339915034827,None,229.67441693321453,None,None,229.67441693321453,None,,,001,2021_Jan_05_1650,searchDisc3,2020.2.2,59.917171245894544,
Images/exp2c_trial_90_colour3_distractors9_r.png,r,2,2c,90,3,9,,,,,0,112,112,546,,,,,,,,,,,,,,,,,,,,,,,,,,,,,,,,,,,,,,,,,,,,229.6912958860048,None,space,0.2571260161930695,229.6912958860048,None,230.05811851925682,None,2,1,0.8202096109162085,230.05811851925682,None,230.94247469143593,None,None,230.94247469143593,None,,,001,2021_Jan_05_1650,searchDisc3,2020.2.2,59.917171245894544,
Images/exp1b_trial_49_colour2_distractors43_r.png,r,2,1b,49,2,43,,,,,0,113,113,163,,,,,,,,,,,,,,,,,,,,,,,,,,,,,,,,,,,,,,,,,,,,230.94259731430793,None,space,0.2212556175654754,230.94259731430793,None,231.27585864829598,None,2,1,2.8100730617297813,231.27585864829598,None,234.14562071121182,None,None,234.14562071121182,None,,,001,2021_Jan_05_1650,searchDisc3,2020.2.2,59.917171245894544,
Images/exp2a_trial_88_colour3_distractors1_r.png,r,2,2a,88,3,1,,,,,0,114,114,316,,,,,,,,,,,,,,,,,,,,,,,,,,,,,,,,,,,,,,,,,,,,234.16233198548434,None,space,0.24956224393099546,234.16233198548434,None,234.51234772935277,None,2,1,0.5655731724691577,234.51234772935277,None,235.12982053281158,None,None,235.12982053281158,None,,,001,2021_Jan_05_1650,searchDisc3,2020.2.2,59.917171245894544,
Images/exp2b_trial_6_colour2_distractors1_r.png,r,2,2b,6,2,1,,,,,0,115,115,348,,,,,,,,,,,,,,,,,,,,,,,,,,,,,,,,,,,,,,,,,,,,235.14664284605533,None,space,0.20913028618087992,235.14664284605533,None,235.46330688876333,None,2,1,0.5585489154327661,235.46330688876333,None,236.08076625230606,None,None,236.08076625230606,None,,,001,2021_Jan_05_1650,searchDisc3,2020.2.2,59.917171245894544,
Images/exp2c_trial_107_colour3_distractors4_l.png,l,1,2c,107,3,4,,,,,0,116,116,563,,,,,,,,,,,,,,,,,,,,,,,,,,,,,,,,,,,,,,,,,,,,236.08092695492087,None,space,0.19529329019133002,236.08092695492087,None,236.38087402738165,None,1,1,0.6490111448219977,236.38087402738165,None,237.08184432268027,None,None,237.08184432268027,None,,,001,2021_Jan_05_1650,searchDisc3,2020.2.2,59.917171245894544,
Images/exp1a_trial_7_colour2_distractors4_r.png,r,2,1a,7,2,4,,,,,0,117,117,7,,,,,,,,,,,,,,,,,,,,,,,,,,,,,,,,,,,,,,,,,,,,237.09840071829967,None,space,0.20134123595198616,237.09840071829967,None,237.4152241196134,None,2,1,0.654771733272355,237.4152241196134,None,238.13286306552473,None,None,238.13286306552473,None,,,001,2021_Jan_05_1650,searchDisc3,2020.2.2,59.917171245894544,
Images/exp1b_trial_98_colour1_distractors31_l.png,l,1,1b,98,1,31,,,,,0,118,118,212,,,,,,,,,,,,,,,,,,,,,,,,,,,,,,,,,,,,,,,,,,,,238.14953786012484,None,space,0.22302360169123858,238.14953786012484,None,238.48293551290408,None,1,1,1.4029272697516717,238.48293551290408,None,239.9345445224957,None,None,239.9345445224957,None,,,001,2021_Jan_05_1650,searchDisc3,2020.2.2,59.917171245894544,
Images/exp1b_trial_28_colour2_distractors31_l.png,l,1,1b,28,2,31,,,,,0,119,119,142,,,,,,,,,,,,,,,,,,,,,,,,,,,,,,,,,,,,,,,,,,,,239.9513050763053,None,space,0.17272165237227455,239.9513050763053,None,240.23465517751174,None,1,1,0.6111497241072357,240.23465517751174,None,240.9022533558309,None,space,240.9022533558309,None,0.18351003574207425,,001,2021_Jan_05_1650,searchDisc3,2020.2.2,59.917171245894544,
Images/exp1a_trial_51_colour3_distractors4_r.png,r,2,1a,51,3,4,,,,,0,120,120,51,,,,,,,,,,,,,,,,,,,,,,,,,,,,,,,,,,,,,,,,,,,,241.1024262822466,None,space,0.9435953853535466,241.1024262822466,None,242.15338614565553,None,2,1,0.6123865130357444,242.15338614565553,None,242.82081242150744,None,None,242.82081242150744,None,,,001,2021_Jan_05_1650,searchDisc3,2020.2.2,59.917171245894544,
Images/exp1b_trial_109_colour3_distractors19_l.png,l,1,1b,109,3,19,,,,,0,121,121,223,,,,,,,,,,,,,,,,,,,,,,,,,,,,,,,,,,,,,,,,,,,,242.82079840562074,None,space,0.3111188123584725,242.82079840562074,None,243.23756619141204,None,1,1,4.0162612943095155,243.23756619141204,None,247.30845637224266,None,None,247.30845637224266,None,,,001,2021_Jan_05_1650,searchDisc3,2020.2.2,59.917171245894544,
Images/exp2b_trial_25_colour2_distractors4_l.png,l,1,2b,25,2,4,,,,,0,122,122,367,,,,,,,,,,,,,,,,,,,,,,,,,,,,,,,,,,,,,,,,,,,,247.32534396491246,None,space,0.5587076339870691,247.32534396491246,None,247.99227014923235,None,1,1,0.581554469303228,247.99227014923235,None,248.62641736330116,None,None,248.62641736330116,None,,,001,2021_Jan_05_1650,searchDisc3,2020.2.2,59.917171245894544,
Images/exp1b_trial_44_colour2_distractors1_r.png,r,2,1b,44,2,1,,,,,0,123,123,158,,,,,,,,,,,,,,,,,,,,,,,,,,,,,,,,,,,,,,,,,,,,248.643058878195,None,space,0.27267531683901325,248.643058878195,None,249.0268368795514,None,2,1,0.7388605798478238,249.0268368795514,None,249.8276833999611,None,None,249.8276833999611,None,,,001,2021_Jan_05_1650,searchDisc3,2020.2.2,59.917171245894544,
Images/exp1b_trial_47_colour2_distractors19_r.png,r,2,1b,47,2,19,,,,,0,124,124,161,,,,,,,,,,,,,,,,,,,,,,,,,,,,,,,,,,,,,,,,,,,,249.82775450329063,None,space,0.4158711538184434,249.82775450329063,None,250.34459019248607,None,2,1,0.9811028892872855,250.34459019248607,None,251.37907653948642,None,None,251.37907653948642,None,,,001,2021_Jan_05_1650,searchDisc3,2020.2.2,59.917171245894544,
Images/exp1b_trial_42_colour1_distractors31_r.png,r,2,1b,42,1,31,,,,,0,125,125,156,,,,,,,,,,,,,,,,,,,,,,,,,,,,,,,,,,,,,,,,,,,,251.37909580330597,None,space,0.25654714135453105,251.37909580330597,None,251.74617283430416,None,2,1,0.603645151364617,251.74617283430416,None,252.41361287003966,None,None,252.41361287003966,None,,,001,2021_Jan_05_1650,searchDisc3,2020.2.2,59.917171245894544,
Images/exp1a_trial_50_colour3_distractors1_r.png,r,2,1a,50,3,1,,,,,0,126,126,50,,,,,,,,,,,,,,,,,,,,,,,,,,,,,,,,,,,,,,,,,,,,252.43030494445702,None,space,0.21364256576634943,252.43030494445702,None,252.74690722773084,None,2,1,0.6508735281531699,252.74690722773084,None,253.44787304307684,None,None,253.44787304307684,None,,,001,2021_Jan_05_1650,searchDisc3,2020.2.2,59.917171245894544,
Images/exp2c_trial_15_colour3_distractors19_r.png,r,2,2c,15,3,19,,,,,0,127,127,471,,,,,,,,,,,,,,,,,,,,,,,,,,,,,,,,,,,,,,,,,,,,253.44789998681517,None,space,0.1557336446712725,253.44789998681517,None,253.73140496661654,None,2,1,0.6184085390414111,253.73140496661654,None,254.3989448414708,None,None,254.3989448414708,None,,,001,2021_Jan_05_1650,searchDisc3,2020.2.2,59.917171245894544,
Images/exp1b_trial_61_colour1_distractors43_l.png,l,1,1b,61,1,43,,,,,0,128,128,175,,,,,,,,,,,,,,,,,,,,,,,,,,,,,,,,,,,,,,,,,,,,254.41558443638496,None,space,0.20464616635581478,254.41558443638496,None,254.73218863958027,None,1,1,0.8496455071726814,254.73218863958027,None,255.63327138190508,None,None,255.63327138190508,None,,,001,2021_Jan_05_1650,searchDisc3,2020.2.2,59.917171245894544,
Images/exp1b_trial_97_colour1_distractors19_l.png,l,1,1b,97,1,19,,,,,0,129,129,211,,,,,,,,,,,,,,,,,,,,,,,,,,,,,,,,,,,,,,,,,,,,255.63338216487318,None,space,0.20270250376779586,255.63338216487318,None,255.95009644713718,None,1,1,0.8557731322944164,255.95009644713718,None,256.86779856053766,None,None,256.86779856053766,None,,,001,2021_Jan_05_1650,searchDisc3,2020.2.2,59.917171245894544,
Images/exp2c_trial_84_colour2_distractors9_r.png,r,2,2c,84,2,9,,,,,0,130,130,540,,,,,,,,,,,,,,,,,,,,,,,,,,,,,,,,,,,,,,,,,,,,256.8680024626665,None,space,0.20793797686928883,256.8680024626665,None,257.1846085858997,None,2,1,0.8691669323015958,257.1846085858997,None,258.10251485749035,None,None,258.10251485749035,None,,,001,2021_Jan_05_1650,searchDisc3,2020.2.2,59.917171245894544,
Images/exp2c_trial_60_colour1_distractors31_l.png,l,1,2c,60,1,31,,,,,0,131,131,516,,,,,,,,,,,,,,,,,,,,,,,,,,,,,,,,,,,,,,,,,,,,258.10254020121647,None,space,0.2051389619591646,258.10254020121647,None,258.41918952408014,None,1,1,0.6906475718133152,258.41918952408014,None,259.17016865127374,None,None,259.17016865127374,None,,,001,2021_Jan_05_1650,searchDisc3,2020.2.2,59.917171245894544,
Images/exp2c_trial_108_colour3_distractors9_l.png,l,1,2c,108,3,9,,,,,0,132,132,564,,,,,,,,,,,,,,,,,,,,,,,,,,,,,,,,,,,,,,,,,,,,259.17006855621,None,space,0.21807580604217947,259.17006855621,None,259.50358876783866,None,1,1,0.9021666366024874,259.50358876783866,None,260.4547571413627,None,None,260.4547571413627,None,,,001,2021_Jan_05_1650,searchDisc3,2020.2.2,59.917171245894544,
Images/exp1a_trial_24_colour2_distractors1_l.png,l,1,1a,24,2,1,,,,,0,133,133,24,,,,,,,,,,,,,,,,,,,,,,,,,,,,,,,,,,,,,,,,,,,,260.4546333664912,None,space,0.20593095483491197,260.4546333664912,None,260.77146156772505,None,1,1,0.7863267145003192,260.77146156772505,None,261.62246155873294,None,None,261.62246155873294,None,,,001,2021_Jan_05_1650,searchDisc3,2020.2.2,59.917171245894544,
Images/exp2b_trial_81_colour1_distractors43_r.png,r,2,2b,81,1,43,,,,,0,134,134,423,,,,,,,,,,,,,,,,,,,,,,,,,,,,,,,,,,,,,,,,,,,,261.63919331284706,None,space,0.17293957044603303,261.63919331284706,None,261.92259269359056,None,2,1,0.9791000272380188,261.92259269359056,None,262.95708544052326,None,None,262.95708544052326,None,,,001,2021_Jan_05_1650,searchDisc3,2020.2.2,59.917171245894544,
Images/exp2c_trial_87_colour2_distractors43_r.png,r,2,2c,87,2,43,,,,,0,135,135,543,,,,,,,,,,,,,,,,,,,,,,,,,,,,,,,,,,,,,,,,,,,,262.9572211832856,None,space,0.198770699033048,262.9572211832856,None,263.2572655348922,None,2,1,1.3246313313138671,263.2572655348922,None,264.6421324224852,None,None,264.6421324224852,None,,,001,2021_Jan_05_1650,searchDisc3,2020.2.2,59.917171245894544,
Images/exp2a_trial_3_colour1_distractors19_r.png,r,2,2a,3,1,19,,,,,0,136,136,231,,,,,,,,,,,,,,,,,,,,,,,,,,,,,,,,,,,,,,,,,,,,264.6422460854519,None,space,0.2022420279099606,264.6422460854519,None,264.9589405278675,None,2,1,0.6869512849370949,264.9589405278675,None,265.7099110151816,None,None,265.7099110151816,None,,,001,2021_Jan_05_1650,searchDisc3,2020.2.2,59.917171245894544,
Images/exp1a_trial_5_colour1_distractors43_r.png,r,2,1a,5,1,43,,,,,0,137,137,5,,,,,,,,,,,,,,,,,,,,,,,,,,,,,,,,,,,,,,,,,,,,265.709933798993,None,space,0.1586468985187821,265.709933798993,None,265.9768549273722,None,2,1,0.6128809085930698,265.9768549273722,None,266.64411064476593,None,None,266.64411064476593,None,,,001,2021_Jan_05_1650,searchDisc3,2020.2.2,59.917171245894544,
Images/exp2a_trial_1_colour1_distractors4_r.png,r,2,2a,1,1,4,,,,,0,138,138,229,,,,,,,,,,,,,,,,,,,,,,,,,,,,,,,,,,,,,,,,,,,,266.6439961497672,None,space,0.2006004426511936,266.6439961497672,None,266.960909790243,None,2,1,0.5248138576862402,266.960909790243,None,267.54495121323856,None,None,267.54495121323856,None,,,001,2021_Jan_05_1650,searchDisc3,2020.2.2,59.917171245894544,
Images/exp2b_trial_68_colour3_distractors1_l.png,l,1,2b,68,3,1,,,,,0,139,139,410,,,,,,,,,,,,,,,,,,,,,,,,,,,,,,,,,,,,,,,,,,,,267.54496535711223,None,space,0.1867538466467522,267.54496535711223,None,267.8451053878525,None,1,1,0.9367327268701047,267.8451053878525,None,268.8463110730576,None,None,268.8463110730576,None,,,001,2021_Jan_05_1650,searchDisc3,2020.2.2,59.917171245894544,
Images/exp2b_trial_104_colour2_distractors31_l.png,l,1,2b,104,2,31,,,,,0,140,140,446,,,,,,,,,,,,,,,,,,,,,,,,,,,,,,,,,,,,,,,,,,,,268.8628975484171,None,space,0.14088353770785034,268.8628975484171,None,269.1130041074939,None,1,1,0.8606847682385705,269.1130041074939,None,270.0308748593729,None,None,270.0308748593729,None,,,001,2021_Jan_05_1650,searchDisc3,2020.2.2,59.917171245894544,
Images/exp2a_trial_90_colour3_distractors9_r.png,r,2,2a,90,3,9,,,,,0,141,141,318,,,,,,,,,,,,,,,,,,,,,,,,,,,,,,,,,,,,,,,,,,,,270.0308477235958,None,space,0.1968001566710882,270.0308477235958,None,270.33088279527146,None,2,1,0.7708702129893936,270.33088279527146,None,271.16536677431435,None,None,271.16536677431435,None,,,001,2021_Jan_05_1650,searchDisc3,2020.2.2,59.917171245894544,
Images/exp2c_trial_55_colour3_distractors43_r.png,r,2,2c,55,3,43,,,,,0,142,142,511,,,,,,,,,,,,,,,,,,,,,,,,,,,,,,,,,,,,,,,,,,,,271.16537515824893,None,space,0.20625895191915333,271.16537515824893,None,271.48201328114374,None,2,1,0.6116969191934913,271.48201328114374,None,272.14952499623763,None,None,272.14952499623763,None,,,001,2021_Jan_05_1650,searchDisc3,2020.2.2,59.917171245894544,
Images/exp1a_trial_41_colour1_distractors19_r.png,r,2,1a,41,1,19,,,,,0,143,143,41,,,,,,,,,,,,,,,,,,,,,,,,,,,,,,,,,,,,,,,,,,,,272.16622507059947,None,space,0.18994005816057324,272.16622507059947,None,272.46631294186227,None,2,1,0.563386952097062,272.46631294186227,None,273.08377038542534,None,None,273.08377038542534,None,,,001,2021_Jan_05_1650,searchDisc3,2020.2.2,59.917171245894544,
Images/exp1a_trial_20_colour1_distractors9_l.png,l,1,1a,20,1,9,,,,,0,144,144,20,,,,,,,,,,,,,,,,,,,,,,,,,,,,,,,,,,,,,,,,,,,,273.08383156888885,None,space,0.16831145191099495,273.08383156888885,None,273.367200229899,None,1,1,0.8144816622370854,273.367200229899,None,274.2350307900983,None,None,274.2350307900983,None,,,001,2021_Jan_05_1650,searchDisc3,2020.2.2,59.917171245894544,
Images/exp1b_trial_50_colour3_distractors1_r.png,r,2,1b,50,3,1,,,,,0,145,145,164,,,,,,,,,,,,,,,,,,,,,,,,,,,,,,,,,,,,,,,,,,,,274.23499501444167,None,space,0.20091883977875113,274.23499501444167,None,274.5516296174028,None,2,1,1.174073320289608,274.5516296174028,None,275.78647512919855,None,None,275.78647512919855,None,,,001,2021_Jan_05_1650,searchDisc3,2020.2.2,59.917171245894544,
Images/exp2b_trial_15_colour3_distractors19_r.png,r,2,2b,15,3,19,,,,,0,146,146,357,,,,,,,,,,,,,,,,,,,,,,,,,,,,,,,,,,,,,,,,,,,,275.80304016475566,None,space,0.20116555754793808,275.80304016475566,None,276.10327459464315,None,2,1,0.9584477323223837,276.10327459464315,None,277.12115117046636,None,None,277.12115117046636,None,,,001,2021_Jan_05_1650,searchDisc3,2020.2.2,59.917171245894544,
Images/exp2c_trial_7_colour2_distractors4_r.png,r,2,2c,7,2,4,,,,,0,147,147,463,,,,,,,,,,,,,,,,,,,,,,,,,,,,,,,,,,,,,,,,,,,,277.1210721951793,None,space,0.2024717858294025,277.1210721951793,None,277.43793847609777,None,2,1,0.6719264595303684,277.43793847609777,None,278.1721407935897,None,None,278.1721407935897,None,,,001,2021_Jan_05_1650,searchDisc3,2020.2.2,59.917171245894544,
Images/exp2c_trial_48_colour2_distractors31_r.png,r,2,2c,48,2,31,,,,,0,148,148,504,,,,,,,,,,,,,,,,,,,,,,,,,,,,,,,,,,,,,,,,,,,,278.17218469723593,None,space,0.20764069951837882,278.17218469723593,None,278.4888983394485,None,2,1,0.6370790917426348,278.4888983394485,None,279.1897675157001,None,None,279.1897675157001,None,,,001,2021_Jan_05_1650,searchDisc3,2020.2.2,59.917171245894544,
Images/exp2a_trial_95_colour1_distractors4_l.png,l,1,2a,95,1,4,,,,,0,149,149,323,,,,,,,,,,,,,,,,,,,,,,,,,,,,,,,,,,,,,,,,,,,,279.18973270000424,None,space,0.16584107402013615,279.18973270000424,None,279.456474949955,None,1,1,0.7251480626873672,279.456474949955,None,280.24080545839973,None,None,280.24080545839973,None,,,001,2021_Jan_05_1650,searchDisc3,2020.2.2,59.917171245894544,
Images/exp2a_trial_14_colour3_distractors9_r.png,r,2,2a,14,3,9,,,,,0,150,150,242,,,,,,,,,,,,,,,,,,,,,,,,,,,,,,,,,,,,,,,,,,,,280.25752729253145,None,space,0.21025411610025913,280.25752729253145,None,280.57427389448276,None,2,1,0.6954382488620467,280.57427389448276,None,281.3252715815383,None,None,281.3252715815383,None,,,001,2021_Jan_05_1650,searchDisc3,2020.2.2,59.917171245894544,
Images/exp2b_trial_91_colour3_distractors19_r.png,r,2,2b,91,3,19,,,,,0,151,151,433,,,,,,,,,,,,,,,,,,,,,,,,,,,,,,,,,,,,,,,,,,,,281.32527964550536,None,space,0.1830956394551322,281.32527964550536,None,281.6086278266739,None,2,1,0.557018049119506,281.6086278266739,None,282.2259995110275,None,None,282.2259995110275,None,,,001,2021_Jan_05_1650,searchDisc3,2020.2.2,59.917171245894544,
Images/exp1b_trial_73_colour3_distractors43_l.png,l,1,1b,73,3,43,,,,,0,152,152,187,,,,,,,,,,,,,,,,,,,,,,,,,,,,,,,,,,,,,,,,,,,,282.226222293044,None,space,0.20207530941115692,282.226222293044,None,282.54284185613506,None,1,1,2.150882808084134,282.54284185613506,None,284.74522205879333,None,None,284.74522205879333,None,,,001,2021_Jan_05_1650,searchDisc3,2020.2.2,59.917171245894544,
Images/exp2c_trial_33_colour3_distractors19_l.png,l,1,2c,33,3,19,,,,,0,153,153,489,,,,,,,,,,,,,,,,,,,,,,,,,,,,,,,,,,,,,,,,,,,,284.7453046820592,None,space,0.2184982022154145,284.7453046820592,None,285.078868413344,None,1,1,0.5906916673993692,285.078868413344,None,285.72957771900695,None,None,285.72957771900695,None,,,001,2021_Jan_05_1650,searchDisc3,2020.2.2,59.917171245894544,
Images/exp2c_trial_82_colour2_distractors1_r.png,r,2,2c,82,2,1,,,,,0,154,154,538,,,,,,,,,,,,,,,,,,,,,,,,,,,,,,,,,,,,,,,,,,,,285.72965842223493,None,space,0.17823872301960364,285.72965842223493,None,286.0129262841656,None,2,1,0.6649553219904192,286.0129262841656,None,286.73052971042347,None,None,286.73052971042347,None,,,001,2021_Jan_05_1650,searchDisc3,2020.2.2,59.917171245894544,
Images/exp1a_trial_113_colour0_distractors0_l.png,l,1,1a,113,0,0,,,,,0,155,155,113,,,,,,,,,,,,,,,,,,,,,,,,,,,,,,,,,,,,,,,,,,,,286.74726882448886,None,space,0.19245491561014205,286.74726882448886,None,287.06405894603813,None,1,1,0.6217739489511587,287.06405894603813,None,287.7480962730537,None,None,287.7480962730537,None,,,001,2021_Jan_05_1650,searchDisc3,2020.2.2,59.917171245894544,
Images/exp1b_trial_75_colour0_distractors0_l.png,l,1,1b,75,0,0,,,,,0,156,156,189,,,,,,,,,,,,,,,,,,,,,,,,,,,,,,,,,,,,,,,,,,,,287.74824225576594,None,space,0.18329275771975517,287.74824225576594,None,288.0315827570157,None,1,1,0.6301085941959172,288.0315827570157,None,288.7158095223189,None,None,288.7158095223189,None,,,001,2021_Jan_05_1650,searchDisc3,2020.2.2,59.917171245894544,
Images/exp2b_trial_92_colour3_distractors31_r.png,r,2,2b,92,3,31,,,,,0,157,157,434,,,,,,,,,,,,,,,,,,,,,,,,,,,,,,,,,,,,,,,,,,,,288.7157599867787,None,space,0.24854113307083026,288.7157599867787,None,289.06602660840144,None,2,1,0.7636718775029294,289.06602660840144,None,289.8836931380851,None,None,289.8836931380851,None,,,001,2021_Jan_05_1650,searchDisc3,2020.2.2,59.917171245894544,
Images/exp1a_trial_8_colour2_distractors9_r.png,r,2,1a,8,2,9,,,,,0,158,158,8,,,,,,,,,,,,,,,,,,,,,,,,,,,,,,,,,,,,,,,,,,,,289.9003058532835,None,space,0.18379675317555666,289.9003058532835,None,290.18384699273156,None,2,1,0.7736586680402979,290.18384699273156,None,291.0013728516875,None,None,291.0013728516875,None,,,001,2021_Jan_05_1650,searchDisc3,2020.2.2,59.917171245894544,
Images/exp1b_trial_13_colour3_distractors4_r.png,r,2,1b,13,3,4,,,,,0,159,159,127,,,,,,,,,,,,,,,,,,,,,,,,,,,,,,,,,,,,,,,,,,,,291.0013295880635,None,space,0.19445553765399382,291.0013295880635,None,291.30145393899875,None,2,1,0.5522299320437014,291.30145393899875,None,291.9023524909339,None,None,291.9023524909339,None,,,001,2021_Jan_05_1650,searchDisc3,2020.2.2,59.917171245894544,
Images/exp1a_trial_46_colour2_distractors9_r.png,r,2,1a,46,2,9,,,,,0,160,160,46,,,,,,,,,,,,,,,,,,,,,,,,,,,,,,,,,,,,,,,,,,,,291.9021851964062,None,space,0.1742838784120977,291.9021851964062,None,292.1858616946847,None,2,1,0.5796312864986248,292.1858616946847,None,292.8198217104131,None,None,292.8198217104131,None,,,001,2021_Jan_05_1650,searchDisc3,2020.2.2,59.917171245894544,
Images/exp2c_trial_93_colour3_distractors43_r.png,r,2,2c,93,3,43,,,,,0,161,161,549,,,,,,,,,,,,,,,,,,,,,,,,,,,,,,,,,,,,,,,,,,,,292.83642770559527,None,space,0.16746249952120706,292.83642770559527,None,293.1199195655063,None,2,1,0.5656326919561252,293.1199195655063,None,293.7373603692453,None,None,293.7373603692453,None,,,001,2021_Jan_05_1650,searchDisc3,2020.2.2,59.917171245894544,
Images/exp2b_trial_29_colour2_distractors43_l.png,l,1,2b,29,2,43,,,,,0,162,162,371,,,,,,,,,,,,,,,,,,,,,,,,,,,,,,,,,,,,,,,,,,,,293.73756811139174,None,space,0.22674452839419246,293.73756811139174,None,294.0708617650671,None,1,1,0.5907745466683991,294.0708617650671,None,294.7217390692153,None,None,294.7217390692153,None,,,001,2021_Jan_05_1650,searchDisc3,2020.2.2,59.917171245894544,
Images/exp2a_trial_112_colour0_distractors0_r.png,r,2,2a,112,0,0,,,,,0,163,163,340,,,,,,,,,,,,,,,,,,,,,,,,,,,,,,,,,,,,,,,,,,,,294.72161657433026,None,space,0.1788569574127905,294.72161657433026,None,295.0052962725167,None,2,1,0.7443018110352568,295.0052962725167,None,295.8060999133217,None,None,295.8060999133217,None,,,001,2021_Jan_05_1650,searchDisc3,2020.2.2,59.917171245894544,
,,,,,,,,,,,,,,,,,,,,,,,,,,,,,,,,,,,,,,,,,,,,,,,,,,,,,,,,,,295.8061684567365,None,space,0.18155837326776236,295.8061684567365,None,,,,,,,,,,,,,,,,,,,,
