ImageFile,targ_side,correctAnswer,exp,trial,colour,distNo,trials_2.thisRepN,trials_2.thisTrialN,trials_2.thisN,trials_2.thisIndex,trials.thisRepN,trials.thisTrialN,trials.thisN,trials.thisIndex,X Scale,Y Scale,text_top.started,text_top.stopped,text_bottom.started,text_bottom.stopped,ccimage.started,ccimage.stopped,text_6.started,text_6.stopped,key_resp_10.keys,key_resp_10.rt,key_resp_10.started,key_resp_10.stopped,text_7.started,text_7.stopped,key_resp_11.keys,key_resp_11.rt,key_resp_11.started,key_resp_11.stopped,text_8.started,text_8.stopped,key_resp_12.keys,key_resp_12.rt,key_resp_12.started,key_resp_12.stopped,text_9.started,text_9.stopped,key_resp_13.keys,key_resp_13.rt,key_resp_13.started,key_resp_13.stopped,text_2.started,text_2.stopped,key_resp_5.keys,key_resp_5.rt,key_resp_5.started,key_resp_5.stopped,text_5.started,text_5.stopped,key_resp_8.keys,key_resp_8.rt,key_resp_8.started,key_resp_8.stopped,image_2.started,image_2.stopped,key_resp_6.keys,key_resp_6.rt,key_resp_6.started,key_resp_6.stopped,text_3.started,text_3.stopped,image_3.started,image_3.stopped,fix.started,fix.stopped,key_resp_7.keys,key_resp_7.rt,key_resp_7.started,key_resp_7.stopped,image.started,image.stopped,key_resp_4.keys,key_resp_4.corr,key_resp_4.rt,key_resp_4.started,key_resp_4.stopped,text_4.started,text_4.stopped,text.started,text.stopped,key_resp_3.keys,key_resp_3.rt,key_resp_3.started,key_resp_3.stopped,fix2experiment.started,fix2experiment.stopped,key_resp_9.keys,key_resp_9.rt,key_resp_9.started,key_resp_9.stopped,dispStimuli.started,dispStimuli.stopped,key_resp_2.keys,key_resp_2.corr,key_resp_2.rt,key_resp_2.started,key_resp_2.stopped,breakMessage.started,breakMessage.stopped,key_resp.keys,key_resp.started,key_resp.stopped,key_resp.rt,participant,session,date,expName,psychopyVersion,frameRate,
,,,,,,,,,,,,,,,40.7,40,10.251912500010803,None,10.251912500010803,None,10.251912500010803,None,33.78524410002865,None,space,0.7084965000394732,33.78524410002865,None,,,,,,,,,,,,,,,,,,,,,,,,,,,,,,,,,,,,,,,,,,,,,,,,,,,,,,,,,,,,,,,,,,,,,,,,,,,,,,,,,,001,2021_Oct_01_1553,searchDisc4,2021.1.2,60.12860305547748,
,,,,,,,,,,,,,,,,,,,,,,,,,,,,,34.5196129999822,None,space,0.6466872000601143,34.5196129999822,None,,,,,,,,,,,,,,,,,,,,,,,,,,,,,,,,,,,,,,,,,,,,,,,,,,,,,,,,,,,,,,,,,,,,,,,,,,,,001,2021_Oct_01_1553,searchDisc4,2021.1.2,60.12860305547748,
,,,,,,,,,,,,,,,,,,,,,,,,,,,,,,,,,,,35.187008399982005,None,space,0.482970800017938,35.187008399982005,None,,,,,,,,,,,,,,,,,,,,,,,,,,,,,,,,,,,,,,,,,,,,,,,,,,,,,,,,,,,,,,,,,,,,,,001,2021_Oct_01_1553,searchDisc4,2021.1.2,60.12860305547748,
,,,,,,,,,,,,,,,,,,,,,,,,,,,,,,,,,,,,,,,,,35.68735440005548,None,space,0.4148722999962047,35.68735440005548,None,,,,,,,,,,,,,,,,,,,,,,,,,,,,,,,,,,,,,,,,,,,,,,,,,,,,,,,,,,,,,,,,001,2021_Oct_01_1553,searchDisc4,2021.1.2,60.12860305547748,
,,,,,,,,,,,,,,,,,,,,,,,,,,,,,,,,,,,,,,,,,,,,,,,36.12119770003483,None,space,0.5329764999914914,37.10507489996962,None,,,,,,,,,,,,,,,,,,,,,,,,,,,,,,,,,,,,,,,,,,,,,,,,,,,,,,,,,,001,2021_Oct_01_1553,searchDisc4,2021.1.2,60.12860305547748,
,,,,,,,,,,,,,,,,,,,,,,,,,,,,,,,,,,,,,,,,,,,,,,,,,,,,,37.65637380001135,None,space,0.5252532999729738,37.65637380001135,None,,,,,,,,,,,,,,,,,,,,,,,,,,,,,,,,,,,,,,,,,,,,,,,,,,,,001,2021_Oct_01_1553,searchDisc4,2021.1.2,60.12860305547748,
,,,,,,,,,,,,,,,,,,,,,,,,,,,,,,,,,,,,,,,,,,,,,,,,,,,,,,,,,,,38.206444400013424,None,space,0.031102500041015446,39.19077039998956,None,,,,,,,,,,,,,,,,,,,,,,,,,,,,,,,,,,,,,,,,,,,,,,001,2021_Oct_01_1553,searchDisc4,2021.1.2,60.12860305547748,
Practice arrays/exp1a_trial_12_colour3_distractors9_r.png,r,j,,,,,0,0,0,5,,,,,,,,,,,,,,,,,,,,,,,,,,,,,,,,,,,,,,,,,,,,,,,,,,,,,,,38.206444400013424,None,38.206444400013424,None,39.28064620005898,None,space,0.6452540999744087,39.28064620005898,None,40.040997500065714,None,j,1,1.973088499973528,40.040997500065714,None,42.03793900005985,None,,,,,,,,,,,,,,,,,,,,,,,,,,,001,2021_Oct_01_1553,searchDisc4,2021.1.2,60.12860305547748,
Practice arrays/exp1a_trial_0_colour1_distractors1_r.png,r,j,,,,,0,1,1,0,,,,,,,,,,,,,,,,,,,,,,,,,,,,,,,,,,,,,,,,,,,,,,,,,,,,,,,,,,,43.044200300006196,None,space,1.9293255000375211,43.044200300006196,None,45.03266360005364,None,j,1,0.6609941000351682,45.03266360005364,None,45.71342739998363,None,,,,,,,,,,,,,,,,,,,,,,,,,,,001,2021_Oct_01_1553,searchDisc4,2021.1.2,60.12860305547748,
Practice arrays/exp1a_trial_30_colour0_distractors0_r.png,r,j,,,,,0,2,2,14,,,,,,,,,,,,,,,,,,,,,,,,,,,,,,,,,,,,,,,,,,,,,,,,,,,,,,,,,,,46.71449759998359,None,space,0.30678840004839003,46.71449759998359,None,47.11942220001947,None,j,1,0.5187203000532463,47.11942220001947,None,47.665440600016154,None,,,,,,,,,,,,,,,,,,,,,,,,,,,001,2021_Oct_01_1553,searchDisc4,2021.1.2,60.12860305547748,
Practice arrays/exp1a_trial_18_colour1_distractors19_l.png,l,f,,,,,0,3,3,8,,,,,,,,,,,,,,,,,,,,,,,,,,,,,,,,,,,,,,,,,,,,,,,,,,,,,,,,,,,48.66667890001554,None,space,0.3232285000849515,48.66667890001554,None,49.05974639998749,None,f,1,0.7139471999835223,49.05974639998749,None,49.800914800027385,None,,,,,,,,,,,,,,,,,,,,,,,,,,,001,2021_Oct_01_1553,searchDisc4,2021.1.2,60.12860305547748,
Practice arrays/exp1a_trial_10_colour3_distractors1_r.png,r,j,,,,,0,4,4,4,,,,,,,,,,,,,,,,,,,,,,,,,,,,,,,,,,,,,,,,,,,,,,,,,,,,,,,,,,,50.802010599989444,None,space,0.4117369999876246,50.802010599989444,None,51.28204119997099,None,j,1,0.6036699999822304,51.28204119997099,None,51.90304090001155,None,,,,,,,,,,,,,,,,,,,,,,,,,,,001,2021_Oct_01_1553,searchDisc4,2021.1.2,60.12860305547748,
Practice arrays/exp1a_trial_16_colour1_distractors4_l.png,l,f,,,,,0,5,5,13,,,,,,,,,,,,,,,,,,,,,,,,,,,,,,,,,,,,,,,,,,,,,,,,,,,,,,,,,,,52.90413020004053,None,space,0.37399330001790076,52.90413020004053,None,53.374004899989814,None,f,1,0.5521922000916675,53.374004899989814,None,53.93864439998288,None,,,,,,,,,,,,,,,,,,,,,,,,,,,001,2021_Oct_01_1553,searchDisc4,2021.1.2,60.12860305547748,
Practice arrays/exp1a_trial_7_colour2_distractors9_r.png,r,j,,,,,0,6,6,2,,,,,,,,,,,,,,,,,,,,,,,,,,,,,,,,,,,,,,,,,,,,,,,,,,,,,,,,,,,54.939149099984206,None,space,0.3943494000704959,54.939149099984206,None,55.402354200021364,None,j,1,0.5311446998966858,55.402354200021364,None,55.95740029995795,None,,,,,,,,,,,,,,,,,,,,,,,,,,,001,2021_Oct_01_1553,searchDisc4,2021.1.2,60.12860305547748,
Practice arrays/exp1a_trial_8_colour2_distractors19_r.png,r,j,,,,,0,7,7,3,,,,,,,,,,,,,,,,,,,,,,,,,,,,,,,,,,,,,,,,,,,,,,,,,,,,,,,,,,,56.95805909996852,None,space,0.44852580002043396,56.95805909996852,None,57.50832070002798,None,j,1,0.5293226999929175,57.50832070002798,None,58.05909990007058,None,,,,,,,,,,,,,,,,,,,,,,,,,,,001,2021_Oct_01_1553,searchDisc4,2021.1.2,60.12860305547748,
Practice arrays/exp1a_trial_25_colour3_distractors1_l.png,l,f,,,,,0,8,8,11,,,,,,,,,,,,,,,,,,,,,,,,,,,,,,,,,,,,,,,,,,,,,,,,,,,,,,,,,,,59.06031670002267,None,space,0.32969990000128746,59.06031670002267,None,59.4821642000461,None,f,1,0.6036907999077812,59.4821642000461,None,60.11107220000122,None,,,,,,,,,,,,,,,,,,,,,,,,,,,001,2021_Oct_01_1553,searchDisc4,2021.1.2,60.12860305547748,
Practice arrays/exp1a_trial_23_colour2_distractors19_l.png,l,f,,,,,0,9,9,10,,,,,,,,,,,,,,,,,,,,,,,,,,,,,,,,,,,,,,,,,,,,,,,,,,,,,,,,,,,61.11214740003925,None,space,0.3729799999855459,61.11214740003925,None,61.59655110002495,None,f,1,0.6653614999959245,61.59655110002495,None,62.28000340005383,None,,,,,,,,,,,,,,,,,,,,,,,,,,,001,2021_Oct_01_1553,searchDisc4,2021.1.2,60.12860305547748,
Practice arrays/exp1a_trial_31_colour0_distractors0_l.png,l,f,,,,,0,10,10,15,,,,,,,,,,,,,,,,,,,,,,,,,,,,,,,,,,,,,,,,,,,,,,,,,,,,,,,,,,,63.281460499973036,None,space,0.37236769997980446,63.281460499973036,None,63.744167100056075,None,f,1,0.4853958999738097,63.744167100056075,None,64.24889899999835,None,,,,,,,,,,,,,,,,,,,,,,,,,,,001,2021_Oct_01_1553,searchDisc4,2021.1.2,60.12860305547748,
Practice arrays/exp1a_trial_1_colour1_distractors4_r.png,r,j,,,,,0,11,11,1,,,,,,,,,,,,,,,,,,,,,,,,,,,,,,,,,,,,,,,,,,,,,,,,,,,,,,,,,,,65.24976310005877,None,space,1.3402686999179423,65.24976310005877,None,66.65147040004376,None,j,1,0.46683970000594854,66.65147040004376,None,67.1353118000552,None,,,,,,,,,,,,,,,,,,,,,,,,,,,001,2021_Oct_01_1553,searchDisc4,2021.1.2,60.12860305547748,
Practice arrays/exp1a_trial_21_colour2_distractors4_l.png,l,f,,,,,0,12,12,9,,,,,,,,,,,,,,,,,,,,,,,,,,,,,,,,,,,,,,,,,,,,,,,,,,,,,,,,,,,68.13610540004447,None,space,0.44633389997761697,68.13610540004447,None,68.68772459996399,None,f,1,0.4617582999635488,68.68772459996399,None,69.17032490007114,None,,,,,,,,,,,,,,,,,,,,,,,,,,,001,2021_Oct_01_1553,searchDisc4,2021.1.2,60.12860305547748,
Practice arrays/exp1a_trial_27_colour3_distractors9_l.png,l,f,,,,,0,13,13,12,,,,,,,,,,,,,,,,,,,,,,,,,,,,,,,,,,,,,,,,,,,,,,,,,,,,,,,,,,,70.17158009996638,None,space,0.41034590010531247,70.17158009996638,None,70.67109950003214,None,f,1,0.5103502999991179,70.67109950003214,None,71.20573639997747,None,,,,,,,,,,,,,,,,,,,,,,,,,,,001,2021_Oct_01_1553,searchDisc4,2021.1.2,60.12860305547748,
Practice arrays/exp1a_trial_14_colour3_distractors31_r.png,r,j,,,,,0,14,14,6,,,,,,,,,,,,,,,,,,,,,,,,,,,,,,,,,,,,,,,,,,,,,,,,,,,,,,,,,,,72.20684070000425,None,space,0.43080680002458394,72.20684070000425,None,72.69688910001423,None,j,1,0.5888170000398532,72.69688910001423,None,73.30771670001559,None,,,,,,,,,,,,,,,,,,,,,,,,,,,001,2021_Oct_01_1553,searchDisc4,2021.1.2,60.12860305547748,
Practice arrays/exp1a_trial_17_colour1_distractors9_l.png,l,f,,,,,0,15,15,7,,,,,,,,,,,,,,,,,,,,,,,,,,,,,,,,,,,,,,,,,,,,,,,,,,,,,,,,,,,74.30896809999831,None,space,0.329263300052844,74.30896809999831,None,74.69678410002962,None,f,1,0.5504520999966189,74.69678410002962,None,75.2600236000726,None,,,,,,,,,,,,,,,,,,,,,,,,,,,001,2021_Oct_01_1553,searchDisc4,2021.1.2,60.12860305547748,
,,,,,,,,,,,,,,,,,,,,,,,,,,,,,,,,,,,,,,,,,,,,,,,,,,,,,,,,,,,,,,,,,,,,,,,,,,,,,,,,,,,,76.34347610000987,None,space,0.18636260007042438,79.33127329999115,None,,,,,,,,,,,,,,,,,,,,,001,2021_Oct_01_1553,searchDisc4,2021.1.2,60.12860305547748,
images/exp2b_trial_29_colour3_distractors31_l.png,f,,2b,29,3,31,,,,,0,0,0,650,,,,,,,,,,,,,,,,,,,,,,,,,,,,,,,,,,,,,,,,,,,,,,,,,,,,,,,,,,,,,,,,,,,,,,,,,,,,79.78427910001483,None,space,1.0214024999877438,79.78427910001483,None,80.90118539996911,None,f,1,0.4660070000682026,80.90118539996911,None,81.403592699999,None,None,81.403592699999,None,,,001,2021_Oct_01_1553,searchDisc4,2021.1.2,60.12860305547748,
images/exp1b_trial_55_colour2_distractors19_l.png,f,,1b,55,2,19,,,,,0,1,1,292,,,,,,,,,,,,,,,,,,,,,,,,,,,,,,,,,,,,,,,,,,,,,,,,,,,,,,,,,,,,,,,,,,,,,,,,,,,,81.40186930005439,None,space,0.8099226999329403,81.40186930005439,None,82.30982059997041,None,f,1,0.6312112000305206,82.30982059997041,None,82.98805919997395,None,None,82.98805919997395,None,,,001,2021_Oct_01_1553,searchDisc4,2021.1.2,60.12860305547748,
images/exp2b_trial_184_colour2_distractors31_l.png,f,,2b,184,2,31,,,,,0,2,2,805,,,,,,,,,,,,,,,,,,,,,,,,,,,,,,,,,,,,,,,,,,,,,,,,,,,,,,,,,,,,,,,,,,,,,,,,,,,,82.99287499999627,None,space,0.69918920006603,82.99287499999627,None,83.76529200002551,None,f,1,0.5366076999343932,83.76529200002551,None,84.32311240006239,None,None,84.32311240006239,None,,,001,2021_Oct_01_1553,searchDisc4,2021.1.2,60.12860305547748,
images/exp2c_trial_140_colour3_distractors9_r.png,j,,2c,140,3,9,,,,,0,3,3,953,,,,,,,,,,,,,,,,,,,,,,,,,,,,,,,,,,,,,,,,,,,,,,,,,,,,,,,,,,,,,,,,,,,,,,,,,,,,84.32791280001402,None,space,0.6685149999102578,84.32791280001402,None,85.10208400001284,None,j,0,0.6319639999419451,85.10208400001284,None,85.75731679999735,None,None,85.75731679999735,None,,,001,2021_Oct_01_1553,searchDisc4,2021.1.2,60.12860305547748,
images/exp2b_trial_157_colour3_distractors31_l.png,f,,2b,157,3,31,,,,,0,4,4,778,,,,,,,,,,,,,,,,,,,,,,,,,,,,,,,,,,,,,,,,,,,,,,,,,,,,,,,,,,,,,,,,,,,,,,,,,,,,85.76435499999207,None,space,0.5030667999526486,85.76435499999207,None,86.33089470001869,None,f,1,0.6031869000289589,86.33089470001869,None,86.95873840006534,None,None,86.95873840006534,None,,,001,2021_Oct_01_1553,searchDisc4,2021.1.2,60.12860305547748,
images/exp1a_trial_46_colour3_distractors31_r.png,j,,1a,46,3,31,,,,,0,5,5,91,,,,,,,,,,,,,,,,,,,,,,,,,,,,,,,,,,,,,,,,,,,,,,,,,,,,,,,,,,,,,,,,,,,,,,,,,,,,86.96535389998462,None,space,0.4309423000086099,86.96535389998462,None,87.49366729997564,None,j,0,0.607811399968341,87.49366729997564,None,88.12609369999264,None,None,88.12609369999264,None,,,001,2021_Oct_01_1553,searchDisc4,2021.1.2,60.12860305547748,
images/exp1b_trial_137_colour2_distractors31_r.png,j,,1b,137,2,31,,,,,0,6,6,374,,,,,,,,,,,,,,,,,,,,,,,,,,,,,,,,,,,,,,,,,,,,,,,,,,,,,,,,,,,,,,,,,,,,,,,,,,,,88.1319366999669,None,space,0.3756451999070123,88.1319366999669,None,88.62403189996257,None,j,0,0.6704272000351921,88.62403189996257,None,89.31159320001025,None,None,89.31159320001025,None,,,001,2021_Oct_01_1553,searchDisc4,2021.1.2,60.12860305547748,
images/exp1a_trial_69_colour2_distractors1_r.png,j,,1a,69,2,1,,,,,0,7,7,114,,,,,,,,,,,,,,,,,,,,,,,,,,,,,,,,,,,,,,,,,,,,,,,,,,,,,,,,,,,,,,,,,,,,,,,,,,,,89.31556200003251,None,space,0.3608774000313133,89.31556200003251,None,89.77949210000224,None,j,0,0.5152314000297338,89.77949210000224,None,90.3128721999703,None,None,90.3128721999703,None,,,001,2021_Oct_01_1553,searchDisc4,2021.1.2,60.12860305547748,
images/exp2a_trial_117_colour2_distractors4_l.png,f,,2a,117,2,4,,,,,0,8,8,546,,,,,,,,,,,,,,,,,,,,,,,,,,,,,,,,,,,,,,,,,,,,,,,,,,,,,,,,,,,,,,,,,,,,,,,,,,,,90.31836000003386,None,space,0.4538276999955997,90.31836000003386,None,90.87253200006671,None,f,1,0.549185499898158,90.87253200006671,None,91.44665139999707,None,None,91.44665139999707,None,,,001,2021_Oct_01_1553,searchDisc4,2021.1.2,60.12860305547748,
images/exp1b_trial_43_colour3_distractors4_r.png,j,,1b,43,3,4,,,,,0,9,9,280,,,,,,,,,,,,,,,,,,,,,,,,,,,,,,,,,,,,,,,,,,,,,,,,,,,,,,,,,,,,,,,,,,,,,,,,,,,,91.45216059999075,None,space,0.5605454000178725,91.45216059999075,None,92.12999220006168,None,j,0,0.44359839998651296,92.12999220006168,None,92.59752999995835,None,None,92.59752999995835,None,,,001,2021_Oct_01_1553,searchDisc4,2021.1.2,60.12860305547748,
images/exp1b_trial_115_colour1_distractors31_l.png,f,,1b,115,1,31,,,,,0,10,10,352,,,,,,,,,,,,,,,,,,,,,,,,,,,,,,,,,,,,,,,,,,,,,,,,,,,,,,,,,,,,,,,,,,,,,,,,,,,,92.60414830001537,None,space,0.3926911000162363,92.60414830001537,None,93.11403399996925,None,f,1,0.49171920004300773,93.11403399996925,None,93.6487112999661,None,None,93.6487112999661,None,,,001,2021_Oct_01_1553,searchDisc4,2021.1.2,60.12860305547748,
images/exp1b_trial_2_colour1_distractors9_r.png,j,,1b,2,1,9,,,,,0,11,11,239,,,,,,,,,,,,,,,,,,,,,,,,,,,,,,,,,,,,,,,,,,,,,,,,,,,,,,,,,,,,,,,,,,,,,,,,,,,,93.64963650004938,None,space,0.30710189999081194,93.64963650004938,None,94.02753820002545,None,j,0,0.6420936000067741,94.02753820002545,None,94.70045289995615,None,None,94.70045289995615,None,,,001,2021_Oct_01_1553,searchDisc4,2021.1.2,60.12860305547748,
images/exp1a_trial_9_colour2_distractors31_r.png,j,,1a,9,2,31,,,,,0,12,12,54,,,,,,,,,,,,,,,,,,,,,,,,,,,,,,,,,,,,,,,,,,,,,,,,,,,,,,,,,,,,,,,,,,,,,,,,,,,,94.70453850005288,None,space,0.355421100044623,94.70453850005288,None,95.13240230001975,None,j,0,0.5130187999457121,95.13240230001975,None,95.68415309998673,None,None,95.68415309998673,None,,,001,2021_Oct_01_1553,searchDisc4,2021.1.2,60.12860305547748,
images/exp1a_trial_41_colour2_distractors31_r.png,j,,1a,41,2,31,,,,,0,13,13,86,,,,,,,,,,,,,,,,,,,,,,,,,,,,,,,,,,,,,,,,,,,,,,,,,,,,,,,,,,,,,,,,,,,,,,,,,,,,95.67650389997289,None,space,0.304090200108476,95.67650389997289,None,96.0411005000351,None,j,0,0.4772071000188589,96.0411005000351,None,96.53472799998708,None,None,96.53472799998708,None,,,001,2021_Oct_01_1553,searchDisc4,2021.1.2,60.12860305547748,
images/exp2b_trial_41_colour2_distractors31_r.png,j,,2b,41,2,31,,,,,0,14,14,662,,,,,,,,,,,,,,,,,,,,,,,,,,,,,,,,,,,,,,,,,,,,,,,,,,,,,,,,,,,,,,,,,,,,,,,,,,,,96.53955510002561,None,space,0.36096800002269447,96.53955510002561,None,97.0083746999735,None,j,0,0.5813531000167131,97.0083746999735,None,97.61919479996432,None,None,97.61919479996432,None,,,001,2021_Oct_01_1553,searchDisc4,2021.1.2,60.12860305547748,
images/exp2c_trial_157_colour3_distractors31_l.png,f,,2c,157,3,31,,,,,0,15,15,10,,,,,,,,,,,,,,,,,,,,,,,,,,,,,,,,,,,,,,,,,,,,,,,,,,,,,,,,,,,,,,,,,,,,,,,,,,,,97.62359139998443,None,space,0.3010579999536276,97.62359139998443,None,98.0210078000091,None,f,1,0.5604202999966219,98.0210078000091,None,98.60388999995776,None,None,98.60388999995776,None,,,001,2021_Oct_01_1553,searchDisc4,2021.1.2,60.12860305547748,
images/exp2a_trial_99_colour1_distractors19_r.png,j,,2a,99,1,19,,,,,0,16,16,528,,,,,,,,,,,,,,,,,,,,,,,,,,,,,,,,,,,,,,,,,,,,,,,,,,,,,,,,,,,,,,,,,,,,,,,,,,,,98.60803360003047,None,space,0.36391950002871454,98.60803360003047,None,99.04125670006033,None,j,0,0.5403532999334857,99.04125670006033,None,99.62110610001255,None,None,99.62110610001255,None,,,001,2021_Oct_01_1553,searchDisc4,2021.1.2,60.12860305547748,
images/exp1b_trial_87_colour2_distractors19_l.png,f,,1b,87,2,19,,,,,0,17,17,324,,,,,,,,,,,,,,,,,,,,,,,,,,,,,,,,,,,,,,,,,,,,,,,,,,,,,,,,,,,,,,,,,,,,,,,,,,,,99.62407600006554,None,space,0.5003076000139117,99.62407600006554,None,100.21960209996905,None,f,1,0.5616895999992266,100.21960209996905,None,100.80577340004966,None,None,100.80577340004966,None,,,001,2021_Oct_01_1553,searchDisc4,2021.1.2,60.12860305547748,
images/exp2b_trial_24_colour2_distractors31_l.png,f,,2b,24,2,31,,,,,0,18,18,645,,,,,,,,,,,,,,,,,,,,,,,,,,,,,,,,,,,,,,,,,,,,,,,,,,,,,,,,,,,,,,,,,,,,,,,,,,,,100.81105250003748,None,space,0.45035790000110865,100.81105250003748,None,101.354417799972,None,f,1,0.523598000057973,101.354417799972,None,101.92395880001132,None,None,101.92395880001132,None,,,001,2021_Oct_01_1553,searchDisc4,2021.1.2,60.12860305547748,
images/exp1a_trial_21_colour2_distractors4_l.png,f,,1a,21,2,4,,,,,0,19,19,66,,,,,,,,,,,,,,,,,,,,,,,,,,,,,,,,,,,,,,,,,,,,,,,,,,,,,,,,,,,,,,,,,,,,,,,,,,,,101.92977140005678,None,space,0.2989171000663191,101.92977140005678,None,102.33328630006872,None,f,1,0.5213126000016928,102.33328630006872,None,102.89174139997922,None,None,102.89174139997922,None,,,001,2021_Oct_01_1553,searchDisc4,2021.1.2,60.12860305547748,
images/exp2c_trial_146_colour1_distractors19_l.png,f,,2c,146,1,19,,,,,0,20,20,959,,,,,,,,,,,,,,,,,,,,,,,,,,,,,,,,,,,,,,,,,,,,,,,,,,,,,,,,,,,,,,,,,,,,,,,,,,,,102.88977110001724,None,space,0.2824465000303462,102.88977110001724,None,103.26151740003843,None,f,1,0.8241153000853956,103.26151740003843,None,104.1089968999615,None,None,104.1089968999615,None,,,001,2021_Oct_01_1553,searchDisc4,2021.1.2,60.12860305547748,
images/exp2c_trial_14_colour3_distractors31_r.png,j,,2c,14,3,31,,,,,0,21,21,827,,,,,,,,,,,,,,,,,,,,,,,,,,,,,,,,,,,,,,,,,,,,,,,,,,,,,,,,,,,,,,,,,,,,,,,,,,,,104.11355100001674,None,space,0.2827834999188781,104.11355100001674,None,104.47768849995919,None,j,0,0.6163225999334827,104.47768849995919,None,105.1268911000574,None,None,105.1268911000574,None,,,001,2021_Oct_01_1553,searchDisc4,2021.1.2,60.12860305547748,
images/exp2b_trial_93_colour3_distractors31_l.png,f,,2b,93,3,31,,,,,0,22,22,714,,,,,,,,,,,,,,,,,,,,,,,,,,,,,,,,,,,,,,,,,,,,,,,,,,,,,,,,,,,,,,,,,,,,,,,,,,,,105.12353430001531,None,space,0.3124852000037208,105.12353430001531,None,105.51666289998684,None,f,1,0.7531780999852344,105.51666289998684,None,106.31144329996314,None,None,106.31144329996314,None,,,001,2021_Oct_01_1553,searchDisc4,2021.1.2,60.12860305547748,
images/exp2c_trial_117_colour2_distractors4_l.png,f,,2c,117,2,4,,,,,0,23,23,930,,,,,,,,,,,,,,,,,,,,,,,,,,,,,,,,,,,,,,,,,,,,,,,,,,,,,,,,,,,,,,,,,,,,,,,,,,,,106.3114232000662,None,space,0.20392910006921738,106.3114232000662,None,106.58579040004406,None,f,1,0.5253550999332219,106.58579040004406,None,107.12888390005101,None,None,107.12888390005101,None,,,001,2021_Oct_01_1553,searchDisc4,2021.1.2,60.12860305547748,
images/exp2a_trial_119_colour2_distractors19_l.png,f,,2a,119,2,19,,,,,0,24,24,548,,,,,,,,,,,,,,,,,,,,,,,,,,,,,,,,,,,,,,,,,,,,,,,,,,,,,,,,,,,,,,,,,,,,,,,,,,,,107.13399250002112,None,space,0.9978001000126824,107.13399250002112,None,108.23302429995965,None,f,1,0.484616499976255,108.23302429995965,None,108.74705379996449,None,None,108.74705379996449,None,,,001,2021_Oct_01_1553,searchDisc4,2021.1.2,60.12860305547748,
images/exp2b_trial_139_colour3_distractors4_r.png,j,,2b,139,3,4,,,,,0,25,25,760,,,,,,,,,,,,,,,,,,,,,,,,,,,,,,,,,,,,,,,,,,,,,,,,,,,,,,,,,,,,,,,,,,,,,,,,,,,,108.75173120002728,None,space,0.4123981000157073,108.75173120002728,None,109.27933829999529,None,j,0,0.551933899987489,109.27933829999529,None,109.86524729998783,None,None,109.86524729998783,None,,,001,2021_Oct_01_1553,searchDisc4,2021.1.2,60.12860305547748,
images/exp2c_trial_72_colour2_distractors19_r.png,j,,2c,72,2,19,,,,,0,26,26,885,,,,,,,,,,,,,,,,,,,,,,,,,,,,,,,,,,,,,,,,,,,,,,,,,,,,,,,,,,,,,,,,,,,,,,,,,,,,109.86512430000585,None,space,0.37912989989854395,109.86512430000585,None,110.31538320006803,None,j,0,0.5542569999815896,110.31538320006803,None,110.9156500999583,None,None,110.9156500999583,None,,,001,2021_Oct_01_1553,searchDisc4,2021.1.2,60.12860305547748,
images/exp1b_trial_8_colour2_distractors19_r.png,j,,1b,8,2,19,,,,,0,27,27,245,,,,,,,,,,,,,,,,,,,,,,,,,,,,,,,,,,,,,,,,,,,,,,,,,,,,,,,,,,,,,,,,,,,,,,,,,,,,110.91071580001153,None,space,0.4533201999729499,110.91071580001153,None,111.45240890001878,None,j,0,0.5638285999884829,111.45240890001878,None,112.03485600003042,None,None,112.03485600003042,None,,,001,2021_Oct_01_1553,searchDisc4,2021.1.2,60.12860305547748,
images/exp2c_trial_119_colour2_distractors19_l.png,f,,2c,119,2,19,,,,,0,28,28,932,,,,,,,,,,,,,,,,,,,,,,,,,,,,,,,,,,,,,,,,,,,,,,,,,,,,,,,,,,,,,,,,,,,,,,,,,,,,112.03840029996354,None,space,0.32595490000676364,112.03840029996354,None,112.46413149998989,None,f,1,0.5890335000585765,112.46413149998989,None,113.10131040003617,None,None,113.10131040003617,None,,,001,2021_Oct_01_1553,searchDisc4,2021.1.2,60.12860305547748,
images/exp2b_trial_175_colour1_distractors1_l.png,f,,2b,175,1,1,,,,,0,29,29,796,,,,,,,,,,,,,,,,,,,,,,,,,,,,,,,,,,,,,,,,,,,,,,,,,,,,,,,,,,,,,,,,,,,,,,,,,,,,113.09315740002785,None,space,0.3422234000172466,113.09315740002785,None,113.50461509998422,None,f,1,0.5889303999720141,113.50461509998422,None,114.13567139997613,None,None,114.13567139997613,None,,,001,2021_Oct_01_1553,searchDisc4,2021.1.2,60.12860305547748,
images/exp1a_trial_32_colour1_distractors1_r.png,j,,1a,32,1,1,,,,,0,30,30,77,,,,,,,,,,,,,,,,,,,,,,,,,,,,,,,,,,,,,,,,,,,,,,,,,,,,,,,,,,,,,,,,,,,,,,,,,,,,114.14258089999203,None,space,0.29407800000626594,114.14258089999203,None,114.52270259999204,None,j,0,0.6030500000342727,114.52270259999204,None,115.17017609996256,None,None,115.17017609996256,None,,,001,2021_Oct_01_1553,searchDisc4,2021.1.2,60.12860305547748,
images/exp1b_trial_143_colour1_distractors1_l.png,f,,1b,143,1,1,,,,,0,31,31,380,,,,,,,,,,,,,,,,,,,,,,,,,,,,,,,,,,,,,,,,,,,,,,,,,,,,,,,,,,,,,,,,,,,,,,,,,,,,115.1627381000435,None,space,0.3057077000848949,115.1627381000435,None,115.5708491000114,None,f,1,0.5166535000316799,115.5708491000114,None,116.10616430004593,None,None,116.10616430004593,None,,,001,2021_Oct_01_1553,searchDisc4,2021.1.2,60.12860305547748,
images/exp1b_trial_42_colour3_distractors1_r.png,j,,1b,42,3,1,,,,,0,32,32,279,,,,,,,,,,,,,,,,,,,,,,,,,,,,,,,,,,,,,,,,,,,,,,,,,,,,,,,,,,,,,,,,,,,,,,,,,,,,116.1118404000299,None,space,0.29200629994738847,116.1118404000299,None,116.49138909997419,None,j,0,0.5225465000839904,116.49138909997419,None,117.05524530003314,None,None,117.05524530003314,None,,,001,2021_Oct_01_1553,searchDisc4,2021.1.2,60.12860305547748,
images/exp1a_trial_134_colour2_distractors4_r.png,j,,1a,134,2,4,,,,,0,33,33,179,,,,,,,,,,,,,,,,,,,,,,,,,,,,,,,,,,,,,,,,,,,,,,,,,,,,,,,,,,,,,,,,,,,,,,,,,,,,117.05273300001863,None,space,0.2469386999728158,117.05273300001863,None,117.35991930007003,None,j,0,0.605686999973841,117.35991930007003,None,118.00633390001022,None,None,118.00633390001022,None,,,001,2021_Oct_01_1553,searchDisc4,2021.1.2,60.12860305547748,
images/exp1b_trial_19_colour1_distractors31_l.png,f,,1b,19,1,31,,,,,0,34,34,256,,,,,,,,,,,,,,,,,,,,,,,,,,,,,,,,,,,,,,,,,,,,,,,,,,,,,,,,,,,,,,,,,,,,,,,,,,,,118.00027329998557,None,space,0.25949269998818636,118.00027329998557,None,118.33263620000798,None,f,1,0.5844235999975353,118.33263620000798,None,118.94060729995836,None,None,118.94060729995836,None,,,001,2021_Oct_01_1553,searchDisc4,2021.1.2,60.12860305547748,
images/exp1b_trial_57_colour3_distractors1_l.png,f,,1b,57,3,1,,,,,0,35,35,294,,,,,,,,,,,,,,,,,,,,,,,,,,,,,,,,,,,,,,,,,,,,,,,,,,,,,,,,,,,,,,,,,,,,,,,,,,,,118.94669420004357,None,space,0.26544740004464984,118.94669420004357,None,119.2843184999656,None,f,1,0.46552590001374483,119.2843184999656,None,119.79161970000715,None,None,119.79161970000715,None,,,001,2021_Oct_01_1553,searchDisc4,2021.1.2,60.12860305547748,
images/exp2b_trial_54_colour2_distractors9_l.png,f,,2b,54,2,9,,,,,0,36,36,675,,,,,,,,,,,,,,,,,,,,,,,,,,,,,,,,,,,,,,,,,,,,,,,,,,,,,,,,,,,,,,,,,,,,,,,,,,,,119.78736600000411,None,space,0.3212774000130594,119.78736600000411,None,120.20837630005553,None,f,1,0.4619454999919981,120.20837630005553,None,120.69282669997774,None,None,120.69282669997774,None,,,001,2021_Oct_01_1553,searchDisc4,2021.1.2,60.12860305547748,
images/exp1a_trial_162_colour1_distractors9_r.png,j,,1a,162,1,9,,,,,0,37,37,207,,,,,,,,,,,,,,,,,,,,,,,,,,,,,,,,,,,,,,,,,,,,,,,,,,,,,,,,,,,,,,,,,,,,,,,,,,,,120.6983246000018,None,space,0.29734589997678995,120.6983246000018,None,121.10341570002493,None,j,0,0.47833419998642057,121.10341570002493,None,121.62660150006414,None,None,121.62660150006414,None,,,001,2021_Oct_01_1553,searchDisc4,2021.1.2,60.12860305547748,
images/exp2b_trial_170_colour3_distractors1_r.png,j,,2b,170,3,1,,,,,0,38,38,791,,,,,,,,,,,,,,,,,,,,,,,,,,,,,,,,,,,,,,,,,,,,,,,,,,,,,,,,,,,,,,,,,,,,,,,,,,,,121.62191099999472,None,space,0.3018560000928119,121.62191099999472,None,122.03590000001714,None,j,0,0.577492699958384,122.03590000001714,None,122.6444555999944,None,None,122.6444555999944,None,,,001,2021_Oct_01_1553,searchDisc4,2021.1.2,60.12860305547748,
images/exp2c_trial_110_colour3_distractors31_r.png,j,,2c,110,3,31,,,,,0,39,39,923,,,,,,,,,,,,,,,,,,,,,,,,,,,,,,,,,,,,,,,,,,,,,,,,,,,,,,,,,,,,,,,,,,,,,,,,,,,,122.65024760004599,None,space,0.29721190000418574,122.65024760004599,None,123.04194739996456,None,j,0,0.7800108999945223,123.04194739996456,None,123.84604000002146,None,None,123.84604000002146,None,,,001,2021_Oct_01_1553,searchDisc4,2021.1.2,60.12860305547748,
images/exp1b_trial_180_colour2_distractors1_l.png,f,,1b,180,2,1,,,,,0,40,40,417,,,,,,,,,,,,,,,,,,,,,,,,,,,,,,,,,,,,,,,,,,,,,,,,,,,,,,,,,,,,,,,,,,,,,,,,,,,,123.85446100006811,None,space,0.2941598000470549,123.85446100006811,None,124.22856419999152,None,f,1,0.44111510005313903,124.22856419999152,None,124.69724729999434,None,None,124.69724729999434,None,,,001,2021_Oct_01_1553,searchDisc4,2021.1.2,60.12860305547748,
images/exp2c_trial_104_colour2_distractors19_r.png,j,,2c,104,2,19,,,,,0,41,41,917,,,,,,,,,,,,,,,,,,,,,,,,,,,,,,,,,,,,,,,,,,,,,,,,,,,,,,,,,,,,,,,,,,,,,,,,,,,,124.70007729995996,None,space,0.32762889994774014,124.70007729995996,None,125.0997812000569,None,j,0,0.5378749999217689,125.0997812000569,None,125.68070240002126,None,None,125.68070240002126,None,,,001,2021_Oct_01_1553,searchDisc4,2021.1.2,60.12860305547748,
images/exp1a_trial_133_colour2_distractors1_r.png,j,,1a,133,2,1,,,,,0,42,42,178,,,,,,,,,,,,,,,,,,,,,,,,,,,,,,,,,,,,,,,,,,,,,,,,,,,,,,,,,,,,,,,,,,,,,,,,,,,,125.67638930003159,None,space,0.28016970003955066,125.67638930003159,None,126.06437040003948,None,j,0,0.47706980002112687,126.06437040003948,None,126.56469459999353,None,None,126.56469459999353,None,,,001,2021_Oct_01_1553,searchDisc4,2021.1.2,60.12860305547748,
images/exp1b_trial_9_colour2_distractors31_r.png,j,,1b,9,2,31,,,,,0,43,43,246,,,,,,,,,,,,,,,,,,,,,,,,,,,,,,,,,,,,,,,,,,,,,,,,,,,,,,,,,,,,,,,,,,,,,,,,,,,,126.5721218000399,None,space,0.2885759000200778,126.5721218000399,None,126.91827899997588,None,j,0,0.6317666000686586,126.91827899997588,None,127.58240940000397,None,None,127.58240940000397,None,,,001,2021_Oct_01_1553,searchDisc4,2021.1.2,60.12860305547748,
images/exp2a_trial_70_colour2_distractors4_r.png,j,,2a,70,2,4,,,,,0,44,44,499,,,,,,,,,,,,,,,,,,,,,,,,,,,,,,,,,,,,,,,,,,,,,,,,,,,,,,,,,,,,,,,,,,,,,,,,,,,,127.57840310002211,None,space,0.27401860000099987,127.57840310002211,None,127.97082799999043,None,j,0,0.5390768999932334,127.97082799999043,None,128.53336899999994,None,None,128.53336899999994,None,,,001,2021_Oct_01_1553,searchDisc4,2021.1.2,60.12860305547748,
images/exp1a_trial_62_colour0_distractors0_r.png,j,,1a,62,0,0,,,,,0,45,45,107,,,,,,,,,,,,,,,,,,,,,,,,,,,,,,,,,,,,,,,,,,,,,,,,,,,,,,,,,,,,,,,,,,,,,,,,,,,,128.53874500002712,None,space,0.3136375000467524,128.53874500002712,None,128.9307620000327,None,j,0,0.49070349999237806,128.9307620000327,None,129.45194990006274,None,None,129.45194990006274,None,,,001,2021_Oct_01_1553,searchDisc4,2021.1.2,60.12860305547748,
images/exp2c_trial_177_colour1_distractors9_l.png,f,,2c,177,1,9,,,,,0,46,46,30,,,,,,,,,,,,,,,,,,,,,,,,,,,,,,,,,,,,,,,,,,,,,,,,,,,,,,,,,,,,,,,,,,,,,,,,,,,,129.45484380004928,None,space,0.30172870005480945,129.45484380004928,None,129.82323780003935,None,f,1,0.5279278999660164,129.82323780003935,None,130.36879110003355,None,None,130.36879110003355,None,,,001,2021_Oct_01_1553,searchDisc4,2021.1.2,60.12860305547748,
images/exp2a_trial_158_colour0_distractors0_r.png,j,,2a,158,0,0,,,,,0,47,47,587,,,,,,,,,,,,,,,,,,,,,,,,,,,,,,,,,,,,,,,,,,,,,,,,,,,,,,,,,,,,,,,,,,,,,,,,,,,,130.37489380000625,None,space,0.2610040999716148,130.37489380000625,None,130.70264949998818,None,j,0,0.4648051999974996,130.70264949998818,None,131.18657149996142,None,None,131.18657149996142,None,,,001,2021_Oct_01_1553,searchDisc4,2021.1.2,60.12860305547748,
images/exp2a_trial_30_colour0_distractors0_r.png,j,,2a,30,0,0,,,,,0,48,48,459,,,,,,,,,,,,,,,,,,,,,,,,,,,,,,,,,,,,,,,,,,,,,,,,,,,,,,,,,,,,,,,,,,,,,,,,,,,,131.1890632000286,None,space,0.3352071999106556,131.1890632000286,None,131.58960100007243,None,j,0,0.4972790000028908,131.58960100007243,None,132.1206711999606,None,None,132.1206711999606,None,,,001,2021_Oct_01_1553,searchDisc4,2021.1.2,60.12860305547748,
images/exp1b_trial_108_colour3_distractors9_r.png,j,,1b,108,3,9,,,,,0,49,49,345,,,,,,,,,,,,,,,,,,,,,,,,,,,,,,,,,,,,,,,,,,,,,,,,,,,,,,,,,,,,,,,,,,,,,,,,,,,,132.11810870002955,None,space,0.2543720999965444,132.11810870002955,None,132.48268700006884,None,j,0,0.5720169999403879,132.48268700006884,None,133.0881142000202,None,None,133.0881142000202,None,,,001,2021_Oct_01_1553,searchDisc4,2021.1.2,60.12860305547748,
images/exp2b_trial_168_colour2_distractors19_r.png,j,,2b,168,2,19,,,,,0,50,50,789,,,,,,,,,,,,,,,,,,,,,,,,,,,,,,,,,,,,,,,,,,,,,,,,,,,,,,,,,,,,,,,,,,,,,,,,,,,,133.08470770006534,None,space,0.27166790002956986,133.08470770006534,None,133.42081290006172,None,j,0,0.46560909994877875,133.42081290006172,None,133.9053953000577,None,None,133.9053953000577,None,,,001,2021_Oct_01_1553,searchDisc4,2021.1.2,60.12860305547748,
images/exp2c_trial_59_colour3_distractors9_l.png,f,,2c,59,3,9,,,,,0,51,51,872,,,,,,,,,,,,,,,,,,,,,,,,,,,,,,,,,,,,,,,,,,,,,,,,,,,,,,,,,,,,,,,,,,,,,,,,,,,,133.911969400011,None,space,0.25197670003399253,133.911969400011,None,134.24522929999512,None,f,1,0.5044014999875799,134.24522929999512,None,134.7731719000032,None,None,134.7731719000032,None,,,001,2021_Oct_01_1553,searchDisc4,2021.1.2,60.12860305547748,
images/exp2c_trial_113_colour1_distractors9_l.png,f,,2c,113,1,9,,,,,0,52,52,926,,,,,,,,,,,,,,,,,,,,,,,,,,,,,,,,,,,,,,,,,,,,,,,,,,,,,,,,,,,,,,,,,,,,,,,,,,,,134.77605560002849,None,space,0.2685940000228584,134.77605560002849,None,135.12951930006966,None,f,1,0.9883701999206096,135.12951930006966,None,136.15778340001123,None,None,136.15778340001123,None,,,001,2021_Oct_01_1553,searchDisc4,2021.1.2,60.12860305547748,
images/exp2b_trial_151_colour2_distractors19_l.png,f,,2b,151,2,19,,,,,0,53,53,772,,,,,,,,,,,,,,,,,,,,,,,,,,,,,,,,,,,,,,,,,,,,,,,,,,,,,,,,,,,,,,,,,,,,,,,,,,,,136.15532160003204,None,space,0.16858079994563013,136.15532160003204,None,136.39178209996317,None,f,1,0.5992797000799328,136.39178209996317,None,137.02525989999992,None,None,137.02525989999992,None,,,001,2021_Oct_01_1553,searchDisc4,2021.1.2,60.12860305547748,
images/exp1b_trial_64_colour1_distractors1_r.png,j,,1b,64,1,1,,,,,0,54,54,301,,,,,,,,,,,,,,,,,,,,,,,,,,,,,,,,,,,,,,,,,,,,,,,,,,,,,,,,,,,,,,,,,,,,,,,,,,,,137.02323339995928,None,space,0.2363107999553904,137.02323339995928,None,137.37045799999032,None,j,0,0.731613399926573,137.37045799999032,None,138.14291689996605,None,None,138.14291689996605,None,,,001,2021_Oct_01_1553,searchDisc4,2021.1.2,60.12860305547748,
images/exp1b_trial_80_colour1_distractors4_l.png,f,,1b,80,1,4,,,,,0,55,55,317,,,,,,,,,,,,,,,,,,,,,,,,,,,,,,,,,,,,,,,,,,,,,,,,,,,,,,,,,,,,,,,,,,,,,,,,,,,,138.1407099000644,None,space,0.23171899991575629,138.1407099000644,None,138.4738125000149,None,f,1,0.7798698999686167,138.4738125000149,None,139.29411740005014,None,None,139.29411740005014,None,,,001,2021_Oct_01_1553,searchDisc4,2021.1.2,60.12860305547748,
images/exp1a_trial_127_colour0_distractors0_l.png,f,,1a,127,0,0,,,,,0,56,56,172,,,,,,,,,,,,,,,,,,,,,,,,,,,,,,,,,,,,,,,,,,,,,,,,,,,,,,,,,,,,,,,,,,,,,,,,,,,,139.29293580004014,None,space,0.2472455999813974,139.29293580004014,None,139.62184519995935,None,f,1,0.5441054999828339,139.62184519995935,None,140.21171799998262,None,None,140.21171799998262,None,,,001,2021_Oct_01_1553,searchDisc4,2021.1.2,60.12860305547748,
images/exp2a_trial_54_colour2_distractors9_l.png,f,,2a,54,2,9,,,,,0,57,57,483,,,,,,,,,,,,,,,,,,,,,,,,,,,,,,,,,,,,,,,,,,,,,,,,,,,,,,,,,,,,,,,,,,,,,,,,,,,,140.21291540004313,None,space,0.22390780004207045,140.21291540004313,None,140.5017674000701,None,f,1,0.5837897999444976,140.5017674000701,None,141.12983730002304,None,None,141.12983730002304,None,,,001,2021_Oct_01_1553,searchDisc4,2021.1.2,60.12860305547748,
images/exp1a_trial_35_colour1_distractors19_r.png,j,,1a,35,1,19,,,,,0,58,58,80,,,,,,,,,,,,,,,,,,,,,,,,,,,,,,,,,,,,,,,,,,,,,,,,,,,,,,,,,,,,,,,,,,,,,,,,,,,,141.12620940001216,None,space,0.24634169996716082,141.12620940001216,None,141.47063080000225,None,j,0,0.5828216000227258,141.47063080000225,None,142.08049330003558,None,None,142.08049330003558,None,,,001,2021_Oct_01_1553,searchDisc4,2021.1.2,60.12860305547748,
images/exp2b_trial_161_colour1_distractors4_r.png,j,,2b,161,1,4,,,,,0,59,59,782,,,,,,,,,,,,,,,,,,,,,,,,,,,,,,,,,,,,,,,,,,,,,,,,,,,,,,,,,,,,,,,,,,,,,,,,,,,,142.08724480005912,None,space,0.24464359995909035,142.08724480005912,None,142.42608050000854,None,j,0,0.49156110000330955,142.42608050000854,None,142.9482832999667,None,None,142.9482832999667,None,,,001,2021_Oct_01_1553,searchDisc4,2021.1.2,60.12860305547748,
images/exp1a_trial_110_colour3_distractors31_r.png,j,,1a,110,3,31,,,,,0,60,60,155,,,,,,,,,,,,,,,,,,,,,,,,,,,,,,,,,,,,,,,,,,,,,,,,,,,,,,,,,,,,,,,,,,,,,,,,,,,,142.95229070005007,None,space,0.26006450003478676,142.95229070005007,None,143.3310843000654,None,j,0,0.5002161999000236,143.3310843000654,None,143.86551370003724,None,None,143.86551370003724,None,,,001,2021_Oct_01_1553,searchDisc4,2021.1.2,60.12860305547748,
images/exp2a_trial_167_colour2_distractors9_r.png,j,,2a,167,2,9,,,,,0,61,61,596,,,,,,,,,,,,,,,,,,,,,,,,,,,,,,,,,,,,,,,,,,,,,,,,,,,,,,,,,,,,,,,,,,,,,,,,,,,,143.85972720000427,None,space,0.26445280003827065,143.85972720000427,None,144.21195320005063,None,j,0,0.6350497999228537,144.21195320005063,None,144.86682350006885,None,None,144.86682350006885,None,,,001,2021_Oct_01_1553,searchDisc4,2021.1.2,60.12860305547748,
images/exp2c_trial_180_colour2_distractors1_l.png,f,,2c,180,2,1,,,,,0,62,62,33,,,,,,,,,,,,,,,,,,,,,,,,,,,,,,,,,,,,,,,,,,,,,,,,,,,,,,,,,,,,,,,,,,,,,,,,,,,,144.87155629997142,None,space,0.26136140001472086,144.87155629997142,None,145.2269527000608,None,f,1,0.578884799964726,145.2269527000608,None,145.83452099997083,None,None,145.83452099997083,None,,,001,2021_Oct_01_1553,searchDisc4,2021.1.2,60.12860305547748,
images/exp2c_trial_67_colour1_distractors19_r.png,j,,2c,67,1,19,,,,,0,63,63,880,,,,,,,,,,,,,,,,,,,,,,,,,,,,,,,,,,,,,,,,,,,,,,,,,,,,,,,,,,,,,,,,,,,,,,,,,,,,145.8410533000715,None,space,0.2672766000032425,145.8410533000715,None,146.2006055000238,None,j,0,0.5251807000022382,146.2006055000238,None,146.76859269998965,None,None,146.76859269998965,None,,,001,2021_Oct_01_1553,searchDisc4,2021.1.2,60.12860305547748,
images/exp2a_trial_191_colour0_distractors0_l.png,f,,2a,191,0,0,,,,,0,64,64,620,,,,,,,,,,,,,,,,,,,,,,,,,,,,,,,,,,,,,,,,,,,,,,,,,,,,,,,,,,,,,,,,,,,,,,,,,,,,146.76013619999867,None,space,0.25996549997944385,146.76013619999867,None,147.08995960000902,None,f,1,0.45188049995340407,147.08995960000902,None,147.58611690006217,None,None,147.58611690006217,None,,,001,2021_Oct_01_1553,searchDisc4,2021.1.2,60.12860305547748,
images/exp1b_trial_123_colour3_distractors9_l.png,f,,1b,123,3,9,,,,,0,65,65,360,,,,,,,,,,,,,,,,,,,,,,,,,,,,,,,,,,,,,,,,,,,,,,,,,,,,,,,,,,,,,,,,,,,,,,,,,,,,147.58357010001782,None,space,0.26891149999573827,147.58357010001782,None,147.9487793999724,None,f,1,0.544490100000985,147.9487793999724,None,148.5201611000113,None,None,148.5201611000113,None,,,001,2021_Oct_01_1553,searchDisc4,2021.1.2,60.12860305547748,
images/exp2c_trial_56_colour2_distractors31_l.png,f,,2c,56,2,31,,,,,0,66,66,869,,,,,,,,,,,,,,,,,,,,,,,,,,,,,,,,,,,,,,,,,,,,,,,,,,,,,,,,,,,,,,,,,,,,,,,,,,,,148.52841839997564,None,space,0.2362341999541968,148.52841839997564,None,148.86884590005502,None,f,1,0.5208994999993593,148.86884590005502,None,149.4216291999677,None,None,149.4216291999677,None,,,001,2021_Oct_01_1553,searchDisc4,2021.1.2,60.12860305547748,
images/exp2c_trial_24_colour2_distractors31_l.png,f,,2c,24,2,31,,,,,0,67,67,837,,,,,,,,,,,,,,,,,,,,,,,,,,,,,,,,,,,,,,,,,,,,,,,,,,,,,,,,,,,,,,,,,,,,,,,,,,,,149.41588049998973,None,space,0.25958049995824695,149.41588049998973,None,149.74121750006452,None,f,1,0.5685114999068901,149.74121750006452,None,150.33881559995933,None,None,150.33881559995933,None,,,001,2021_Oct_01_1553,searchDisc4,2021.1.2,60.12860305547748,
images/exp2c_trial_107_colour3_distractors4_r.png,j,,2c,107,3,4,,,,,0,68,68,920,,,,,,,,,,,,,,,,,,,,,,,,,,,,,,,,,,,,,,,,,,,,,,,,,,,,,,,,,,,,,,,,,,,,,,,,,,,,150.3450290999608,None,space,0.28275619994383305,150.3450290999608,None,150.69195700006094,None,j,0,0.5539976001018658,150.69195700006094,None,151.30620969997253,None,None,151.30620969997253,None,,,001,2021_Oct_01_1553,searchDisc4,2021.1.2,60.12860305547748,
images/exp2a_trial_51_colour1_distractors31_l.png,f,,2a,51,1,31,,,,,0,69,69,480,,,,,,,,,,,,,,,,,,,,,,,,,,,,,,,,,,,,,,,,,,,,,,,,,,,,,,,,,,,,,,,,,,,,,,,,,,,,151.2986459999811,None,space,0.3703175999689847,151.2986459999811,None,151.77022609999403,None,f,1,0.5793642000062391,151.77022609999403,None,152.39083360005168,None,None,152.39083360005168,None,,,001,2021_Oct_01_1553,searchDisc4,2021.1.2,60.12860305547748,
images/exp1a_trial_36_colour1_distractors31_r.png,j,,1a,36,1,31,,,,,0,70,70,81,,,,,,,,,,,,,,,,,,,,,,,,,,,,,,,,,,,,,,,,,,,,,,,,,,,,,,,,,,,,,,,,,,,,,,,,,,,,152.38287920004223,None,space,0.24468080000951886,152.38287920004223,None,152.7279915000545,None,j,0,0.5495572999352589,152.7279915000545,None,153.3248701999895,None,None,153.3248701999895,None,,,001,2021_Oct_01_1553,searchDisc4,2021.1.2,60.12860305547748,
images/exp1b_trial_99_colour1_distractors19_r.png,j,,1b,99,1,19,,,,,0,71,71,336,,,,,,,,,,,,,,,,,,,,,,,,,,,,,,,,,,,,,,,,,,,,,,,,,,,,,,,,,,,,,,,,,,,,,,,,,,,,153.32046259997878,None,space,0.24386380007490516,153.32046259997878,None,153.65858849999495,None,j,0,0.6751378000481054,153.65858849999495,None,154.3761394000379,None,None,154.3761394000379,None,,,001,2021_Oct_01_1553,searchDisc4,2021.1.2,60.12860305547748,
images/exp2b_trial_92_colour3_distractors19_l.png,f,,2b,92,3,19,,,,,0,72,72,713,,,,,,,,,,,,,,,,,,,,,,,,,,,,,,,,,,,,,,,,,,,,,,,,,,,,,,,,,,,,,,,,,,,,,,,,,,,,154.37317629996687,None,space,0.22302230005152524,154.37317629996687,None,154.71425399999134,None,f,1,0.46795449999626726,154.71425399999134,None,155.22710500003302,None,None,155.22710500003302,None,,,001,2021_Oct_01_1553,searchDisc4,2021.1.2,60.12860305547748,
images/exp2b_trial_1_colour1_distractors4_r.png,j,,2b,1,1,4,,,,,0,73,73,622,,,,,,,,,,,,,,,,,,,,,,,,,,,,,,,,,,,,,,,,,,,,,,,,,,,,,,,,,,,,,,,,,,,,,,,,,,,,155.22634449996985,None,space,0.2502102000871673,155.22634449996985,None,155.5523854000494,None,j,0,0.5582126999506727,155.5523854000494,None,156.1285808999557,None,None,156.1285808999557,None,,,001,2021_Oct_01_1553,searchDisc4,2021.1.2,60.12860305547748,
images/exp1a_trial_184_colour2_distractors31_l.png,f,,1a,184,2,31,,,,,0,74,74,229,,,,,,,,,,,,,,,,,,,,,,,,,,,,,,,,,,,,,,,,,,,,,,,,,,,,,,,,,,,,,,,,,,,,,,,,,,,,156.1345892000245,None,space,0.25350860005710274,156.1345892000245,None,156.45100520004053,None,f,1,0.5704024999868125,156.45100520004053,None,157.04577280003576,None,None,157.04577280003576,None,,,001,2021_Oct_01_1553,searchDisc4,2021.1.2,60.12860305547748,
images/exp1b_trial_188_colour3_distractors19_l.png,f,,1b,188,3,19,,,,,0,75,75,425,,,,,,,,,,,,,,,,,,,,,,,,,,,,,,,,,,,,,,,,,,,,,,,,,,,,,,,,,,,,,,,,,,,,,,,,,,,,157.0506334999809,None,space,0.23353840003255755,157.0506334999809,None,157.35674179997295,None,f,1,0.7289406000636518,157.35674179997295,None,158.12990449995266,None,None,158.12990449995266,None,,,001,2021_Oct_01_1553,searchDisc4,2021.1.2,60.12860305547748,
images/exp2a_trial_146_colour1_distractors19_l.png,f,,2a,146,1,19,,,,,0,76,76,575,,,,,,,,,,,,,,,,,,,,,,,,,,,,,,,,,,,,,,,,,,,,,,,,,,,,,,,,,,,,,,,,,,,,,,,,,,,,158.12954990006983,None,space,0.2505646999925375,158.12954990006983,None,158.48735489998944,None,f,1,0.5186112000374123,158.48735489998944,None,159.0474692999618,None,None,159.0474692999618,None,,,001,2021_Oct_01_1553,searchDisc4,2021.1.2,60.12860305547748,
images/exp2a_trial_141_colour3_distractors19_r.png,j,,2a,141,3,19,,,,,0,77,77,570,,,,,,,,,,,,,,,,,,,,,,,,,,,,,,,,,,,,,,,,,,,,,,,,,,,,,,,,,,,,,,,,,,,,,,,,,,,,159.04320009995718,None,space,0.24852530006319284,159.04320009995718,None,159.35230230004527,None,j,0,0.6139277999754995,159.35230230004527,None,159.9819690000033,None,None,159.9819690000033,None,,,001,2021_Oct_01_1553,searchDisc4,2021.1.2,60.12860305547748,
images/exp1b_trial_18_colour1_distractors19_l.png,f,,1b,18,1,19,,,,,0,78,78,255,,,,,,,,,,,,,,,,,,,,,,,,,,,,,,,,,,,,,,,,,,,,,,,,,,,,,,,,,,,,,,,,,,,,,,,,,,,,159.9886300000362,None,space,0.23162720003165305,159.9886300000362,None,160.31532880000304,None,f,1,0.4900653000222519,160.31532880000304,None,160.83260150002315,None,None,160.83260150002315,None,,,001,2021_Oct_01_1553,searchDisc4,2021.1.2,60.12860305547748,
images/exp2a_trial_61_colour3_distractors31_l.png,f,,2a,61,3,31,,,,,0,79,79,490,,,,,,,,,,,,,,,,,,,,,,,,,,,,,,,,,,,,,,,,,,,,,,,,,,,,,,,,,,,,,,,,,,,,,,,,,,,,160.838760200073,None,space,0.23791979998350143,160.838760200073,None,161.19181420002133,None,f,1,0.4143398000160232,161.19181420002133,None,161.6336922999937,None,None,161.6336922999937,None,,,001,2021_Oct_01_1553,searchDisc4,2021.1.2,60.12860305547748,
images/exp1a_trial_146_colour1_distractors19_l.png,f,,1a,146,1,19,,,,,0,80,80,191,,,,,,,,,,,,,,,,,,,,,,,,,,,,,,,,,,,,,,,,,,,,,,,,,,,,,,,,,,,,,,,,,,,,,,,,,,,,161.63846739998553,None,space,0.30248960002791137,161.63846739998553,None,162.00584110000636,None,f,1,0.5039857999654487,162.00584110000636,None,162.5507152999984,None,None,162.5507152999984,None,,,001,2021_Oct_01_1553,searchDisc4,2021.1.2,60.12860305547748,
images/exp2c_trial_46_colour3_distractors31_r.png,j,,2c,46,3,31,,,,,0,81,81,859,,,,,,,,,,,,,,,,,,,,,,,,,,,,,,,,,,,,,,,,,,,,,,,,,,,,,,,,,,,,,,,,,,,,,,,,,,,,162.54918199998792,None,space,0.2635203000390902,162.54918199998792,None,162.90657450002618,None,j,0,0.8286890999879688,162.90657450002618,None,163.7696384000359,None,None,163.7696384000359,None,,,001,2021_Oct_01_1553,searchDisc4,2021.1.2,60.12860305547748,
images/exp1a_trial_93_colour3_distractors31_l.png,f,,1a,93,3,31,,,,,0,82,82,138,,,,,,,,,,,,,,,,,,,,,,,,,,,,,,,,,,,,,,,,,,,,,,,,,,,,,,,,,,,,,,,,,,,,,,,,,,,,163.7695671999827,None,space,0.25085690000560135,163.7695671999827,None,164.121050799964,None,f,1,0.4612459000200033,164.121050799964,None,164.61954039996488,None,None,164.61954039996488,None,,,001,2021_Oct_01_1553,searchDisc4,2021.1.2,60.12860305547748,
images/exp1b_trial_0_colour1_distractors1_r.png,j,,1b,0,1,1,,,,,0,83,83,237,,,,,,,,,,,,,,,,,,,,,,,,,,,,,,,,,,,,,,,,,,,,,,,,,,,,,,,,,,,,,,,,,,,,,,,,,,,,164.62185220001265,None,space,0.23794790008105338,164.62185220001265,None,164.92802850005683,None,j,0,0.4290548999560997,164.92802850005683,None,165.3870454000309,None,None,165.3870454000309,None,,,001,2021_Oct_01_1553,searchDisc4,2021.1.2,60.12860305547748,
images/exp2b_trial_12_colour3_distractors9_r.png,j,,2b,12,3,9,,,,,0,84,84,633,,,,,,,,,,,,,,,,,,,,,,,,,,,,,,,,,,,,,,,,,,,,,,,,,,,,,,,,,,,,,,,,,,,,,,,,,,,,165.39325480000116,None,space,0.24258439999539405,165.39325480000116,None,165.7059191999724,None,j,0,0.5161763000069186,165.7059191999724,None,166.25444370005278,None,None,166.25444370005278,None,,,001,2021_Oct_01_1553,searchDisc4,2021.1.2,60.12860305547748,
images/exp1b_trial_174_colour3_distractors31_r.png,j,,1b,174,3,31,,,,,0,85,85,411,,,,,,,,,,,,,,,,,,,,,,,,,,,,,,,,,,,,,,,,,,,,,,,,,,,,,,,,,,,,,,,,,,,,,,,,,,,,166.25179110001773,None,space,0.2643110000062734,166.25179110001773,None,166.60456240002532,None,j,0,1.3372651999816298,166.60456240002532,None,167.9729885999579,None,None,167.9729885999579,None,,,001,2021_Oct_01_1553,searchDisc4,2021.1.2,60.12860305547748,
images/exp1a_trial_39_colour2_distractors9_r.png,j,,1a,39,2,9,,,,,0,86,86,84,,,,,,,,,,,,,,,,,,,,,,,,,,,,,,,,,,,,,,,,,,,,,,,,,,,,,,,,,,,,,,,,,,,,,,,,,,,,167.9808025000384,None,space,0.1753203000407666,167.9808025000384,None,168.26091249997262,None,j,0,0.625260700006038,168.26091249997262,None,168.9072640999686,None,None,168.9072640999686,None,,,001,2021_Oct_01_1553,searchDisc4,2021.1.2,60.12860305547748,
images/exp2b_trial_6_colour2_distractors4_r.png,j,,2b,6,2,4,,,,,0,87,87,627,,,,,,,,,,,,,,,,,,,,,,,,,,,,,,,,,,,,,,,,,,,,,,,,,,,,,,,,,,,,,,,,,,,,,,,,,,,,168.9138485000003,None,space,0.24215609999373555,168.9138485000003,None,169.25553329999093,None,j,0,0.5096979000372812,169.25553329999093,None,169.808243700047,None,None,169.808243700047,None,,,001,2021_Oct_01_1553,searchDisc4,2021.1.2,60.12860305547748,
images/exp1b_trial_32_colour1_distractors1_r.png,j,,1b,32,1,1,,,,,0,88,88,269,,,,,,,,,,,,,,,,,,,,,,,,,,,,,,,,,,,,,,,,,,,,,,,,,,,,,,,,,,,,,,,,,,,,,,,,,,,,169.7998686999781,None,space,0.22881070000585169,169.7998686999781,None,170.10162500001024,None,j,0,0.40772429993376136,170.10162500001024,None,170.5418961000163,None,None,170.5418961000163,None,,,001,2021_Oct_01_1553,searchDisc4,2021.1.2,60.12860305547748,
images/exp2c_trial_79_colour1_distractors1_l.png,f,,2c,79,1,1,,,,,0,89,89,892,,,,,,,,,,,,,,,,,,,,,,,,,,,,,,,,,,,,,,,,,,,,,,,,,,,,,,,,,,,,,,,,,,,,,,,,,,,,170.54180220002308,None,space,0.27026380004826933,170.54180220002308,None,170.91086349997204,None,f,1,0.5750798999797553,170.91086349997204,None,171.5105826000683,None,None,171.5105826000683,None,,,001,2021_Oct_01_1553,searchDisc4,2021.1.2,60.12860305547748,
images/exp2c_trial_28_colour3_distractors19_l.png,f,,2c,28,3,19,,,,,0,90,90,841,,,,,,,,,,,,,,,,,,,,,,,,,,,,,,,,,,,,,,,,,,,,,,,,,,,,,,,,,,,,,,,,,,,,,,,,,,,,171.51431140000932,None,space,0.2178893000818789,171.51431140000932,None,171.83984779997263,None,f,1,0.6053183000767604,171.83984779997263,None,172.46118889998178,None,None,172.46118889998178,None,,,001,2021_Oct_01_1553,searchDisc4,2021.1.2,60.12860305547748,
images/exp2b_trial_88_colour2_distractors31_l.png,f,,2b,88,2,31,,,,,0,91,91,709,,,,,,,,,,,,,,,,,,,,,,,,,,,,,,,,,,,,,,,,,,,,,,,,,,,,,,,,,,,,,,,,,,,,,,,,,,,,172.46630069997627,None,space,0.2504458000184968,172.46630069997627,None,172.82392650004476,None,f,1,0.5255008999956772,172.82392650004476,None,173.37835820000618,None,None,173.37835820000618,None,,,001,2021_Oct_01_1553,searchDisc4,2021.1.2,60.12860305547748,
images/exp2c_trial_84_colour2_distractors1_l.png,f,,2c,84,2,1,,,,,0,92,92,897,,,,,,,,,,,,,,,,,,,,,,,,,,,,,,,,,,,,,,,,,,,,,,,,,,,,,,,,,,,,,,,,,,,,,,,,,,,,173.3840580000542,None,space,0.26764119998551905,173.3840580000542,None,173.72020270000212,None,f,1,0.6931127000134438,173.72020270000212,None,174.42925490001215,None,None,174.42925490001215,None,,,001,2021_Oct_01_1553,searchDisc4,2021.1.2,60.12860305547748,
images/exp2b_trial_111_colour1_distractors1_l.png,f,,2b,111,1,1,,,,,0,93,93,732,,,,,,,,,,,,,,,,,,,,,,,,,,,,,,,,,,,,,,,,,,,,,,,,,,,,,,,,,,,,,,,,,,,,,,,,,,,,174.4354042999912,None,space,0.27377870003692806,174.4354042999912,None,174.79208529996686,None,f,1,0.5097123999148607,174.79208529996686,None,175.34686020002698,None,None,175.34686020002698,None,,,001,2021_Oct_01_1553,searchDisc4,2021.1.2,60.12860305547748,
images/exp2a_trial_142_colour3_distractors31_r.png,j,,2a,142,3,31,,,,,0,94,94,571,,,,,,,,,,,,,,,,,,,,,,,,,,,,,,,,,,,,,,,,,,,,,,,,,,,,,,,,,,,,,,,,,,,,,,,,,,,,175.34608699998353,None,space,0.24239010002929717,175.34608699998353,None,175.6636593999574,None,j,0,0.6329580000601709,175.6636593999574,None,176.33208229995796,None,None,176.33208229995796,None,,,001,2021_Oct_01_1553,searchDisc4,2021.1.2,60.12860305547748,
images/exp2a_trial_35_colour1_distractors19_r.png,j,,2a,35,1,19,,,,,0,95,95,464,,,,,,,,,,,,,,,,,,,,,,,,,,,,,,,,,,,,,,,,,,,,,,,,,,,,,,,,,,,,,,,,,,,,,,,,,,,,176.32327479997184,None,space,0.28881790000014007,176.32327479997184,None,176.68943510006648,None,j,0,0.4765185998985544,176.68943510006648,None,177.19883580002931,None,None,177.19883580002931,None,,,001,2021_Oct_01_1553,searchDisc4,2021.1.2,60.12860305547748,
images/exp2a_trial_9_colour2_distractors31_r.png,j,,2a,9,2,31,,,,,0,96,96,438,,,,,,,,,,,,,,,,,,,,,,,,,,,,,,,,,,,,,,,,,,,,,,,,,,,,,,,,,,,,,,,,,,,,,,,,,,,,177.19202089996543,None,space,0.31547969998791814,177.19202089996543,None,177.60130029998254,None,j,0,0.6686107000568882,177.60130029998254,None,178.31642939997835,None,None,178.31642939997835,None,,,001,2021_Oct_01_1553,searchDisc4,2021.1.2,60.12860305547748,
images/exp2b_trial_136_colour2_distractors19_r.png,j,,2b,136,2,19,,,,,0,97,97,757,,,,,,,,,,,,,,,,,,,,,,,,,,,,,,,,,,,,,,,,,,,,,,,,,,,,,,,,,,,,,,,,,,,,,,,,,,,,178.31409600004554,None,space,0.24299790000077337,178.31409600004554,None,178.6334970999742,None,j,0,0.4764947999501601,178.6334970999742,None,179.13452809995505,None,None,179.13452809995505,None,,,001,2021_Oct_01_1553,searchDisc4,2021.1.2,60.12860305547748,
images/exp2c_trial_94_colour0_distractors0_r.png,j,,2c,94,0,0,,,,,0,98,98,907,,,,,,,,,,,,,,,,,,,,,,,,,,,,,,,,,,,,,,,,,,,,,,,,,,,,,,,,,,,,,,,,,,,,,,,,,,,,179.13780839997344,None,space,0.26622270001098514,179.13780839997344,None,179.48210270004347,None,j,0,0.3715206999331713,179.48210270004347,None,179.86871770005672,None,None,179.86871770005672,None,,,001,2021_Oct_01_1553,searchDisc4,2021.1.2,60.12860305547748,
images/exp2a_trial_149_colour2_distractors4_l.png,f,,2a,149,2,4,,,,,0,99,99,578,,,,,,,,,,,,,,,,,,,,,,,,,,,,,,,,,,,,,,,,,,,,,,,,,,,,,,,,,,,,,,,,,,,,,,,,,,,,179.87426249997225,None,space,0.2740520000224933,179.87426249997225,None,180.25401689996943,None,f,1,0.5137256000889465,180.25401689996943,None,180.80296169999053,None,None,180.80296169999053,None,,,001,2021_Oct_01_1553,searchDisc4,2021.1.2,60.12860305547748,
images/exp1a_trial_173_colour3_distractors19_r.png,j,,1a,173,3,19,,,,,0,100,100,218,,,,,,,,,,,,,,,,,,,,,,,,,,,,,,,,,,,,,,,,,,,,,,,,,,,,,,,,,,,,,,,,,,,,,,,,,,,,180.80692530004308,None,space,0.26160940004047006,180.80692530004308,None,181.14212229999248,None,j,0,0.5356770000653341,181.14212229999248,None,181.719946100004,None,None,181.719946100004,None,,,001,2021_Oct_01_1553,searchDisc4,2021.1.2,60.12860305547748,
images/exp1a_trial_170_colour3_distractors1_r.png,j,,1a,170,3,1,,,,,0,101,101,215,,,,,,,,,,,,,,,,,,,,,,,,,,,,,,,,,,,,,,,,,,,,,,,,,,,,,,,,,,,,,,,,,,,,,,,,,,,,181.71753689995967,None,space,0.23127860005479306,181.71753689995967,None,182.03110500006005,None,j,0,0.45571500004734844,182.03110500006005,None,182.50406300001777,None,None,182.50406300001777,None,,,001,2021_Oct_01_1553,searchDisc4,2021.1.2,60.12860305547748,
images/exp1b_trial_186_colour3_distractors4_l.png,f,,1b,186,3,4,,,,,0,102,102,423,,,,,,,,,,,,,,,,,,,,,,,,,,,,,,,,,,,,,,,,,,,,,,,,,,,,,,,,,,,,,,,,,,,,,,,,,,,,182.5104103999911,None,space,0.26184859999921173,182.5104103999911,None,182.8404015999986,None,f,1,0.5569315999746323,182.8404015999986,None,183.4216459000483,None,None,183.4216459000483,None,,,001,2021_Oct_01_1553,searchDisc4,2021.1.2,60.12860305547748,
images/exp2b_trial_171_colour3_distractors4_r.png,j,,2b,171,3,4,,,,,0,103,103,792,,,,,,,,,,,,,,,,,,,,,,,,,,,,,,,,,,,,,,,,,,,,,,,,,,,,,,,,,,,,,,,,,,,,,,,,,,,,183.42823910003062,None,space,0.28053720004390925,183.42823910003062,None,183.79751359997317,None,j,0,0.5200358000583947,183.79751359997317,None,184.35576639997305,None,None,184.35576639997305,None,,,001,2021_Oct_01_1553,searchDisc4,2021.1.2,60.12860305547748,
images/exp1b_trial_150_colour2_distractors9_l.png,f,,1b,150,2,9,,,,,0,104,104,387,,,,,,,,,,,,,,,,,,,,,,,,,,,,,,,,,,,,,,,,,,,,,,,,,,,,,,,,,,,,,,,,,,,,,,,,,,,,184.35436300002038,None,space,0.2739340999396518,184.35436300002038,None,184.70424160000402,None,f,1,0.5508866000454873,184.70424160000402,None,185.29011330006176,None,None,185.29011330006176,None,,,001,2021_Oct_01_1553,searchDisc4,2021.1.2,60.12860305547748,
images/exp2b_trial_145_colour1_distractors9_l.png,f,,2b,145,1,9,,,,,0,105,105,766,,,,,,,,,,,,,,,,,,,,,,,,,,,,,,,,,,,,,,,,,,,,,,,,,,,,,,,,,,,,,,,,,,,,,,,,,,,,185.28761670005042,None,space,0.2689731999998912,185.28761670005042,None,185.65549280005507,None,f,1,0.4943043999373913,185.65549280005507,None,186.17481439996044,None,None,186.17481439996044,None,,,001,2021_Oct_01_1553,searchDisc4,2021.1.2,60.12860305547748,
images/exp1a_trial_125_colour3_distractors31_l.png,f,,1a,125,3,31,,,,,0,106,106,170,,,,,,,,,,,,,,,,,,,,,,,,,,,,,,,,,,,,,,,,,,,,,,,,,,,,,,,,,,,,,,,,,,,,,,,,,,,,186.18047600006685,None,space,0.24751520005520433,186.18047600006685,None,186.49925960006658,None,j,0,0.4503388999728486,186.49925960006658,None,186.99195819997692,None,None,186.99195819997692,None,,,001,2021_Oct_01_1553,searchDisc4,2021.1.2,60.12860305547748,
images/exp2c_trial_149_colour2_distractors4_l.png,f,,2c,149,2,4,,,,,0,107,107,2,,,,,,,,,,,,,,,,,,,,,,,,,,,,,,,,,,,,,,,,,,,,,,,,,,,,,,,,,,,,,,,,,,,,,,,,,,,,186.9849282000214,None,space,0.49070650001522154,186.9849282000214,None,187.58901830005925,None,f,1,0.5287364999530837,187.58901830005925,None,188.16045639999209,None,None,188.16045639999209,None,,,001,2021_Oct_01_1553,searchDisc4,2021.1.2,60.12860305547748,
images/exp2c_trial_142_colour3_distractors31_r.png,j,,2c,142,3,31,,,,,0,108,108,955,,,,,,,,,,,,,,,,,,,,,,,,,,,,,,,,,,,,,,,,,,,,,,,,,,,,,,,,,,,,,,,,,,,,,,,,,,,,188.1588628999889,None,space,0.221049299929291,188.1588628999889,None,188.47518810001202,None,j,0,0.6104899999918416,188.47518810001202,None,189.12792059998026,None,None,189.12792059998026,None,,,001,2021_Oct_01_1553,searchDisc4,2021.1.2,60.12860305547748,
images/exp2b_trial_61_colour3_distractors31_l.png,f,,2b,61,3,31,,,,,0,109,109,682,,,,,,,,,,,,,,,,,,,,,,,,,,,,,,,,,,,,,,,,,,,,,,,,,,,,,,,,,,,,,,,,,,,,,,,,,,,,189.12556980003137,None,space,0.28676170005928725,189.12556980003137,None,189.4802706000628,None,f,1,0.5489942999556661,189.4802706000628,None,190.07839400004593,None,None,190.07839400004593,None,,,001,2021_Oct_01_1553,searchDisc4,2021.1.2,60.12860305547748,
images/exp1a_trial_159_colour0_distractors0_l.png,f,,1a,159,0,0,,,,,0,110,110,204,,,,,,,,,,,,,,,,,,,,,,,,,,,,,,,,,,,,,,,,,,,,,,,,,,,,,,,,,,,,,,,,,,,,,,,,,,,,190.07198370003607,None,space,0.23545349994674325,190.07198370003607,None,190.39664260006975,None,f,1,0.5215820999583229,190.39664260006975,None,190.96237359996883,None,None,190.96237359996883,None,,,001,2021_Oct_01_1553,searchDisc4,2021.1.2,60.12860305547748,
images/exp1b_trial_112_colour1_distractors4_l.png,f,,1b,112,1,4,,,,,0,111,111,349,,,,,,,,,,,,,,,,,,,,,,,,,,,,,,,,,,,,,,,,,,,,,,,,,,,,,,,,,,,,,,,,,,,,,,,,,,,,190.9608177000191,None,space,0.37067949993070215,190.9608177000191,None,191.42361990001518,None,f,1,0.6940985999535769,191.42361990001518,None,192.16348540000615,None,None,192.16348540000615,None,,,001,2021_Oct_01_1553,searchDisc4,2021.1.2,60.12860305547748,
images/exp1b_trial_126_colour0_distractors0_r.png,j,,1b,126,0,0,,,,,0,112,112,363,,,,,,,,,,,,,,,,,,,,,,,,,,,,,,,,,,,,,,,,,,,,,,,,,,,,,,,,,,,,,,,,,,,,,,,,,,,,192.15856220002752,None,space,0.3408984000561759,192.15856220002752,None,192.5869617999997,None,j,0,0.49264800001401454,192.5869617999997,None,193.1150975000113,None,None,193.1150975000113,None,,,001,2021_Oct_01_1553,searchDisc4,2021.1.2,60.12860305547748,
images/exp2b_trial_179_colour1_distractors31_l.png,f,,2b,179,1,31,,,,,0,113,113,800,,,,,,,,,,,,,,,,,,,,,,,,,,,,,,,,,,,,,,,,,,,,,,,,,,,,,,,,,,,,,,,,,,,,,,,,,,,,193.12094609998167,None,space,0.3312160999048501,193.12094609998167,None,193.52535690006334,None,f,1,0.5371818999992684,193.52535690006334,None,194.08238470000214,None,None,194.08238470000214,None,,,001,2021_Oct_01_1553,searchDisc4,2021.1.2,60.12860305547748,
images/exp2c_trial_26_colour3_distractors4_l.png,f,,2c,26,3,4,,,,,0,114,114,839,,,,,,,,,,,,,,,,,,,,,,,,,,,,,,,,,,,,,,,,,,,,,,,,,,,,,,,,,,,,,,,,,,,,,,,,,,,,194.08686360006686,None,space,0.30941600003279746,194.08686360006686,None,194.51073760003783,None,f,1,0.7042086999863386,194.51073760003783,None,195.25008210001977,None,None,195.25008210001977,None,,,001,2021_Oct_01_1553,searchDisc4,2021.1.2,60.12860305547748,
images/exp2a_trial_105_colour2_distractors31_r.png,j,,2a,105,2,31,,,,,0,115,115,534,,,,,,,,,,,,,,,,,,,,,,,,,,,,,,,,,,,,,,,,,,,,,,,,,,,,,,,,,,,,,,,,,,,,,,,,,,,,195.24891399999615,None,space,0.2739906000206247,195.24891399999615,None,195.62261890002992,None,j,0,0.5603854999644682,195.62261890002992,None,196.20123549997805,None,None,196.20123549997805,None,,,001,2021_Oct_01_1553,searchDisc4,2021.1.2,60.12860305547748,
images/exp2b_trial_36_colour1_distractors31_r.png,j,,2b,36,1,31,,,,,0,116,116,657,,,,,,,,,,,,,,,,,,,,,,,,,,,,,,,,,,,,,,,,,,,,,,,,,,,,,,,,,,,,,,,,,,,,,,,,,,,,196.20613229996525,None,space,0.4696876999223605,196.20613229996525,None,196.7844199000392,None,j,0,0.581834299955517,196.7844199000392,None,197.40199120002796,None,None,197.40199120002796,None,,,001,2021_Oct_01_1553,searchDisc4,2021.1.2,60.12860305547748,
images/exp2a_trial_175_colour1_distractors1_l.png,f,,2a,175,1,1,,,,,0,117,117,604,,,,,,,,,,,,,,,,,,,,,,,,,,,,,,,,,,,,,,,,,,,,,,,,,,,,,,,,,,,,,,,,,,,,,,,,,,,,197.39553229999729,None,space,0.3530852999538183,197.39553229999729,None,197.83140679995995,None,f,1,0.4553029000526294,197.83140679995995,None,198.32023519997017,None,None,198.32023519997017,None,,,001,2021_Oct_01_1553,searchDisc4,2021.1.2,60.12860305547748,
images/exp2b_trial_134_colour2_distractors4_r.png,j,,2b,134,2,4,,,,,0,118,118,755,,,,,,,,,,,,,,,,,,,,,,,,,,,,,,,,,,,,,,,,,,,,,,,,,,,,,,,,,,,,,,,,,,,,,,,,,,,,198.3205482000485,None,space,0.3478942000074312,198.3205482000485,None,198.7511102000717,None,j,0,0.5745509000262246,198.7511102000717,None,199.3542424999643,None,None,199.3542424999643,None,,,001,2021_Oct_01_1553,searchDisc4,2021.1.2,60.12860305547748,
images/exp2c_trial_114_colour1_distractors19_l.png,f,,2c,114,1,19,,,,,0,119,119,927,,,,,,,,,,,,,,,,,,,,,,,,,,,,,,,,,,,,,,,,,,,,,,,,,,,,,,,,,,,,,,,,,,,,,,,,,,,,199.35852570005227,None,space,0.34206150006502867,199.35852570005227,None,199.7808186999755,None,f,1,0.4645066000521183,199.7808186999755,None,200.27670709998347,None,space,200.27670709998347,None,0.26533199998084456,,001,2021_Oct_01_1553,searchDisc4,2021.1.2,60.12860305547748,
