ImageFile,targ_side,correctAnswer,colour,distNo,targetType,trials_2.thisRepN,trials_2.thisTrialN,trials_2.thisN,trials_2.thisIndex,trials.thisRepN,trials.thisTrialN,trials.thisN,trials.thisIndex,text_6.started,text_6.stopped,buttonBox.keys,buttonBox.rt,buttonBox.started,buttonBox.stopped,text_7.started,text_7.stopped,buttonBox_3.keys,buttonBox_3.rt,buttonBox_3.started,buttonBox_3.stopped,text_8.started,text_8.stopped,buttonBox_4.keys,buttonBox_4.rt,buttonBox_4.started,buttonBox_4.stopped,text_9.started,text_9.stopped,buttonBox_5.keys,buttonBox_5.rt,buttonBox_5.started,buttonBox_5.stopped,text_2.started,text_2.stopped,buttonBox_6.keys,buttonBox_6.rt,buttonBox_6.started,buttonBox_6.stopped,text_5.started,text_5.stopped,buttonBox_7.keys,buttonBox_7.rt,image_2.started,image_2.stopped,image_3.started,image_3.stopped,buttonBox_8.keys,buttonBox_8.rt,buttonBox_8.started,buttonBox_8.stopped,polygon.started,polygon.stopped,buttonBox_9.keys,buttonBox_9.rt,buttonBox_9.started,buttonBox_9.stopped,image.started,image.stopped,buttonBox_10.keys,buttonBox_10.corr,buttonBox_10.rt,buttonBox_10.started,buttonBox_10.stopped,text_4.started,text_4.stopped,text.started,text.stopped,buttonBox_11.keys,buttonBox_11.rt,buttonBox_11.started,buttonBox_11.stopped,targetTypeInstruction.started,targetTypeInstruction.stopped,buttonBox_2.keys,buttonBox_2.rt,buttonBox_2.started,buttonBox_2.stopped,dispStimuli.started,dispStimuli.stopped,buttonBox_12.keys,buttonBox_12.corr,buttonBox_12.rt,buttonBox_12.started,buttonBox_12.stopped,breakMessage.started,breakMessage.stopped,buttonBox_13.keys,buttonBox_13.started,buttonBox_13.stopped,buttonBox_13.rt,participant,session,date,expName,psychopyVersion,frameRate,
,,,,,,,,,,,,,,13.466559205000522,None,2,28.943515680002747,13.466559205000522,None,,,,,,,,,,,,,,,,,,,,,,,,,,,,,,,,,,,,,,,,,,,,,,,,,,,,,,,,,,,,,,,,,,,,,,,,,,,,,6,001,2022_Dec_13_1251,searchDisc5,2021.2.3,59.97004628061398,
,,,,,,,,,,,,,,,,,,,,42.39803739400304,None,2,5.481311571998958,42.39803739400304,None,,,,,,,,,,,,,,,,,,,,,,,,,,,,,,,,,,,,,,,,,,,,,,,,,,,,,,,,,,,,,,,,,,,,,,,6,001,2022_Dec_13_1251,searchDisc5,2021.2.3,59.97004628061398,
,,,,,,,,,,,,,,,,,,,,,,,,,,47.881610410000576,None,2,4.663768472000811,47.881610410000576,None,,,,,,,,,,,,,,,,,,,,,,,,,,,,,,,,,,,,,,,,,,,,,,,,,,,,,,,,,,,,,,,,,6,001,2022_Dec_13_1251,searchDisc5,2021.2.3,59.97004628061398,
,,,,,,,,,,,,,,,,,,,,,,,,,,,,,,,,52.54846297900076,None,2,1.1004632200019842,52.54846297900076,None,,,,,,,,,,,,,,,,,,,,,,,,,,,,,,,,,,,,,,,,,,,,,,,,,,,,,,,,,,,6,001,2022_Dec_13_1251,searchDisc5,2021.2.3,59.97004628061398,
,,,,,,,,,,,,,,,,,,,,,,,,,,,,,,,,,,,,,,53.6483713000016,None,2,3.2003060540009756,54.63376622800206,None,,,,,,,,,,,,,,,,,,,,,,,,,,,,,,,,,,,,,,,,,,,,,,,,,,,,,6,001,2022_Dec_13_1251,searchDisc5,2021.2.3,59.97004628061398,
,,,,,,,,,,,,,,,,,,,,,,,,,,,,,,,,,,,,,,,,,,,,57.83188801000142,None,2,9.901000157697126e-05,,,,,,,,,,,,,,,,,,,,,,,,,,,,,,,,,,,,,,,,,,,,,,,,,6,001,2022_Dec_13_1251,searchDisc5,2021.2.3,59.97004628061398,
,,,,,,,,,,,,,,,,,,,,,,,,,,,,,,,,,,,,,,,,,,,,,,,,60.83480011800202,None,60.83480011800202,None,2,21.763289954000356,60.83480011800202,None,,,,,,,,,,,,,,,,,,,,,,,,,,,,,,,,,,,,,,,,,6,001,2022_Dec_13_1251,searchDisc5,2021.2.3,59.97004628061398,
Practice arrays/exp1a_trial_16_colour1_distractors4_l.png,l,1,,,,0,0,0,13,,,,,,,,,,,,,,,,,,,,,,,,,,,,,,,,,,,,,,,,,,,,,,,82.63470475900249,None,2,3.7515583380009048,82.63470475900249,None,86.43281733500044,None,1,1,1.5724390899995342,86.43281733500044,None,87.99883785200291,None,,,,,,,,,,,,,,,,,,,,,,,,,,6,001,2022_Dec_13_1251,searchDisc5,2021.2.3,59.97004628061398,
Practice arrays/exp1a_trial_27_colour3_distractors9_l.png,l,1,,,,0,1,1,12,,,,,,,,,,,,,,,,,,,,,,,,,,,,,,,,,,,,,,,,,,,,,,,90.00115740100227,None,2,2.8637101509993954,90.00115740100227,None,92.918329868,None,1,1,1.1504656549986976,92.918329868,None,94.06624659100271,None,,,,,,,,,,,,,,,,,,,,,,,,,,6,001,2022_Dec_13_1251,searchDisc5,2021.2.3,59.97004628061398,
Practice arrays/exp1a_trial_1_colour1_distractors4_r.png,r,3,,,,0,2,2,1,,,,,,,,,,,,,,,,,,,,,,,,,,,,,,,,,,,,,,,,,,,,,,,96.06825042800119,None,2,0.4659909490001155,96.06825042800119,None,96.58452560700243,None,3,1,1.3150092940013565,96.58452560700243,None,97.89966754000125,None,,,,,,,,,,,,,,,,,,,,,,,,,,6,001,2022_Dec_13_1251,searchDisc5,2021.2.3,59.97004628061398,
Practice arrays/exp1a_trial_12_colour3_distractors9_r.png,r,3,,,,0,3,3,5,,,,,,,,,,,,,,,,,,,,,,,,,,,,,,,,,,,,,,,,,,,,,,,99.90181547300017,None,2,3.3649508390008123,99.90181547300017,None,103.31840663800176,None,3,1,1.3521654539981682,103.31840663800176,None,104.66633748800086,None,,,,,,,,,,,,,,,,,,,,,,,,,,6,001,2022_Dec_13_1251,searchDisc5,2021.2.3,59.97004628061398,
Practice arrays/exp1a_trial_21_colour2_distractors4_l.png,l,1,,,,0,4,4,9,,,,,,,,,,,,,,,,,,,,,,,,,,,,,,,,,,,,,,,,,,,,,,,106.66851421300089,None,2,3.9306968029995915,106.66851421300089,None,110.6494604239997,None,1,1,0.8380385749987909,110.6494604239997,None,111.48319668100157,None,,,,,,,,,,,,,,,,,,,,,,,,,,6,001,2022_Dec_13_1251,searchDisc5,2021.2.3,59.97004628061398,
Practice arrays/exp1a_trial_8_colour2_distractors19_r.png,r,3,,,,0,5,5,3,,,,,,,,,,,,,,,,,,,,,,,,,,,,,,,,,,,,,,,,,,,,,,,113.48545179100256,None,2,0.11385596199761494,113.48545179100256,None,113.65575513099975,None,3,1,0.8942880430004152,113.65575513099975,None,114.54992602400307,None,,,,,,,,,,,,,,,,,,,,,,,,,,6,001,2022_Dec_13_1251,searchDisc5,2021.2.3,59.97004628061398,
Practice arrays/exp1a_trial_18_colour1_distractors19_l.png,l,1,,,,0,6,6,8,,,,,,,,,,,,,,,,,,,,,,,,,,,,,,,,,,,,,,,,,,,,,,,116.55208871000286,None,2,0.3493642670000554,116.55208871000286,None,116.95213536800293,None,1,1,0.7824767580023035,116.95213536800293,None,117.73340941900096,None,,,,,,,,,,,,,,,,,,,,,,,,,,6,001,2022_Dec_13_1251,searchDisc5,2021.2.3,59.97004628061398,
Practice arrays/exp1a_trial_0_colour1_distractors1_r.png,r,3,,,,0,7,7,0,,,,,,,,,,,,,,,,,,,,,,,,,,,,,,,,,,,,,,,,,,,,,,,119.73510147100023,None,2,0.748789328001294,119.73510147100023,None,120.53308506400208,None,3,1,1.002907211001002,120.53308506400208,None,121.5336521240024,None,,,,,,,,,,,,,,,,,,,,,,,,,,6,001,2022_Dec_13_1251,searchDisc5,2021.2.3,59.97004628061398,
Practice arrays/exp1a_trial_14_colour3_distractors31_r.png,r,3,,,,0,8,8,6,,,,,,,,,,,,,,,,,,,,,,,,,,,,,,,,,,,,,,,,,,,,,,,123.53521519500282,None,2,0.01555614100288949,123.53521519500282,None,123.60262733100171,None,3,1,0.7806065559998387,123.60262733100171,None,124.38357621700197,None,,,,,,,,,,,,,,,,,,,,,,,,,,6,001,2022_Dec_13_1251,searchDisc5,2021.2.3,59.97004628061398,
Practice arrays/exp1a_trial_7_colour2_distractors9_r.png,r,3,,,,0,9,9,2,,,,,,,,,,,,,,,,,,,,,,,,,,,,,,,,,,,,,,,,,,,,,,,126.38520032900124,None,2,0.964072553000733,126.38520032900124,None,127.40061743300248,None,3,1,0.7651966270022967,127.40061743300248,None,128.1670886339998,None,,,,,,,,,,,,,,,,,,,,,,,,,,6,001,2022_Dec_13_1251,searchDisc5,2021.2.3,59.97004628061398,
Practice arrays/exp1a_trial_30_colour0_distractors0_r.png,r,3,,,,0,10,10,14,,,,,,,,,,,,,,,,,,,,,,,,,,,,,,,,,,,,,,,,,,,,,,,130.1691198360022,None,2,2.6808047669983353,130.1691198360022,None,132.9027643590016,None,3,1,0.6390218550004647,132.9027643590016,None,133.53374464400258,None,,,,,,,,,,,,,,,,,,,,,,,,,,6,001,2022_Dec_13_1251,searchDisc5,2021.2.3,59.97004628061398,
Practice arrays/exp1a_trial_31_colour0_distractors0_l.png,l,1,,,,0,11,11,15,,,,,,,,,,,,,,,,,,,,,,,,,,,,,,,,,,,,,,,,,,,,,,,135.53546542500044,None,2,1.56365412300147,135.53546542500044,None,137.15296447299988,None,1,1,0.506008087999362,137.15296447299988,None,137.65051023200067,None,,,,,,,,,,,,,,,,,,,,,,,,,,6,001,2022_Dec_13_1251,searchDisc5,2021.2.3,59.97004628061398,
Practice arrays/exp1a_trial_17_colour1_distractors9_l.png,l,1,,,,0,12,12,7,,,,,,,,,,,,,,,,,,,,,,,,,,,,,,,,,,,,,,,,,,,,,,,139.65274710700032,None,2,0.6473187249976036,139.65274710700032,None,140.35074723599973,None,1,1,0.8197138239993365,140.35074723599973,None,141.16735022500143,None,,,,,,,,,,,,,,,,,,,,,,,,,,6,001,2022_Dec_13_1251,searchDisc5,2021.2.3,59.97004628061398,
Practice arrays/exp1a_trial_23_colour2_distractors19_l.png,l,1,,,,0,13,13,10,,,,,,,,,,,,,,,,,,,,,,,,,,,,,,,,,,,,,,,,,,,,,,,143.1697164060024,None,2,2.0137626600007934,143.1697164060024,None,145.23433917100192,None,1,1,1.0173184570012381,145.23433917100192,None,146.2510724260028,None,,,,,,,,,,,,,,,,,,,,,,,,,,6,001,2022_Dec_13_1251,searchDisc5,2021.2.3,59.97004628061398,
Practice arrays/exp1a_trial_10_colour3_distractors1_r.png,r,3,,,,0,14,14,4,,,,,,,,,,,,,,,,,,,,,,,,,,,,,,,,,,,,,,,,,,,,,,,148.25309798099988,None,2,0.8662460910018126,148.25309798099988,None,149.16967196900077,None,3,1,0.8214712510016398,149.16967196900077,None,149.9843661470004,None,,,,,,,,,,,,,,,,,,,,,,,,,,6,001,2022_Dec_13_1251,searchDisc5,2021.2.3,59.97004628061398,
Practice arrays/exp1a_trial_25_colour3_distractors1_l.png,l,1,,,,0,15,15,11,,,,,,,,,,,,,,,,,,,,,,,,,,,,,,,,,,,,,,,,,,,,,,,151.9863417710003,None,2,2.44930627299982,151.9863417710003,None,154.48470455500137,None,1,1,0.6195321299965144,154.48470455500137,None,155.10047830999974,None,,,,,,,,,,,,,,,,,,,,,,,,,,6,001,2022_Dec_13_1251,searchDisc5,2021.2.3,59.97004628061398,
,,,,,,,,,,,,,,,,,,,,,,,,,,,,,,,,,,,,,,,,,,,,,,,,,,,,,,,,,,,,,,,,,,,,,,,157.1863277770026,None,2,3.0314888839966443,158.16995952100115,None,,,,,,,,,,,,,,,,,,,,6,001,2022_Dec_13_1251,searchDisc5,2021.2.3,59.97004628061398,
images/exp2c_trial_6_colour2_distractors4_r.png,r,3,2,4,0,,,,,0,0,0,0,,,,,,,,,,,,,,,,,,,,,,,,,,,,,,,,,,,,,,,,,,,185.10336688400275,None,2,3.1931544380022387,185.10336688400275,None,,,,,,,,,,,,,,,,161.80353767500128,None,2,21.33397809300004,163.76962997400187,None,188.35269121100282,None,3,1,1.1616314460006834,188.35269121100282,None,189.53527982859958,None,None,None,None,,6,001,2022_Dec_13_1251,searchDisc5,2021.2.3,59.97004628061398,
images/exp2c_trial_69_colour2_distractors1_r.png,r,3,2,1,0,,,,,0,1,1,1,,,,,,,,,,,,,,,,,,,,,,,,,,,,,,,,,,,,,,,,,,,189.55375764700148,None,2,2.0064477949999855,189.55375764700148,None,,,,,,,,,,,,,,,,None,None,None,,None,None,191.60432501200194,None,3,1,0.8527997060009511,191.60432501200194,None,192.45201942179992,None,None,None,None,,6,001,2022_Dec_13_1251,searchDisc5,2021.2.3,59.97004628061398,
images/exp2c_trial_77_colour3_distractors19_r.png,r,3,3,19,0,,,,,0,2,2,2,,,,,,,,,,,,,,,,,,,,,,,,,,,,,,,,,,,,,,,,,,,192.47026488400297,None,2,1.2887628759999643,192.47026488400297,None,,,,,,,,,,,,,,,,None,None,None,,None,None,193.80388169700018,None,3,1,1.1333968359977007,193.80388169700018,None,194.93532794280108,None,None,None,None,,6,001,2022_Dec_13_1251,searchDisc5,2021.2.3,59.97004628061398,
images/exp2a_trial_67_colour1_distractors19_r.png,r,3,1,19,0,,,,,0,3,3,3,,,,,,,,,,,,,,,,,,,,,,,,,,,,,,,,,,,,,,,,,,,194.95223868000176,None,2,1.0532769270030258,194.95223868000176,None,,,,,,,,,,,,,,,,None,None,None,,None,None,196.05234061699957,None,3,1,0.7362451480003074,196.05234061699957,None,196.7854465508004,None,None,None,None,,6,001,2022_Dec_13_1251,searchDisc5,2021.2.3,59.97004628061398,
images/exp1a_trial_297_colour2_distractors31_r.png,r,3,2,31,0,,,,,0,4,4,4,,,,,,,,,,,,,,,,,,,,,,,,,,,,,,,,,,,,,,,,,,,196.80207937700106,None,2,0.8208390880026855,196.80207937700106,None,,,,,,,,,,,,,,,,None,None,None,,None,None,197.66869534299985,None,3,1,0.6968096119999245,197.66869534299985,None,198.36821894080057,None,None,None,None,,6,001,2022_Dec_13_1251,searchDisc5,2021.2.3,59.97004628061398,
images/exp1a_trial_313_colour3_distractors1_l.png,l,1,3,1,0,,,,,0,5,5,5,,,,,,,,,,,,,,,,,,,,,,,,,,,,,,,,,,,,,,,,,,,198.38544155400086,None,2,0.6385496669972781,198.38544155400086,None,,,,,,,,,,,,,,,,None,None,None,,None,None,199.0710587020003,None,1,1,0.6047872540002572,199.0710587020003,None,199.66817000979935,None,None,None,None,,6,001,2022_Dec_13_1251,searchDisc5,2021.2.3,59.97004628061398,
images/exp2b_trial_112_colour1_distractors4_l.png,l,1,1,4,0,,,,,0,6,6,6,,,,,,,,,,,,,,,,,,,,,,,,,,,,,,,,,,,,,,,,,,,199.68515891700008,None,2,0.5378206620007404,199.68515891700008,None,,,,,,,,,,,,,,,,None,None,None,,None,None,200.27120090600147,None,1,1,0.7209938149972004,200.27120090600147,None,200.9860191038002,None,None,None,None,,6,001,2022_Dec_13_1251,searchDisc5,2021.2.3,59.97004628061398,
images/exp2c_trial_42_colour3_distractors1_r.png,r,3,3,1,0,,,,,0,7,7,7,,,,,,,,,,,,,,,,,,,,,,,,,,,,,,,,,,,,,,,,,,,201.00256927300143,None,2,0.6372319830006745,201.00256927300143,None,,,,,,,,,,,,,,,,None,None,None,,None,None,201.68555629800176,None,3,1,0.6009792040022148,201.68555629800176,None,202.2851332358019,None,None,None,None,,6,001,2022_Dec_13_1251,searchDisc5,2021.2.3,59.97004628061398,
images/exp2b_trial_28_colour3_distractors19_l.png,l,1,3,19,0,,,,,0,8,8,8,,,,,,,,,,,,,,,,,,,,,,,,,,,,,,,,,,,,,,,,,,,202.30430499200156,None,2,0.7216888389993983,202.30430499200156,None,,,,,,,,,,,,,,,,None,None,None,,None,None,203.07116925900118,None,1,1,0.7033327809986076,203.07116925900118,None,203.76894587180286,None,None,None,None,,6,001,2022_Dec_13_1251,searchDisc5,2021.2.3,59.97004628061398,
images/exp1a_trial_302_colour3_distractors31_r.png,r,3,3,31,0,,,,,0,9,9,9,,,,,,,,,,,,,,,,,,,,,,,,,,,,,,,,,,,,,,,,,,,203.78567077000116,None,2,0.9215828819978924,203.78567077000116,None,,,,,,,,,,,,,,,,None,None,None,,None,None,204.75480131000222,None,3,1,0.7825347960024374,204.75480131000222,None,205.5358534538005,None,None,None,None,,6,001,2022_Dec_13_1251,searchDisc5,2021.2.3,59.97004628061398,
images/exp1a_trial_188_colour3_distractors19_l.png,l,1,3,19,0,,,,,0,10,10,10,,,,,,,,,,,,,,,,,,,,,,,,,,,,,,,,,,,,,,,,,,,205.55253374600215,None,2,1.706051639997895,205.55253374600215,None,,,,,,,,,,,,,,,,None,None,None,,None,None,207.3045156420012,None,1,1,0.6149218969985668,207.3045156420012,None,207.919009473802,None,None,None,None,,6,001,2022_Dec_13_1251,searchDisc5,2021.2.3,59.97004628061398,
images/exp2b_trial_296_colour2_distractors19_r.png,r,3,2,19,0,,,,,0,11,11,11,,,,,,,,,,,,,,,,,,,,,,,,,,,,,,,,,,,,,,,,,,,207.93573561300218,None,2,0.9900032750010723,207.93573561300218,None,,,,,,,,,,,,,,,,None,None,None,,None,None,208.97141493100207,None,3,1,0.6352454039988515,208.97141493100207,None,209.6024777858016,None,None,None,None,,6,001,2022_Dec_13_1251,searchDisc5,2021.2.3,59.97004628061398,
images/exp2b_trial_130_colour1_distractors9_r.png,r,3,1,9,0,,,,,0,12,12,12,,,,,,,,,,,,,,,,,,,,,,,,,,,,,,,,,,,,,,,,,,,209.6194561709999,None,2,0.68769010199685,209.6194561709999,None,,,,,,,,,,,,,,,,None,None,None,,None,None,210.35257863000152,None,3,1,1.2329485600021144,210.35257863000152,None,211.5861214668017,None,None,None,None,,6,001,2022_Dec_13_1251,searchDisc5,2021.2.3,59.97004628061398,
images/exp2c_trial_127_colour0_distractors0_l.png,l,1,0,0,0,,,,,0,13,13,13,,,,,,,,,,,,,,,,,,,,,,,,,,,,,,,,,,,,,,,,,,,211.60255177900035,None,2,0.5051020020000578,211.60255177900035,None,,,,,,,,,,,,,,,,None,None,None,,None,None,212.15238109300117,None,1,1,0.6026832810021006,212.15238109300117,None,212.75266268880077,None,None,None,None,,6,001,2022_Dec_13_1251,searchDisc5,2021.2.3,59.97004628061398,
images/exp2c_trial_279_colour2_distractors19_l.png,l,1,2,19,0,,,,,0,14,14,14,,,,,,,,,,,,,,,,,,,,,,,,,,,,,,,,,,,,,,,,,,,212.7710817870029,None,2,0.5207179019998875,212.7710817870029,None,,,,,,,,,,,,,,,,None,None,None,,None,None,213.33760058900225,None,1,1,0.6202748420000717,213.33760058900225,None,213.95260772280162,None,None,None,None,,6,001,2022_Dec_13_1251,searchDisc5,2021.2.3,59.97004628061398,
images/exp2a_trial_216_colour2_distractors31_l.png,l,1,2,31,0,,,,,0,15,15,15,,,,,,,,,,,,,,,,,,,,,,,,,,,,,,,,,,,,,,,,,,,213.968713991002,None,2,0.5207402390005882,213.968713991002,None,,,,,,,,,,,,,,,,None,None,None,,None,None,214.53592478500286,None,1,1,1.5950928359998215,214.53592478500286,None,216.13594694280036,None,None,None,None,,6,001,2022_Dec_13_1251,searchDisc5,2021.2.3,59.97004628061398,
images/exp2c_trial_314_colour3_distractors4_l.png,l,1,3,4,0,,,,,0,16,16,16,,,,,,,,,,,,,,,,,,,,,,,,,,,,,,,,,,,,,,,,,,,216.15267367900015,None,2,0.5046645200018247,216.15267367900015,None,,,,,,,,,,,,,,,,None,None,None,,None,None,216.70281152200187,None,1,1,0.7041852080001263,216.70281152200187,None,217.4023923708024,None,None,None,None,,6,001,2022_Dec_13_1251,searchDisc5,2021.2.3,59.97004628061398,
images/exp2b_trial_215_colour2_distractors19_l.png,l,1,2,19,0,,,,,0,17,17,17,,,,,,,,,,,,,,,,,,,,,,,,,,,,,,,,,,,,,,,,,,,217.42173541800003,None,2,0.4069672520017775,217.42173541800003,None,,,,,,,,,,,,,,,,None,None,None,,None,None,217.86893675100146,None,1,1,0.6504783199998201,217.86893675100146,None,218.51938085179935,None,None,None,None,,6,001,2022_Dec_13_1251,searchDisc5,2021.2.3,59.97004628061398,
images/exp2c_trial_293_colour2_distractors1_r.png,r,3,2,1,0,,,,,0,18,18,18,,,,,,,,,,,,,,,,,,,,,,,,,,,,,,,,,,,,,,,,,,,218.53589719299998,None,2,0.4395230000009178,218.53589719299998,None,,,,,,,,,,,,,,,,None,None,None,,None,None,219.02168825600165,None,3,1,0.5371280710023711,219.02168825600165,None,219.55301327680135,None,None,None,None,,6,001,2022_Dec_13_1251,searchDisc5,2021.2.3,59.97004628061398,
images/exp2c_trial_250_colour3_distractors4_l.png,l,1,3,4,0,,,,,0,19,19,19,,,,,,,,,,,,,,,,,,,,,,,,,,,,,,,,,,,,,,,,,,,219.56917246100056,None,2,0.4200620939991495,219.56917246100056,None,,,,,,,,,,,,,,,,None,None,None,,None,None,220.0383579340014,None,1,1,0.5215133800011245,220.0383579340014,None,220.55268153780125,None,None,None,None,,6,001,2022_Dec_13_1251,searchDisc5,2021.2.3,59.97004628061398,
images/exp2c_trial_62_colour0_distractors0_r.png,r,3,0,0,0,,,,,0,20,20,20,,,,,,,,,,,,,,,,,,,,,,,,,,,,,,,,,,,,,,,,,,,220.5708951460001,None,2,0.4547785180002393,220.5708951460001,None,,,,,,,,,,,,,,,,None,None,None,,None,None,221.0697514670028,None,3,1,0.5572202670009574,221.0697514670028,None,221.6195436358008,None,None,None,None,,6,001,2022_Dec_13_1251,searchDisc5,2021.2.3,59.97004628061398,
images/exp2a_trial_156_colour3_distractors19_l.png,l,1,3,19,0,,,,,0,21,21,21,,,,,,,,,,,,,,,,,,,,,,,,,,,,,,,,,,,,,,,,,,,221.63575823000065,None,2,0.4047014789975947,221.63575823000065,None,,,,,,,,,,,,,,,,None,None,None,,None,None,222.08843790200262,None,1,1,0.4512735159987642,222.08843790200262,None,222.5362776848029,None,None,None,None,,6,001,2022_Dec_13_1251,searchDisc5,2021.2.3,59.97004628061398,
images/exp2c_trial_204_colour3_distractors9_r.png,r,3,3,9,0,,,,,0,22,22,22,,,,,,,,,,,,,,,,,,,,,,,,,,,,,,,,,,,,,,,,,,,222.55279060400062,None,2,0.8233243899994704,222.55279060400062,None,,,,,,,,,,,,,,,,None,None,None,,None,None,223.4218393600022,None,3,1,0.6014926689967979,223.4218393600022,None,224.01967922180265,None,None,None,None,,6,001,2022_Dec_13_1251,searchDisc5,2021.2.3,59.97004628061398,
images/exp1a_trial_214_colour2_distractors9_l.png,l,1,2,9,0,,,,,0,23,23,23,,,,,,,,,,,,,,,,,,,,,,,,,,,,,,,,,,,,,,,,,,,224.038489347,None,2,0.38966851700024563,224.038489347,None,,,,,,,,,,,,,,,,None,None,None,,None,None,224.46933271500166,None,1,1,0.7346558009994624,224.46933271500166,None,225.20293643780096,None,None,None,None,,6,001,2022_Dec_13_1251,searchDisc5,2021.2.3,59.97004628061398,
images/exp1a_trial_6_colour2_distractors4_r.png,r,3,2,4,0,,,,,0,24,24,24,,,,,,,,,,,,,,,,,,,,,,,,,,,,,,,,,,,,,,,,,,,225.21964153500085,None,2,0.4044567230012035,225.21964153500085,None,,,,,,,,,,,,,,,,None,None,None,,None,None,225.67177169299976,None,3,1,0.7044345120011712,225.67177169299976,None,226.36968660380225,None,None,None,None,,6,001,2022_Dec_13_1251,searchDisc5,2021.2.3,59.97004628061398,
images/exp2c_trial_92_colour3_distractors19_l.png,l,1,3,19,0,,,,,0,25,25,25,,,,,,,,,,,,,,,,,,,,,,,,,,,,,,,,,,,,,,,,,,,226.38626865100014,None,2,0.37103112600016175,226.38626865100014,None,,,,,,,,,,,,,,,,None,None,None,,None,None,226.80322029400122,None,1,1,0.886899714001629,226.80322029400122,None,227.68646532880084,None,None,None,None,,6,001,2022_Dec_13_1251,searchDisc5,2021.2.3,59.97004628061398,
images/exp2c_trial_267_colour3_distractors4_r.png,r,3,3,4,0,,,,,0,26,26,26,,,,,,,,,,,,,,,,,,,,,,,,,,,,,,,,,,,,,,,,,,,227.70505910400243,None,2,0.4715539829994668,227.70505910400243,None,,,,,,,,,,,,,,,,None,None,None,,None,None,228.21982382600254,None,3,1,0.8377393769987975,228.21982382600254,None,229.05308095979998,None,None,None,None,,6,001,2022_Dec_13_1251,searchDisc5,2021.2.3,59.97004628061398,
images/exp2c_trial_116_colour2_distractors1_l.png,l,1,2,1,0,,,,,0,27,27,27,,,,,,,,,,,,,,,,,,,,,,,,,,,,,,,,,,,,,,,,,,,229.071792818002,None,2,0.42296229799831053,229.071792818002,None,,,,,,,,,,,,,,,,None,None,None,,None,None,229.53666986200187,None,1,1,0.6030527020011505,229.53666986200187,None,230.136369869802,None,None,None,None,,6,001,2022_Dec_13_1251,searchDisc5,2021.2.3,59.97004628061398,
images/exp2c_trial_159_colour0_distractors0_l.png,l,1,0,0,0,,,,,0,28,28,28,,,,,,,,,,,,,,,,,,,,,,,,,,,,,,,,,,,,,,,,,,,230.15294256299967,None,2,0.42326967399640125,230.15294256299967,None,,,,,,,,,,,,,,,,None,None,None,,None,None,230.62140019900107,None,1,1,0.5036239139990357,230.62140019900107,None,231.1197113028007,None,None,None,None,,6,001,2022_Dec_13_1251,searchDisc5,2021.2.3,59.97004628061398,
images/exp2b_trial_269_colour3_distractors19_r.png,r,3,3,19,0,,,,,0,29,29,29,,,,,,,,,,,,,,,,,,,,,,,,,,,,,,,,,,,,,,,,,,,231.13638161600102,None,2,0.40753703699738253,231.13638161600102,None,,,,,,,,,,,,,,,,None,None,None,,None,None,231.58955742200123,None,3,1,0.5301079579985526,231.58955742200123,None,232.11963998680002,None,None,None,None,,6,001,2022_Dec_13_1251,searchDisc5,2021.2.3,59.97004628061398,
images/exp1a_trial_195_colour1_distractors19_r.png,r,3,1,19,0,,,,,0,30,30,30,,,,,,,,,,,,,,,,,,,,,,,,,,,,,,,,,,,,,,,,,,,232.13640961400233,None,2,0.3880932629981544,232.13640961400233,None,,,,,,,,,,,,,,,,None,None,None,,None,None,232.570144325,None,3,1,1.4507096399975126,232.570144325,None,234.01998178779976,None,None,None,None,,6,001,2022_Dec_13_1251,searchDisc5,2021.2.3,59.97004628061398,
images/exp1a_trial_29_colour3_distractors31_l.png,l,1,3,31,0,,,,,0,31,31,31,,,,,,,,,,,,,,,,,,,,,,,,,,,,,,,,,,,,,,,,,,,234.0362121979997,None,2,0.3869572310031799,234.0362121979997,None,,,,,,,,,,,,,,,,None,None,None,,None,None,234.47199697200267,None,1,1,0.5660341200018593,234.47199697200267,None,235.0366191998015,None,None,None,None,,6,001,2022_Dec_13_1251,searchDisc5,2021.2.3,59.97004628061398,
images/exp2c_trial_222_colour0_distractors0_r.png,r,3,0,0,0,,,,,0,32,32,32,,,,,,,,,,,,,,,,,,,,,,,,,,,,,,,,,,,,,,,,,,,235.05259795900201,None,2,0.40385431300092023,235.05259795900201,None,,,,,,,,,,,,,,,,None,None,None,,None,None,235.50547264600027,None,3,1,0.5220608170020569,235.50547264600027,None,236.01979445980177,None,None,None,None,,6,001,2022_Dec_13_1251,searchDisc5,2021.2.3,59.97004628061398,
images/exp2a_trial_314_colour3_distractors4_l.png,l,1,3,4,0,,,,,0,33,33,33,,,,,,,,,,,,,,,,,,,,,,,,,,,,,,,,,,,,,,,,,,,236.03597116899982,None,2,0.3400673360010842,236.03597116899982,None,,,,,,,,,,,,,,,,None,None,None,,None,None,236.4218999600016,None,1,1,0.502902506999817,236.4218999600016,None,236.91983989380023,None,None,None,None,,6,001,2022_Dec_13_1251,searchDisc5,2021.2.3,59.97004628061398,
images/exp2c_trial_14_colour3_distractors31_r.png,r,3,3,31,0,,,,,0,34,34,34,,,,,,,,,,,,,,,,,,,,,,,,,,,,,,,,,,,,,,,,,,,236.9365824209999,None,2,0.3563086360009038,236.9365824209999,None,,,,,,,,,,,,,,,,None,None,None,,None,None,237.3365859680016,None,3,1,0.8167506589998084,237.3365859680016,None,238.15332411380004,None,None,None,None,,6,001,2022_Dec_13_1251,searchDisc5,2021.2.3,59.97004628061398,
images/exp1a_trial_68_colour1_distractors31_r.png,r,3,1,31,0,,,,,0,35,35,35,,,,,,,,,,,,,,,,,,,,,,,,,,,,,,,,,,,,,,,,,,,238.16975340000135,None,2,0.33749439700113726,238.16975340000135,None,,,,,,,,,,,,,,,,None,None,None,,None,None,238.55337469200094,None,3,1,0.5823332260006282,238.55337469200094,None,239.13663956380114,None,None,None,None,,6,001,2022_Dec_13_1251,searchDisc5,2021.2.3,59.97004628061398,
images/exp2c_trial_252_colour3_distractors19_l.png,l,1,3,19,0,,,,,0,36,36,36,,,,,,,,,,,,,,,,,,,,,,,,,,,,,,,,,,,,,,,,,,,239.1552073540006,None,2,0.3388690250030777,239.1552073540006,None,,,,,,,,,,,,,,,,None,None,None,,None,None,239.53863800900217,None,1,1,1.3839185690012528,239.53863800900217,None,240.91939737680295,None,None,None,None,,6,001,2022_Dec_13_1251,searchDisc5,2021.2.3,59.97004628061398,
images/exp2c_trial_299_colour3_distractors4_r.png,r,3,3,4,0,,,,,0,37,37,37,,,,,,,,,,,,,,,,,,,,,,,,,,,,,,,,,,,,,,,,,,,240.93687186300303,None,2,0.4398816030006856,240.93687186300303,None,,,,,,,,,,,,,,,,None,None,None,,None,None,241.42242273400188,None,3,1,0.736455042999296,241.42242273400188,None,242.1533703908004,None,None,None,None,,6,001,2022_Dec_13_1251,searchDisc5,2021.2.3,59.97004628061398,
images/exp2a_trial_41_colour2_distractors31_r.png,r,3,2,31,0,,,,,0,38,38,38,,,,,,,,,,,,,,,,,,,,,,,,,,,,,,,,,,,,,,,,,,,242.16946593100147,None,2,0.32116508800027077,242.16946593100147,None,,,,,,,,,,,,,,,,None,None,None,,None,None,242.5371026870016,None,3,1,0.9437350549997063,242.5371026870016,None,243.48678050280213,None,None,None,None,,6,001,2022_Dec_13_1251,searchDisc5,2021.2.3,59.97004628061398,
images/exp2a_trial_235_colour3_distractors4_r.png,r,3,3,4,0,,,,,0,39,39,39,,,,,,,,,,,,,,,,,,,,,,,,,,,,,,,,,,,,,,,,,,,243.5053564000009,None,2,0.4229446649987949,243.5053564000009,None,,,,,,,,,,,,,,,,None,None,None,,None,None,243.97023142200123,None,3,1,0.7023471829998016,243.97023142200123,None,244.67008267280252,None,None,None,None,,6,001,2022_Dec_13_1251,searchDisc5,2021.2.3,59.97004628061398,
images/exp2a_trial_109_colour3_distractors19_r.png,r,3,3,19,0,,,,,0,40,40,40,,,,,,,,,,,,,,,,,,,,,,,,,,,,,,,,,,,,,,,,,,,244.6887320650021,None,2,0.32310812799914856,244.6887320650021,None,,,,,,,,,,,,,,,,None,None,None,,None,None,245.05549624700143,None,3,1,0.7834741240003495,245.05549624700143,None,245.83687175680242,None,None,None,None,,6,001,2022_Dec_13_1251,searchDisc5,2021.2.3,59.97004628061398,
images/exp1a_trial_48_colour1_distractors4_l.png,l,1,1,4,0,,,,,0,41,41,41,,,,,,,,,,,,,,,,,,,,,,,,,,,,,,,,,,,,,,,,,,,245.85308251800234,None,2,0.3378670060010336,245.85308251800234,None,,,,,,,,,,,,,,,,None,None,None,,None,None,246.2370930290017,None,1,1,0.5377458469993144,246.2370930290017,None,246.77028923379984,None,None,None,None,,6,001,2022_Dec_13_1251,searchDisc5,2021.2.3,59.97004628061398,
images/exp2c_trial_288_colour1_distractors1_r.png,r,3,1,1,0,,,,,0,42,42,42,,,,,,,,,,,,,,,,,,,,,,,,,,,,,,,,,,,,,,,,,,,246.7865578960009,None,2,0.3710718500005896,246.7865578960009,None,,,,,,,,,,,,,,,,None,None,None,,None,None,247.20381445400199,None,3,1,0.6409710500010988,247.20381445400199,None,247.83707975480283,None,None,None,None,,6,001,2022_Dec_13_1251,searchDisc5,2021.2.3,59.97004628061398,
images/exp2b_trial_163_colour1_distractors19_r.png,r,3,1,19,0,,,,,0,43,43,43,,,,,,,,,,,,,,,,,,,,,,,,,,,,,,,,,,,,,,,,,,,247.85305650500231,None,2,0.31869227800052613,247.85305650500231,None,,,,,,,,,,,,,,,,None,None,None,,None,None,248.2205652470002,None,3,1,0.6530613920003816,248.2205652470002,None,248.87024401980088,None,None,None,None,,6,001,2022_Dec_13_1251,searchDisc5,2021.2.3,59.97004628061398,
images/exp2b_trial_183_colour2_distractors19_l.png,l,1,2,19,0,,,,,0,44,44,44,,,,,,,,,,,,,,,,,,,,,,,,,,,,,,,,,,,,,,,,,,,248.8890567080016,None,2,0.25390430700281286,248.8890567080016,None,,,,,,,,,,,,,,,,None,None,None,,None,None,249.18688864599972,None,1,1,0.5363716989995737,249.18688864599972,None,249.72018893280037,None,None,None,None,,6,001,2022_Dec_13_1251,searchDisc5,2021.2.3,59.97004628061398,
images/exp1a_trial_167_colour2_distractors9_r.png,r,3,2,9,0,,,,,0,45,45,45,,,,,,,,,,,,,,,,,,,,,,,,,,,,,,,,,,,,,,,,,,,249.73703908600146,None,2,0.3543658489979862,249.73703908600146,None,,,,,,,,,,,,,,,,None,None,None,,None,None,250.13708809500167,None,3,1,0.5530132209969452,250.13708809500167,None,250.6868722228006,None,None,None,None,,6,001,2022_Dec_13_1251,searchDisc5,2021.2.3,59.97004628061398,
images/exp2c_trial_275_colour1_distractors31_l.png,l,1,1,31,0,,,,,0,46,46,46,,,,,,,,,,,,,,,,,,,,,,,,,,,,,,,,,,,,,,,,,,,250.70555798600253,None,2,0.3545986129975063,250.70555798600253,None,,,,,,,,,,,,,,,,None,None,None,,None,None,251.10531501300284,None,1,1,0.45178351600043243,251.10531501300284,None,251.5537815868025,None,None,None,None,,6,001,2022_Dec_13_1251,searchDisc5,2021.2.3,59.97004628061398,
images/exp2b_trial_143_colour1_distractors1_l.png,l,1,1,1,0,,,,,0,47,47,47,,,,,,,,,,,,,,,,,,,,,,,,,,,,,,,,,,,,,,,,,,,251.56980744199973,None,2,0.37099727599706966,251.56980744199973,None,,,,,,,,,,,,,,,,None,None,None,,None,None,251.98645877200033,None,1,1,0.45482907200130285,251.98645877200033,None,252.4362055398029,None,None,None,None,,6,001,2022_Dec_13_1251,searchDisc5,2021.2.3,59.97004628061398,
images/exp1a_trial_172_colour3_distractors9_r.png,r,3,3,9,0,,,,,0,48,48,48,,,,,,,,,,,,,,,,,,,,,,,,,,,,,,,,,,,,,,,,,,,252.45363825000095,None,2,0.33840904500175384,252.45363825000095,None,,,,,,,,,,,,,,,,None,None,None,,None,None,252.83908608500133,None,3,1,0.5199725189995661,252.83908608500133,None,253.35370038680193,None,None,None,None,,6,001,2022_Dec_13_1251,searchDisc5,2021.2.3,59.97004628061398,
images/exp2a_trial_229_colour2_distractors1_r.png,r,3,2,1,0,,,,,0,49,49,49,,,,,,,,,,,,,,,,,,,,,,,,,,,,,,,,,,,,,,,,,,,253.37020075799956,None,2,0.2710215799997968,253.37020075799956,None,,,,,,,,,,,,,,,,None,None,None,,None,None,253.68713686000046,None,3,1,0.6551488199984306,253.68713686000046,None,254.33715177280246,None,None,None,None,,6,001,2022_Dec_13_1251,searchDisc5,2021.2.3,59.97004628061398,
images/exp2b_trial_57_colour3_distractors1_l.png,l,1,3,1,0,,,,,0,50,50,50,,,,,,,,,,,,,,,,,,,,,,,,,,,,,,,,,,,,,,,,,,,254.3535423630019,None,2,0.25643901000148617,254.3535423630019,None,,,,,,,,,,,,,,,,None,None,None,,None,None,254.65396238700123,None,1,1,0.5885404609980469,254.65396238700123,None,255.23673767080035,None,None,None,None,,6,001,2022_Dec_13_1251,searchDisc5,2021.2.3,59.97004628061398,
images/exp1a_trial_90_colour3_distractors4_l.png,l,1,3,4,0,,,,,0,51,51,51,,,,,,,,,,,,,,,,,,,,,,,,,,,,,,,,,,,,,,,,,,,255.25301775499975,None,2,0.2863468819996342,255.25301775499975,None,,,,,,,,,,,,,,,,None,None,None,,None,None,255.5866608710021,None,1,1,0.7209725409993553,255.5866608710021,None,256.3037099178015,None,None,None,None,,6,001,2022_Dec_13_1251,searchDisc5,2021.2.3,59.97004628061398,
images/exp2a_trial_169_colour2_distractors31_r.png,r,3,2,31,0,,,,,0,52,52,52,,,,,,,,,,,,,,,,,,,,,,,,,,,,,,,,,,,,,,,,,,,256.32020600800024,None,2,0.25455689700174844,256.32020600800024,None,,,,,,,,,,,,,,,,None,None,None,,None,None,256.63700003100166,None,3,1,0.774471643002471,256.63700003100166,None,257.4038512478015,None,None,None,None,,6,001,2022_Dec_13_1251,searchDisc5,2021.2.3,59.97004628061398,
images/exp1a_trial_119_colour2_distractors19_l.png,l,1,2,19,0,,,,,0,53,53,53,,,,,,,,,,,,,,,,,,,,,,,,,,,,,,,,,,,,,,,,,,,257.4197700420009,None,2,0.28712546300084796,257.4197700420009,None,,,,,,,,,,,,,,,,None,None,None,,None,None,257.7534199590009,None,1,1,0.5830889680000837,257.7534199590009,None,258.3371171278028,None,None,None,None,,6,001,2022_Dec_13_1251,searchDisc5,2021.2.3,59.97004628061398,
images/exp1a_trial_39_colour2_distractors9_r.png,r,3,2,9,0,,,,,0,54,54,54,,,,,,,,,,,,,,,,,,,,,,,,,,,,,,,,,,,,,,,,,,,258.35575184200206,None,2,0.2545701859999099,258.35575184200206,None,,,,,,,,,,,,,,,,None,None,None,,None,None,258.653309229001,None,3,1,0.5861434479993477,258.653309229001,None,259.2373329588023,None,None,None,None,,6,001,2022_Dec_13_1251,searchDisc5,2021.2.3,59.97004628061398,
images/exp2b_trial_263_colour2_distractors9_r.png,r,3,2,9,0,,,,,0,55,55,55,,,,,,,,,,,,,,,,,,,,,,,,,,,,,,,,,,,,,,,,,,,259.25374979200205,None,2,0.27319297500071116,259.25374979200205,None,,,,,,,,,,,,,,,,None,None,None,,None,None,259.57102528900214,None,3,1,0.5673468380009581,259.57102528900214,None,260.137132312802,None,None,None,None,,6,001,2022_Dec_13_1251,searchDisc5,2021.2.3,59.97004628061398,
images/exp2c_trial_251_colour3_distractors9_l.png,l,1,3,9,0,,,,,0,56,56,56,,,,,,,,,,,,,,,,,,,,,,,,,,,,,,,,,,,,,,,,,,,260.1536862810026,None,2,0.22395876700102235,260.1536862810026,None,,,,,,,,,,,,,,,,None,None,None,,None,None,260.42273127200315,None,1,1,0.5342015089991037,260.42273127200315,None,260.9534573167999,None,None,None,None,,6,001,2022_Dec_13_1251,searchDisc5,2021.2.3,59.97004628061398,
images/exp2b_trial_26_colour3_distractors4_l.png,l,1,3,4,0,,,,,0,57,57,57,,,,,,,,,,,,,,,,,,,,,,,,,,,,,,,,,,,,,,,,,,,260.96991993100164,None,2,0.3547627769985411,260.96991993100164,None,,,,,,,,,,,,,,,,None,None,None,,None,None,261.3708194070023,None,1,1,0.4882487949980714,261.3708194070023,None,261.8539832717994,None,None,None,None,,6,001,2022_Dec_13_1251,searchDisc5,2021.2.3,59.97004628061398,
images/exp2c_trial_56_colour2_distractors31_l.png,l,1,2,31,0,,,,,0,58,58,58,,,,,,,,,,,,,,,,,,,,,,,,,,,,,,,,,,,,,,,,,,,261.87243384500107,None,2,0.2876819090015488,261.87243384500107,None,,,,,,,,,,,,,,,,None,None,None,,None,None,262.2040386910012,None,1,1,0.8189662889999454,262.2040386910012,None,263.02082556480093,None,None,None,None,,6,001,2022_Dec_13_1251,searchDisc5,2021.2.3,59.97004628061398,
images/exp2a_trial_125_colour3_distractors31_l.png,l,1,3,31,0,,,,,0,59,59,59,,,,,,,,,,,,,,,,,,,,,,,,,,,,,,,,,,,,,,,,,,,263.0373898860016,None,2,0.18744911700196099,263.0373898860016,None,,,,,,,,,,,,,,,,None,None,None,,None,None,263.2728514110022,None,1,1,0.7024884709971957,263.2728514110022,None,263.97078652580024,None,None,None,None,,6,001,2022_Dec_13_1251,searchDisc5,2021.2.3,59.97004628061398,
images/exp2c_trial_49_colour1_distractors9_l.png,l,1,1,9,0,,,,,0,60,60,60,,,,,,,,,,,,,,,,,,,,,,,,,,,,,,,,,,,,,,,,,,,263.9873394040005,None,2,0.25621440499890014,263.9873394040005,None,,,,,,,,,,,,,,,,None,None,None,,None,None,264.2894709100001,None,1,1,0.6021912969990808,264.2894709100001,None,264.8873539678003,None,None,None,None,,6,001,2022_Dec_13_1251,searchDisc5,2021.2.3,59.97004628061398,
images/exp2b_trial_262_colour2_distractors4_r.png,r,3,2,4,0,,,,,0,61,61,61,,,,,,,,,,,,,,,,,,,,,,,,,,,,,,,,,,,,,,,,,,,264.9060864400017,None,2,0.25455224699908285,264.9060864400017,None,,,,,,,,,,,,,,,,None,None,None,,None,None,265.20427669499986,None,3,1,0.821526884999912,265.20427669499986,None,266.0208646488005,None,None,None,None,,6,001,2022_Dec_13_1251,searchDisc5,2021.2.3,59.97004628061398,
images/exp2b_trial_255_colour0_distractors0_l.png,l,1,0,0,0,,,,,0,62,62,62,,,,,,,,,,,,,,,,,,,,,,,,,,,,,,,,,,,,,,,,,,,266.03937563,None,2,0.38984590400286834,266.03937563,None,,,,,,,,,,,,,,,,None,None,None,,None,None,266.4730172160016,None,1,1,0.4703591030011012,266.4730172160016,None,266.9374461178028,None,None,None,None,,6,001,2022_Dec_13_1251,searchDisc5,2021.2.3,59.97004628061398,
images/exp2c_trial_35_colour1_distractors19_r.png,r,3,1,19,0,,,,,0,63,63,63,,,,,,,,,,,,,,,,,,,,,,,,,,,,,,,,,,,,,,,,,,,266.95385120500214,None,2,0.32092685000316123,266.95385120500214,None,,,,,,,,,,,,,,,,None,None,None,,None,None,267.3211038290028,None,3,1,0.8540331099975447,267.3211038290028,None,268.1707452988027,None,None,None,None,,6,001,2022_Dec_13_1251,searchDisc5,2021.2.3,59.97004628061398,
images/exp2b_trial_170_colour3_distractors1_r.png,r,3,3,1,0,,,,,0,64,64,64,,,,,,,,,,,,,,,,,,,,,,,,,,,,,,,,,,,,,,,,,,,268.18723126400073,None,2,0.3358745680016,268.18723126400073,None,,,,,,,,,,,,,,,,None,None,None,,None,None,268.57121230100165,None,1,0,0.437273092000396,268.57121230100165,None,269.0037395578016,None,None,None,None,,6,001,2022_Dec_13_1251,searchDisc5,2021.2.3,59.97004628061398,
images/exp1a_trial_224_colour1_distractors1_r.png,r,3,1,1,0,,,,,0,65,65,65,,,,,,,,,,,,,,,,,,,,,,,,,,,,,,,,,,,,,,,,,,,269.0200971869999,None,2,0.7058142610003415,269.0200971869999,None,,,,,,,,,,,,,,,,None,None,None,,None,None,269.7711012660002,None,3,1,0.520408132000739,269.7711012660002,None,270.28743429680037,None,None,None,None,,6,001,2022_Dec_13_1251,searchDisc5,2021.2.3,59.97004628061398,
images/exp2c_trial_30_colour0_distractors0_r.png,r,3,0,0,0,,,,,0,66,66,66,,,,,,,,,,,,,,,,,,,,,,,,,,,,,,,,,,,,,,,,,,,270.30410275500253,None,2,0.30401241399886203,270.30410275500253,None,,,,,,,,,,,,,,,,None,None,None,,None,None,270.6541361590025,None,3,1,0.5227286090012058,270.6541361590025,None,271.1708407448001,None,None,None,None,,6,001,2022_Dec_13_1251,searchDisc5,2021.2.3,59.97004628061398,
images/exp2b_trial_111_colour1_distractors1_l.png,l,1,1,1,0,,,,,0,67,67,67,,,,,,,,,,,,,,,,,,,,,,,,,,,,,,,,,,,,,,,,,,,271.18717708100303,None,2,0.2564241590007441,271.18717708100303,None,,,,,,,,,,,,,,,,None,None,None,,None,None,271.48733703700054,None,1,1,0.7024415390005743,271.48733703700054,None,272.18748771380126,None,None,None,None,,6,001,2022_Dec_13_1251,searchDisc5,2021.2.3,59.97004628061398,
images/exp1a_trial_245_colour2_distractors4_l.png,l,1,2,4,0,,,,,0,68,68,68,,,,,,,,,,,,,,,,,,,,,,,,,,,,,,,,,,,,,,,,,,,272.20411268099997,None,2,0.28665857200030587,272.20411268099997,None,,,,,,,,,,,,,,,,None,None,None,,None,None,272.5378040480027,None,1,1,0.6707211239991011,272.5378040480027,None,273.20431724580124,None,None,None,None,,6,001,2022_Dec_13_1251,searchDisc5,2021.2.3,59.97004628061398,
images/exp1a_trial_44_colour3_distractors9_r.png,r,3,3,9,0,,,,,0,69,69,69,,,,,,,,,,,,,,,,,,,,,,,,,,,,,,,,,,,,,,,,,,,273.2229721270014,None,2,0.2544820869989053,273.2229721270014,None,,,,,,,,,,,,,,,,None,None,None,,None,None,273.52059003700197,None,3,1,0.6369321069978469,273.52059003700197,None,274.1543767888012,None,None,None,None,,6,001,2022_Dec_13_1251,searchDisc5,2021.2.3,59.97004628061398,
images/exp2b_trial_77_colour3_distractors19_r.png,r,3,3,19,0,,,,,0,70,70,70,,,,,,,,,,,,,,,,,,,,,,,,,,,,,,,,,,,,,,,,,,,274.1709143770022,None,2,0.20662172000083956,274.1709143770022,None,,,,,,,,,,,,,,,,None,None,None,,None,None,274.4229888560003,None,3,1,0.6000253109996265,274.4229888560003,None,275.02082110280173,None,None,None,None,,6,001,2022_Dec_13_1251,searchDisc5,2021.2.3,59.97004628061398,
images/exp2b_trial_104_colour2_distractors19_r.png,r,3,2,19,0,,,,,0,71,71,71,,,,,,,,,,,,,,,,,,,,,,,,,,,,,,,,,,,,,,,,,,,275.0394185389996,None,2,0.20649862500067684,275.0394185389996,None,,,,,,,,,,,,,,,,None,None,None,,None,None,275.28743621300237,None,3,1,0.6502029389994277,275.28743621300237,None,275.9375433388028,None,None,None,None,,6,001,2022_Dec_13_1251,searchDisc5,2021.2.3,59.97004628061398,
images/exp2b_trial_174_colour3_distractors31_r.png,r,3,3,31,0,,,,,0,72,72,72,,,,,,,,,,,,,,,,,,,,,,,,,,,,,,,,,,,,,,,,,,,275.954069874002,None,2,0.20426699200106668,275.954069874002,None,,,,,,,,,,,,,,,,None,None,None,,None,None,276.20655128900034,None,3,1,0.5357156300015049,276.20655128900034,None,276.7377881638,None,None,None,None,,6,001,2022_Dec_13_1251,searchDisc5,2021.2.3,59.97004628061398,
images/exp2c_trial_121_colour3_distractors1_l.png,l,1,3,1,0,,,,,0,73,73,73,,,,,,,,,,,,,,,,,,,,,,,,,,,,,,,,,,,,,,,,,,,276.7542485619997,None,2,0.18756794600267312,276.7542485619997,None,,,,,,,,,,,,,,,,None,None,None,,None,None,276.9879559760011,None,1,1,0.6050443710009858,276.9879559760011,None,277.58783548780195,None,None,None,None,,6,001,2022_Dec_13_1251,searchDisc5,2021.2.3,59.97004628061398,
images/exp1a_trial_205_colour3_distractors19_r.png,r,3,3,19,0,,,,,0,74,74,74,,,,,,,,,,,,,,,,,,,,,,,,,,,,,,,,,,,,,,,,,,,277.6041424540017,None,2,0.2710995279994677,277.6041424540017,None,,,,,,,,,,,,,,,,None,None,None,,None,None,277.9210038050005,None,3,1,0.5347052249999251,277.9210038050005,None,278.45437473179993,None,None,None,None,,6,001,2022_Dec_13_1251,searchDisc5,2021.2.3,59.97004628061398,
images/exp2a_trial_192_colour1_distractors1_r.png,r,3,1,1,0,,,,,0,75,75,75,,,,,,,,,,,,,,,,,,,,,,,,,,,,,,,,,,,,,,,,,,,278.4710584929999,None,2,0.18780309499925352,278.4710584929999,None,,,,,,,,,,,,,,,,None,None,None,,None,None,278.7039563310027,None,3,1,0.49100204200294684,278.7039563310027,None,279.1877536258013,None,None,None,None,,6,001,2022_Dec_13_1251,searchDisc5,2021.2.3,59.97004628061398,
images/exp2b_trial_216_colour2_distractors31_l.png,l,1,2,31,0,,,,,0,76,76,76,,,,,,,,,,,,,,,,,,,,,,,,,,,,,,,,,,,,,,,,,,,279.2039746920018,None,2,0.21900823000032688,279.2039746920018,None,,,,,,,,,,,,,,,,None,None,None,,None,None,279.4714378080025,None,1,1,0.6522493970005598,279.4714378080025,None,280.1206110378022,None,None,None,None,,6,001,2022_Dec_13_1251,searchDisc5,2021.2.3,59.97004628061398,
images/exp2b_trial_258_colour1_distractors9_r.png,r,3,1,9,0,,,,,0,77,77,77,,,,,,,,,,,,,,,,,,,,,,,,,,,,,,,,,,,,,,,,,,,280.13975051000307,None,2,0.2881572740006959,280.13975051000307,None,,,,,,,,,,,,,,,,None,None,None,,None,None,280.4713944280011,None,3,1,0.6520356410001114,280.4713944280011,None,281.1210802237998,None,None,None,None,,6,001,2022_Dec_13_1251,searchDisc5,2021.2.3,59.97004628061398,
images/exp2b_trial_259_colour1_distractors19_r.png,r,3,1,19,0,,,,,0,78,78,78,,,,,,,,,,,,,,,,,,,,,,,,,,,,,,,,,,,,,,,,,,,281.13776300000245,None,2,0.2065427859997726,281.13776300000245,None,,,,,,,,,,,,,,,,None,None,None,,None,None,281.39005762000306,None,3,1,0.5836429449991556,281.39005762000306,None,281.971017134803,None,None,None,None,,6,001,2022_Dec_13_1251,searchDisc5,2021.2.3,59.97004628061398,
images/exp1a_trial_25_colour3_distractors1_l.png,l,1,3,1,0,,,,,0,79,79,79,,,,,,,,,,,,,,,,,,,,,,,,,,,,,,,,,,,,,,,,,,,281.98721496000144,None,2,0.18995121199986897,281.98721496000144,None,,,,,,,,,,,,,,,,None,None,None,,None,None,282.2230277560011,None,1,1,0.6201327510025294,282.2230277560011,None,282.83794327580256,None,None,None,None,,6,001,2022_Dec_13_1251,searchDisc5,2021.2.3,59.97004628061398,
images/exp2c_trial_64_colour1_distractors1_r.png,r,3,1,1,0,,,,,0,80,80,80,,,,,,,,,,,,,,,,,,,,,,,,,,,,,,,,,,,,,,,,,,,282.8544777040006,None,2,0.2396685680032533,282.8544777040006,None,,,,,,,,,,,,,,,,None,None,None,,None,None,283.14018260500234,None,3,1,0.6046194589980587,283.14018260500234,None,283.7377956608012,None,None,None,None,,6,001,2022_Dec_13_1251,searchDisc5,2021.2.3,59.97004628061398,
images/exp2a_trial_264_colour2_distractors19_r.png,r,3,2,19,0,,,,,0,81,81,81,,,,,,,,,,,,,,,,,,,,,,,,,,,,,,,,,,,,,,,,,,,283.7561510520027,None,2,0.18908161299987114,283.7561510520027,None,,,,,,,,,,,,,,,,None,None,None,,None,None,283.9930851820027,None,3,1,0.5276935619986034,283.9930851820027,None,284.5207432348012,None,None,None,None,,6,001,2022_Dec_13_1251,searchDisc5,2021.2.3,59.97004628061398,
images/exp1a_trial_168_colour2_distractors19_r.png,r,3,2,19,0,,,,,0,82,82,82,,,,,,,,,,,,,,,,,,,,,,,,,,,,,,,,,,,,,,,,,,,284.53729433800254,None,2,0.20486054499997408,284.53729433800254,None,,,,,,,,,,,,,,,,None,None,None,,None,None,284.7897303339996,None,3,1,0.8333650670028874,284.7897303339996,None,285.62070584479955,None,None,None,None,,6,001,2022_Dec_13_1251,searchDisc5,2021.2.3,59.97004628061398,
images/exp2c_trial_162_colour1_distractors9_r.png,r,3,1,9,0,,,,,0,83,83,83,,,,,,,,,,,,,,,,,,,,,,,,,,,,,,,,,,,,,,,,,,,285.63714571400124,None,2,0.19051908099936554,285.63714571400124,None,,,,,,,,,,,,,,,,None,None,None,,None,None,285.87321290100226,None,3,1,0.9172658309980761,285.87321290100226,None,286.78789312579977,None,None,None,None,,6,001,2022_Dec_13_1251,searchDisc5,2021.2.3,59.97004628061398,
images/exp2c_trial_195_colour1_distractors19_r.png,r,3,1,19,0,,,,,0,84,84,84,,,,,,,,,,,,,,,,,,,,,,,,,,,,,,,,,,,,,,,,,,,286.80455605000316,None,2,0.1899576470023021,286.80455605000316,None,,,,,,,,,,,,,,,,None,None,None,,None,None,287.03994211400277,None,3,1,0.7511897980002686,287.03994211400277,None,287.7878935358,None,None,None,None,,6,001,2022_Dec_13_1251,searchDisc5,2021.2.3,59.97004628061398,
images/exp1a_trial_303_colour1_distractors1_l.png,l,1,1,1,0,,,,,0,85,85,85,,,,,,,,,,,,,,,,,,,,,,,,,,,,,,,,,,,,,,,,,,,287.80477694900037,None,2,0.1898591099998157,287.80477694900037,None,,,,,,,,,,,,,,,,None,None,None,,None,None,288.0402973470009,None,1,1,0.9700351749997935,288.0402973470009,None,289.0046213378024,None,None,None,None,,6,001,2022_Dec_13_1251,searchDisc5,2021.2.3,59.97004628061398,
images/exp2a_trial_40_colour2_distractors19_r.png,r,3,2,19,0,,,,,0,86,86,86,,,,,,,,,,,,,,,,,,,,,,,,,,,,,,,,,,,,,,,,,,,289.020901529002,None,2,0.2879600329979439,289.020901529002,None,,,,,,,,,,,,,,,,None,None,None,,None,None,289.354905188,None,3,1,0.9967124209979374,289.354905188,None,290.3545825687994,None,None,None,None,,6,001,2022_Dec_13_1251,searchDisc5,2021.2.3,59.97004628061398,
images/exp1a_trial_301_colour3_distractors19_r.png,r,3,3,19,0,,,,,0,87,87,87,,,,,,,,,,,,,,,,,,,,,,,,,,,,,,,,,,,,,,,,,,,290.3713381930029,None,2,0.20452034400295815,290.3713381930029,None,,,,,,,,,,,,,,,,None,None,None,,None,None,290.621722908003,None,3,1,0.5659046270011459,290.621722908003,None,291.188075682801,None,None,None,None,,6,001,2022_Dec_13_1251,searchDisc5,2021.2.3,59.97004628061398,
images/exp2a_trial_257_colour1_distractors4_r.png,r,3,1,4,0,,,,,0,88,88,88,,,,,,,,,,,,,,,,,,,,,,,,,,,,,,,,,,,,,,,,,,,291.20668213500176,None,2,0.17297510400021565,291.20668213500176,None,,,,,,,,,,,,,,,,None,None,None,,None,None,291.4239617790008,None,3,1,0.6526112060018932,291.4239617790008,None,292.0713723837995,None,None,None,None,,6,001,2022_Dec_13_1251,searchDisc5,2021.2.3,59.97004628061398,
images/exp1a_trial_194_colour1_distractors9_r.png,r,3,1,9,0,,,,,0,89,89,89,,,,,,,,,,,,,,,,,,,,,,,,,,,,,,,,,,,,,,,,,,,292.08753557599994,None,2,0.15463064999858034,292.08753557599994,None,,,,,,,,,,,,,,,,None,None,None,,None,None,292.29035476300123,None,3,1,0.6699940039979992,292.29035476300123,None,292.9548006498022,None,None,None,None,,6,001,2022_Dec_13_1251,searchDisc5,2021.2.3,59.97004628061398,
images/exp2c_trial_91_colour3_distractors9_l.png,l,1,3,9,0,,,,,0,90,90,90,,,,,,,,,,,,,,,,,,,,,,,,,,,,,,,,,,,,,,,,,,,292.97136969200074,None,2,0.189883055001701,292.97136969200074,None,,,,,,,,,,,,,,,,None,None,None,,None,None,293.2068544169997,None,1,1,0.6186811690022296,293.2068544169997,None,293.8214358208003,None,None,None,None,,6,001,2022_Dec_13_1251,searchDisc5,2021.2.3,59.97004628061398,
images/exp2b_trial_220_colour3_distractors19_l.png,l,1,3,19,0,,,,,0,91,91,91,,,,,,,,,,,,,,,,,,,,,,,,,,,,,,,,,,,,,,,,,,,293.83776237700295,None,2,0.30416422100097407,293.83776237700295,None,,,,,,,,,,,,,,,,None,None,None,,None,None,294.18811542200274,None,1,1,0.9215641379996669,294.18811542200274,None,295.10477934380253,None,None,None,None,,6,001,2022_Dec_13_1251,searchDisc5,2021.2.3,59.97004628061398,
images/exp2c_trial_39_colour2_distractors9_r.png,r,3,2,9,0,,,,,0,92,92,92,,,,,,,,,,,,,,,,,,,,,,,,,,,,,,,,,,,,,,,,,,,295.12284793800063,None,2,0.23776451899902895,295.12284793800063,None,,,,,,,,,,,,,,,,None,None,None,,None,None,295.4044839140006,None,3,1,0.6034096120019967,295.4044839140006,None,296.00485511680165,None,None,None,None,,6,001,2022_Dec_13_1251,searchDisc5,2021.2.3,59.97004628061398,
images/exp2a_trial_224_colour1_distractors1_r.png,r,3,1,1,0,,,,,0,93,93,93,,,,,,,,,,,,,,,,,,,,,,,,,,,,,,,,,,,,,,,,,,,296.0229256650018,None,2,0.21985221800059662,296.0229256650018,None,,,,,,,,,,,,,,,,None,None,None,,None,None,296.28804105400195,None,3,1,0.7390104299993254,296.28804105400195,None,297.02174021780013,None,None,None,None,,6,001,2022_Dec_13_1251,searchDisc5,2021.2.3,59.97004628061398,
images/exp1a_trial_104_colour2_distractors19_r.png,r,3,2,19,0,,,,,0,94,94,94,,,,,,,,,,,,,,,,,,,,,,,,,,,,,,,,,,,,,,,,,,,297.03821391600286,None,2,0.15396999499716912,297.03821391600286,None,,,,,,,,,,,,,,,,None,None,None,,None,None,297.240651195003,None,3,1,0.7027578209999774,297.240651195003,None,297.9382012268012,None,None,None,None,,6,001,2022_Dec_13_1251,searchDisc5,2021.2.3,59.97004628061398,
images/exp2b_trial_237_colour3_distractors19_r.png,r,3,3,19,0,,,,,0,95,95,95,,,,,,,,,,,,,,,,,,,,,,,,,,,,,,,,,,,,,,,,,,,297.9545231230004,None,2,0.15342973499718937,297.9545231230004,None,,,,,,,,,,,,,,,,None,None,None,,None,None,298.1545014630028,None,3,1,0.7520881549971818,298.1545014630028,None,298.90492223180047,None,None,None,None,,6,001,2022_Dec_13_1251,searchDisc5,2021.2.3,59.97004628061398,
images/exp1a_trial_211_colour1_distractors31_l.png,l,1,1,31,0,,,,,0,96,96,96,,,,,,,,,,,,,,,,,,,,,,,,,,,,,,,,,,,,,,,,,,,298.9233877180013,None,2,0.1752851719975297,298.9233877180013,None,,,,,,,,,,,,,,,,None,None,None,,None,None,299.1442503170001,None,1,1,1.0434486489975825,299.1442503170001,None,300.1875888348019,None,None,None,None,,6,001,2022_Dec_13_1251,searchDisc5,2021.2.3,59.97004628061398,
images/exp2a_trial_208_colour1_distractors4_l.png,l,1,1,4,0,,,,,0,97,97,97,,,,,,,,,,,,,,,,,,,,,,,,,,,,,,,,,,,,,,,,,,,300.20497755700126,None,2,0.1880563049999182,300.20497755700126,None,,,,,,,,,,,,,,,,None,None,None,,None,None,300.4403995540015,None,1,1,0.6049078699979873,300.4403995540015,None,301.03830991180223,None,None,None,None,,6,001,2022_Dec_13_1251,searchDisc5,2021.2.3,59.97004628061398,
images/exp2a_trial_292_colour1_distractors31_r.png,r,3,1,31,0,,,,,0,98,98,98,,,,,,,,,,,,,,,,,,,,,,,,,,,,,,,,,,,,,,,,,,,301.056964116,None,2,0.22122605700133136,301.056964116,None,,,,,,,,,,,,,,,,None,None,None,,None,None,301.32203193500027,None,3,1,0.6182947800007241,301.32203193500027,None,301.9386120508003,None,None,None,None,,6,001,2022_Dec_13_1251,searchDisc5,2021.2.3,59.97004628061398,
images/exp2c_trial_53_colour2_distractors4_l.png,l,1,2,4,0,,,,,0,99,99,99,,,,,,,,,,,,,,,,,,,,,,,,,,,,,,,,,,,,,,,,,,,301.9549786280004,None,2,0.1543938530012383,301.9549786280004,None,,,,,,,,,,,,,,,,None,None,None,,None,None,302.1553381289996,None,1,1,0.6528537689991936,302.1553381289996,None,302.80508411880294,None,None,None,None,,6,001,2022_Dec_13_1251,searchDisc5,2021.2.3,59.97004628061398,
images/exp1a_trial_306_colour1_distractors19_l.png,l,1,1,19,0,,,,,0,100,100,100,,,,,,,,,,,,,,,,,,,,,,,,,,,,,,,,,,,,,,,,,,,302.82168845400156,None,2,0.20602230799704557,302.82168845400156,None,,,,,,,,,,,,,,,,None,None,None,,None,None,303.0740393140004,None,1,1,0.6645005810023576,303.0740393140004,None,303.7383174178009,None,None,None,None,,6,001,2022_Dec_13_1251,searchDisc5,2021.2.3,59.97004628061398,
images/exp2c_trial_24_colour2_distractors31_l.png,l,1,2,31,0,,,,,0,101,101,101,,,,,,,,,,,,,,,,,,,,,,,,,,,,,,,,,,,,,,,,,,,303.7549955530012,None,2,0.1896340110033634,303.7549955530012,None,,,,,,,,,,,,,,,,None,None,None,,None,None,303.9905817260005,None,1,1,0.6498790140030906,303.9905817260005,None,304.6384082607998,None,None,None,None,,6,001,2022_Dec_13_1251,searchDisc5,2021.2.3,59.97004628061398,
images/exp1a_trial_265_colour2_distractors31_r.png,r,3,2,31,0,,,,,0,102,102,102,,,,,,,,,,,,,,,,,,,,,,,,,,,,,,,,,,,,,,,,,,,304.65492090000043,None,2,0.2251215839969518,304.65492090000043,None,,,,,,,,,,,,,,,,None,None,None,,None,None,304.9275492880006,None,3,1,0.6796463360005873,304.9275492880006,None,305.6051932757997,None,None,None,None,,6,001,2022_Dec_13_1251,searchDisc5,2021.2.3,59.97004628061398,
images/exp1a_trial_139_colour3_distractors4_r.png,r,3,3,4,0,,,,,0,103,103,103,,,,,,,,,,,,,,,,,,,,,,,,,,,,,,,,,,,,,,,,,,,305.6237673249998,None,2,0.1877957199976663,305.6237673249998,None,,,,,,,,,,,,,,,,None,None,None,,None,None,305.85746167800244,None,3,1,0.6016659219967551,305.85746167800244,None,306.45527957080196,None,None,None,None,,6,001,2022_Dec_13_1251,searchDisc5,2021.2.3,59.97004628061398,
images/exp2b_trial_142_colour3_distractors31_r.png,r,3,3,31,0,,,,,0,104,104,104,,,,,,,,,,,,,,,,,,,,,,,,,,,,,,,,,,,,,,,,,,,306.4737345980029,None,2,0.18988923600045382,306.4737345980029,None,,,,,,,,,,,,,,,,None,None,None,,None,None,306.7053821530026,None,3,1,0.8835964170029911,306.7053821530026,None,307.58849446580064,None,None,None,None,,6,001,2022_Dec_13_1251,searchDisc5,2021.2.3,59.97004628061398,
images/exp1a_trial_142_colour3_distractors31_r.png,r,3,3,31,0,,,,,0,105,105,105,,,,,,,,,,,,,,,,,,,,,,,,,,,,,,,,,,,,,,,,,,,307.60536474699984,None,2,0.13985062500069034,307.60536474699984,None,,,,,,,,,,,,,,,,None,None,None,,None,None,307.78864170900124,None,3,1,0.7970710789995792,307.78864170900124,None,308.58846971780224,None,None,None,None,,6,001,2022_Dec_13_1251,searchDisc5,2021.2.3,59.97004628061398,
images/exp2a_trial_194_colour1_distractors9_r.png,r,3,1,9,0,,,,,0,106,106,106,,,,,,,,,,,,,,,,,,,,,,,,,,,,,,,,,,,,,,,,,,,308.6050268760009,None,2,0.15414768099799403,308.6050268760009,None,,,,,,,,,,,,,,,,None,None,None,,None,None,308.8054425480004,None,3,1,0.6033160379993205,308.8054425480004,None,309.4046774188006,None,None,None,None,,6,001,2022_Dec_13_1251,searchDisc5,2021.2.3,59.97004628061398,
images/exp2b_trial_31_colour0_distractors0_l.png,l,1,0,0,0,,,,,0,107,107,107,,,,,,,,,,,,,,,,,,,,,,,,,,,,,,,,,,,,,,,,,,,309.4218606550021,None,2,0.13770579399715643,309.4218606550021,None,,,,,,,,,,,,,,,,None,None,None,,None,None,309.6056037820017,None,1,1,0.5731136539980071,309.6056037820017,None,310.1718881278008,None,None,None,None,,6,001,2022_Dec_13_1251,searchDisc5,2021.2.3,59.97004628061398,
images/exp2c_trial_283_colour3_distractors9_l.png,l,1,3,9,0,,,,,0,108,108,108,,,,,,,,,,,,,,,,,,,,,,,,,,,,,,,,,,,,,,,,,,,310.1884226120019,None,2,0.5899734119993809,310.1884226120019,None,,,,,,,,,,,,,,,,None,None,None,,None,None,310.8234363770025,None,1,1,0.4187958750007965,310.8234363770025,None,311.23866215979945,None,None,None,None,,6,001,2022_Dec_13_1251,searchDisc5,2021.2.3,59.97004628061398,
images/exp2b_trial_90_colour3_distractors4_l.png,l,1,3,4,0,,,,,0,109,109,109,,,,,,,,,,,,,,,,,,,,,,,,,,,,,,,,,,,,,,,,,,,311.2550487330009,None,2,0.35422815999845625,311.2550487330009,None,,,,,,,,,,,,,,,,None,None,None,,None,None,311.65756749700085,None,1,1,0.6725067309998849,311.65756749700085,None,312.32205131779995,None,None,None,None,,6,001,2022_Dec_13_1251,searchDisc5,2021.2.3,59.97004628061398,
images/exp2a_trial_262_colour2_distractors4_r.png,r,3,2,4,0,,,,,0,110,110,110,,,,,,,,,,,,,,,,,,,,,,,,,,,,,,,,,,,,,,,,,,,312.3387190720023,None,2,0.2377291820012033,312.3387190720023,None,,,,,,,,,,,,,,,,None,None,None,,None,None,312.6222042400004,None,3,1,0.7028085759993701,312.6222042400004,None,313.3220669738017,None,None,None,None,,6,001,2022_Dec_13_1251,searchDisc5,2021.2.3,59.97004628061398,
images/exp1a_trial_254_colour0_distractors0_r.png,r,3,0,0,0,,,,,0,111,111,111,,,,,,,,,,,,,,,,,,,,,,,,,,,,,,,,,,,,,,,,,,,313.3385157800003,None,2,0.1875734690001991,313.3385157800003,None,,,,,,,,,,,,,,,,None,None,None,,None,None,313.5742833149998,None,1,0,0.48729650799941737,313.5742833149998,None,314.0547863998014,None,None,None,None,,6,001,2022_Dec_13_1251,searchDisc5,2021.2.3,59.97004628061398,
images/exp2c_trial_122_colour3_distractors4_l.png,l,1,3,4,0,,,,,0,112,112,112,,,,,,,,,,,,,,,,,,,,,,,,,,,,,,,,,,,,,,,,,,,314.0719317430012,None,2,1.055030349001754,314.0719317430012,None,,,,,,,,,,,,,,,,None,None,None,,None,None,315.1723058440002,None,1,1,0.5550584529992193,315.1723058440002,None,315.7220229278006,None,None,None,None,,6,001,2022_Dec_13_1251,searchDisc5,2021.2.3,59.97004628061398,
images/exp2a_trial_160_colour1_distractors1_r.png,r,3,1,1,0,,,,,0,113,113,113,,,,,,,,,,,,,,,,,,,,,,,,,,,,,,,,,,,,,,,,,,,315.7385245510013,None,2,0.272959970003285,315.7385245510013,None,,,,,,,,,,,,,,,,None,None,None,,None,None,316.05549398600124,None,3,1,0.5019605500019679,316.05549398600124,None,316.5553985178027,None,None,None,None,,6,001,2022_Dec_13_1251,searchDisc5,2021.2.3,59.97004628061398,
images/exp2b_trial_256_colour1_distractors1_r.png,r,3,1,1,0,,,,,0,114,114,114,,,,,,,,,,,,,,,,,,,,,,,,,,,,,,,,,,,,,,,,,,,316.57183983900177,None,2,0.27113561700025457,316.57183983900177,None,,,,,,,,,,,,,,,,None,None,None,,None,None,316.88923339100074,None,3,1,0.5878568429980078,316.88923339100074,None,317.4715050177998,None,None,None,None,,6,001,2022_Dec_13_1251,searchDisc5,2021.2.3,59.97004628061398,
images/exp2c_trial_0_colour1_distractors1_r.png,r,3,1,1,0,,,,,0,115,115,115,,,,,,,,,,,,,,,,,,,,,,,,,,,,,,,,,,,,,,,,,,,317.4881667430018,None,2,0.1882812269977876,317.4881667430018,None,,,,,,,,,,,,,,,,None,None,None,,None,None,317.7244090940003,None,3,1,0.5885173669994401,317.7244090940003,None,318.3053335558012,None,None,None,None,,6,001,2022_Dec_13_1251,searchDisc5,2021.2.3,59.97004628061398,
images/exp1a_trial_255_colour0_distractors0_l.png,l,1,0,0,0,,,,,0,116,116,116,,,,,,,,,,,,,,,,,,,,,,,,,,,,,,,,,,,,,,,,,,,318.32206880500235,None,2,0.20647155400001793,318.32206880500235,None,,,,,,,,,,,,,,,,None,None,None,,None,None,318.5744600899998,None,1,1,0.8374763780011563,318.5744600899998,None,319.4056259818004,None,None,None,None,,6,001,2022_Dec_13_1251,searchDisc5,2021.2.3,59.97004628061398,
images/exp1a_trial_277_colour2_distractors4_l.png,l,1,2,4,0,,,,,0,117,117,117,,,,,,,,,,,,,,,,,,,,,,,,,,,,,,,,,,,,,,,,,,,319.4218539499998,None,2,0.206496230999619,319.4218539499998,None,,,,,,,,,,,,,,,,None,None,None,,None,None,319.6737646950023,None,1,1,0.6353448400004709,319.6737646950023,None,320.3055301198016,None,None,None,None,,6,001,2022_Dec_13_1251,searchDisc5,2021.2.3,59.97004628061398,
images/exp2c_trial_32_colour1_distractors1_r.png,r,3,1,1,0,,,,,0,118,118,118,,,,,,,,,,,,,,,,,,,,,,,,,,,,,,,,,,,,,,,,,,,320.32170297700213,None,2,0.1878100549984083,320.32170297700213,None,,,,,,,,,,,,,,,,None,None,None,,None,None,320.55744105300255,None,3,1,0.7721917529997882,320.55744105300255,None,321.3222530498002,None,None,None,None,,6,001,2022_Dec_13_1251,searchDisc5,2021.2.3,59.97004628061398,
images/exp2a_trial_74_colour3_distractors1_r.png,r,3,3,1,0,,,,,0,119,119,119,,,,,,,,,,,,,,,,,,,,,,,,,,,,,,,,,,,,,,,,,,,321.340700079003,None,2,0.17320009600007324,321.340700079003,None,,,,,,,,,,,,,,,,None,None,None,,None,None,321.5575499350016,None,3,1,0.6364681559971359,321.5575499350016,None,322.18880538180167,None,None,None,None,,6,001,2022_Dec_13_1251,searchDisc5,2021.2.3,59.97004628061398,
images/exp2b_trial_63_colour0_distractors0_l.png,l,1,0,0,0,,,,,0,120,120,120,,,,,,,,,,,,,,,,,,,,,,,,,,,,,,,,,,,,,,,,,,,322.20514270200147,None,2,0.1711684010006138,322.20514270200147,None,,,,,,,,,,,,,,,,None,None,None,,None,None,322.4248601060026,None,1,1,0.6544373809992976,322.4248601060026,None,323.072041321802,None,None,None,None,,6,001,2022_Dec_13_1251,searchDisc5,2021.2.3,59.97004628061398,
images/exp2c_trial_15_colour1_distractors1_l.png,l,1,1,1,0,,,,,0,121,121,121,,,,,,,,,,,,,,,,,,,,,,,,,,,,,,,,,,,,,,,,,,,323.0897238489997,None,2,0.17124559500007308,323.0897238489997,None,,,,,,,,,,,,,,,,None,None,None,,None,None,323.30775740800163,None,1,1,0.7407130179999513,323.30775740800163,None,324.0390319198028,None,None,None,None,,6,001,2022_Dec_13_1251,searchDisc5,2021.2.3,59.97004628061398,
images/exp1a_trial_210_colour1_distractors19_l.png,l,1,1,19,0,,,,,0,122,122,122,,,,,,,,,,,,,,,,,,,,,,,,,,,,,,,,,,,,,,,,,,,324.0551934730029,None,2,0.18800250600179425,324.0551934730029,None,,,,,,,,,,,,,,,,None,None,None,,None,None,324.2914364240023,None,1,1,0.7977568679998512,324.2914364240023,None,325.08920252979954,None,None,None,None,,6,001,2022_Dec_13_1251,searchDisc5,2021.2.3,59.97004628061398,
images/exp1a_trial_161_colour1_distractors4_r.png,r,3,1,4,0,,,,,0,123,123,123,,,,,,,,,,,,,,,,,,,,,,,,,,,,,,,,,,,,,,,,,,,325.1047853930031,None,2,0.23974298399843974,325.1047853930031,None,,,,,,,,,,,,,,,,None,None,None,,None,None,325.3915947100031,None,3,1,0.6850284389984154,325.3915947100031,None,326.0725523808011,None,None,None,None,,6,001,2022_Dec_13_1251,searchDisc5,2021.2.3,59.97004628061398,
images/exp2c_trial_236_colour3_distractors9_r.png,r,3,3,9,0,,,,,0,124,124,124,,,,,,,,,,,,,,,,,,,,,,,,,,,,,,,,,,,,,,,,,,,326.0919659840001,None,2,0.17540324699803023,326.0919659840001,None,,,,,,,,,,,,,,,,None,None,None,,None,None,326.30612143700273,None,3,1,0.7153761830013536,326.30612143700273,None,327.02240305880116,None,None,None,None,,6,001,2022_Dec_13_1251,searchDisc5,2021.2.3,59.97004628061398,
images/exp2c_trial_34_colour1_distractors9_r.png,r,3,1,9,0,,,,,0,125,125,125,,,,,,,,,,,,,,,,,,,,,,,,,,,,,,,,,,,,,,,,,,,327.0398116329998,None,2,0.2379136399977142,327.0398116329998,None,,,,,,,,,,,,,,,,None,None,None,,None,None,327.32305532100145,None,3,1,0.7050239679992956,327.32305532100145,None,328.0235216308007,None,None,None,None,,6,001,2022_Dec_13_1251,searchDisc5,2021.2.3,59.97004628061398,
images/exp2b_trial_177_colour1_distractors9_l.png,l,1,1,9,0,,,,,0,126,126,126,,,,,,,,,,,,,,,,,,,,,,,,,,,,,,,,,,,,,,,,,,,328.0419573390027,None,2,0.2377811179976561,328.0419573390027,None,,,,,,,,,,,,,,,,None,None,None,,None,None,328.32348493800237,None,1,1,0.8700204330016277,328.32348493800237,None,329.1892831088022,None,None,None,None,,6,001,2022_Dec_13_1251,searchDisc5,2021.2.3,59.97004628061398,
images/exp2a_trial_268_colour3_distractors9_r.png,r,3,3,9,0,,,,,0,127,127,127,,,,,,,,,,,,,,,,,,,,,,,,,,,,,,,,,,,,,,,,,,,329.2067442360021,None,2,0.23787019999872427,329.2067442360021,None,,,,,,,,,,,,,,,,None,None,None,,None,None,329.49038649900103,None,3,1,0.7865624339974602,329.49038649900103,None,330.2724717327998,None,None,None,None,,6,001,2022_Dec_13_1251,searchDisc5,2021.2.3,59.97004628061398,
images/exp1a_trial_193_colour1_distractors4_r.png,r,3,1,4,0,,,,,0,128,128,128,,,,,,,,,,,,,,,,,,,,,,,,,,,,,,,,,,,,,,,,,,,330.2899244470027,None,2,0.22124977800194756,330.2899244470027,None,,,,,,,,,,,,,,,,None,None,None,,None,None,330.5588926340024,None,3,1,0.8541524200009007,330.5588926340024,None,331.40593031180254,None,None,None,None,,6,001,2022_Dec_13_1251,searchDisc5,2021.2.3,59.97004628061398,
images/exp1a_trial_288_colour1_distractors1_r.png,r,3,1,1,0,,,,,0,129,129,129,,,,,,,,,,,,,,,,,,,,,,,,,,,,,,,,,,,,,,,,,,,331.4248397850024,None,2,0.2066192160018545,331.4248397850024,None,,,,,,,,,,,,,,,,None,None,None,,None,None,331.6737144819999,None,3,1,0.5873988929997722,331.6737144819999,None,332.2569638727997,None,None,None,None,,6,001,2022_Dec_13_1251,searchDisc5,2021.2.3,59.97004628061398,
images/exp1a_trial_169_colour2_distractors31_r.png,r,3,2,31,0,,,,,0,130,130,130,,,,,,,,,,,,,,,,,,,,,,,,,,,,,,,,,,,,,,,,,,,332.2726009329999,None,2,0.22015479699985008,332.2726009329999,None,,,,,,,,,,,,,,,,None,None,None,,None,None,332.54034951200083,None,3,1,0.7658683579975332,332.54034951200083,None,333.30601473080026,None,None,None,None,,6,001,2022_Dec_13_1251,searchDisc5,2021.2.3,59.97004628061398,
images/exp2b_trial_120_colour2_distractors31_l.png,l,1,2,31,0,,,,,0,131,131,131,,,,,,,,,,,,,,,,,,,,,,,,,,,,,,,,,,,,,,,,,,,333.3252650989998,None,2,0.19056451900178217,333.3252650989998,None,,,,,,,,,,,,,,,,None,None,None,,None,None,333.5568785320029,None,1,1,0.6992089199993643,333.5568785320029,None,334.25588442980154,None,None,None,None,,6,001,2022_Dec_13_1251,searchDisc5,2021.2.3,59.97004628061398,
images/exp2b_trial_206_colour3_distractors31_r.png,r,3,3,31,0,,,,,0,132,132,132,,,,,,,,,,,,,,,,,,,,,,,,,,,,,,,,,,,,,,,,,,,334.27326809700025,None,2,0.20454509099727147,334.27326809700025,None,,,,,,,,,,,,,,,,None,None,None,,None,None,334.52493330500147,None,3,1,0.7379040430023451,334.52493330500147,None,335.25804053180184,None,None,None,None,,6,001,2022_Dec_13_1251,searchDisc5,2021.2.3,59.97004628061398,
images/exp2b_trial_184_colour2_distractors31_l.png,l,1,2,31,0,,,,,0,133,133,133,,,,,,,,,,,,,,,,,,,,,,,,,,,,,,,,,,,,,,,,,,,335.27478051100115,None,2,0.2018876129986893,335.27478051100115,None,,,,,,,,,,,,,,,,None,None,None,,None,None,335.52501214100266,None,1,1,0.7684526370030653,335.52501214100266,None,336.2892509667996,None,None,None,None,,6,001,2022_Dec_13_1251,searchDisc5,2021.2.3,59.97004628061398,
images/exp2c_trial_318_colour0_distractors0_r.png,r,3,0,0,0,,,,,0,134,134,134,,,,,,,,,,,,,,,,,,,,,,,,,,,,,,,,,,,,,,,,,,,336.3086029090009,None,2,0.23794022299989592,336.3086029090009,None,,,,,,,,,,,,,,,,None,None,None,,None,None,336.5896568890021,None,3,1,0.47338955300074304,336.5896568890021,None,337.05809520580226,None,None,None,None,,6,001,2022_Dec_13_1251,searchDisc5,2021.2.3,59.97004628061398,
images/exp2a_trial_170_colour3_distractors1_r.png,r,3,3,1,0,,,,,0,135,135,135,,,,,,,,,,,,,,,,,,,,,,,,,,,,,,,,,,,,,,,,,,,337.0748043590029,None,2,0.46869204999893554,337.0748043590029,None,,,,,,,,,,,,,,,,None,None,None,,None,None,337.5896174770023,None,3,1,0.4892451539999456,337.5896174770023,None,338.0729002858003,None,None,None,None,,6,001,2022_Dec_13_1251,searchDisc5,2021.2.3,59.97004628061398,
images/exp2a_trial_131_colour1_distractors19_r.png,r,3,1,19,0,,,,,0,136,136,136,,,,,,,,,,,,,,,,,,,,,,,,,,,,,,,,,,,,,,,,,,,338.0904186430016,None,2,0.2403957949973119,338.0904186430016,None,,,,,,,,,,,,,,,,None,None,None,,None,None,338.3744482350012,None,3,1,0.6339925789980043,338.3744482350012,None,339.00717902280087,None,None,None,None,,6,001,2022_Dec_13_1251,searchDisc5,2021.2.3,59.97004628061398,
images/exp1a_trial_102_colour2_distractors4_r.png,r,3,2,4,0,,,,,0,137,137,137,,,,,,,,,,,,,,,,,,,,,,,,,,,,,,,,,,,,,,,,,,,339.0227108800027,None,2,0.1694858849987213,339.0227108800027,None,,,,,,,,,,,,,,,,None,None,None,,None,None,339.24262493100105,None,3,1,0.7719797559984727,339.24262493100105,None,340.00616132380094,None,None,None,None,,6,001,2022_Dec_13_1251,searchDisc5,2021.2.3,59.97004628061398,
images/exp1a_trial_166_colour2_distractors4_r.png,r,3,2,4,0,,,,,0,138,138,138,,,,,,,,,,,,,,,,,,,,,,,,,,,,,,,,,,,,,,,,,,,340.024060816002,None,2,0.18865987900062464,340.024060816002,None,,,,,,,,,,,,,,,,None,None,None,,None,None,340.25654792000205,None,3,1,0.9194239790012944,340.25654792000205,None,341.1738354448004,None,None,None,None,,6,001,2022_Dec_13_1251,searchDisc5,2021.2.3,59.97004628061398,
images/exp1a_trial_284_colour3_distractors19_l.png,l,1,3,19,0,,,,,0,139,139,139,,,,,,,,,,,,,,,,,,,,,,,,,,,,,,,,,,,,,,,,,,,341.19020899099996,None,2,0.13768275500115124,341.19020899099996,None,,,,,,,,,,,,,,,,None,None,None,,None,None,341.37517556400053,None,1,1,0.6989967369991064,341.37517556400053,None,342.07265922880254,None,None,None,None,,6,001,2022_Dec_13_1251,searchDisc5,2021.2.3,59.97004628061398,
images/exp2b_trial_70_colour2_distractors4_r.png,r,3,2,4,0,,,,,0,140,140,140,,,,,,,,,,,,,,,,,,,,,,,,,,,,,,,,,,,,,,,,,,,342.0916183690024,None,2,0.2075796810022439,342.0916183690024,None,,,,,,,,,,,,,,,,None,None,None,,None,None,342.34179922100157,None,3,1,0.7009959880015231,342.34179922100157,None,343.03881155679994,None,None,None,None,,6,001,2022_Dec_13_1251,searchDisc5,2021.2.3,59.97004628061398,
images/exp1a_trial_137_colour2_distractors31_r.png,r,3,2,31,0,,,,,0,141,141,141,,,,,,,,,,,,,,,,,,,,,,,,,,,,,,,,,,,,,,,,,,,343.0557948599999,None,2,0.10526358700008132,343.0557948599999,None,,,,,,,,,,,,,,,,None,None,None,,None,None,343.20647904600264,None,3,1,0.9150772829998459,343.20647904600264,None,344.1220637968014,None,None,None,None,,6,001,2022_Dec_13_1251,searchDisc5,2021.2.3,59.97004628061398,
images/exp1a_trial_182_colour2_distractors9_l.png,l,1,2,9,0,,,,,0,142,142,142,,,,,,,,,,,,,,,,,,,,,,,,,,,,,,,,,,,,,,,,,,,344.14024958200025,None,2,0.10631974500211072,344.14024958200025,None,,,,,,,,,,,,,,,,None,None,None,,None,None,344.290245643002,None,1,1,0.751787962999515,344.290245643002,None,345.03947432380085,None,None,None,None,,6,001,2022_Dec_13_1251,searchDisc5,2021.2.3,59.97004628061398,
images/exp2a_trial_3_colour1_distractors19_r.png,r,3,1,19,0,,,,,0,143,143,143,,,,,,,,,,,,,,,,,,,,,,,,,,,,,,,,,,,,,,,,,,,345.05901594900206,None,2,0.13865650799925788,345.05901594900206,None,,,,,,,,,,,,,,,,None,None,None,,None,None,345.2426195450025,None,3,1,0.7868670919997385,345.2426195450025,None,346.0224226428014,None,None,None,None,,6,001,2022_Dec_13_1251,searchDisc5,2021.2.3,59.97004628061398,
images/exp2a_trial_45_colour3_distractors19_r.png,r,3,3,19,0,,,,,0,144,144,144,,,,,,,,,,,,,,,,,,,,,,,,,,,,,,,,,,,,,,,,,,,346.0398971020004,None,2,0.12456523099899641,346.0398971020004,None,,,,,,,,,,,,,,,,None,None,None,,None,None,346.20703648700146,None,3,1,0.7163643250023597,346.20703648700146,None,346.92308248580014,None,None,None,None,,6,001,2022_Dec_13_1251,searchDisc5,2021.2.3,59.97004628061398,
images/exp2c_trial_212_colour2_distractors1_l.png,l,1,2,1,0,,,,,0,145,145,145,,,,,,,,,,,,,,,,,,,,,,,,,,,,,,,,,,,,,,,,,,,346.94037248899986,None,2,0.12108851399898413,346.94037248899986,None,,,,,,,,,,,,,,,,None,None,None,,None,None,347.1085773820014,None,1,1,0.7039509390015155,347.1085773820014,None,347.8058536188015,None,None,None,None,,6,001,2022_Dec_13_1251,searchDisc5,2021.2.3,59.97004628061398,
images/exp2a_trial_6_colour2_distractors4_r.png,r,3,2,4,0,,,,,0,146,146,146,,,,,,,,,,,,,,,,,,,,,,,,,,,,,,,,,,,,,,,,,,,347.82399775500016,None,2,0.22370681900065392,347.82399775500016,None,,,,,,,,,,,,,,,,None,None,None,,None,None,348.09199320300104,None,3,1,0.6681667439988814,348.09199320300104,None,348.75660752179976,None,None,None,None,,6,001,2022_Dec_13_1251,searchDisc5,2021.2.3,59.97004628061398,
images/exp1a_trial_293_colour2_distractors1_r.png,r,3,2,1,0,,,,,0,147,147,147,,,,,,,,,,,,,,,,,,,,,,,,,,,,,,,,,,,,,,,,,,,348.77374208200126,None,2,0.15431331699801376,348.77374208200126,None,,,,,,,,,,,,,,,,None,None,None,,None,None,348.9760771910005,None,3,1,0.7718003299996781,348.9760771910005,None,349.7397151158017,None,None,None,None,,6,001,2022_Dec_13_1251,searchDisc5,2021.2.3,59.97004628061398,
images/exp1a_trial_187_colour3_distractors9_l.png,l,1,3,9,0,,,,,0,148,148,148,,,,,,,,,,,,,,,,,,,,,,,,,,,,,,,,,,,,,,,,,,,349.75844450800287,None,2,0.1544972299998335,349.75844450800287,None,,,,,,,,,,,,,,,,None,None,None,,None,None,349.9596337260009,None,1,1,1.321820648998255,349.9596337260009,None,351.2752620728003,None,None,None,None,,6,001,2022_Dec_13_1251,searchDisc5,2021.2.3,59.97004628061398,
images/exp1a_trial_197_colour2_distractors1_r.png,r,3,2,1,0,,,,,0,149,149,149,,,,,,,,,,,,,,,,,,,,,,,,,,,,,,,,,,,,,,,,,,,351.29167684099957,None,2,0.15319087099851458,351.29167684099957,None,,,,,,,,,,,,,,,,None,None,None,,None,None,351.4899207870003,None,3,1,0.6878046829988307,351.4899207870003,None,352.17329318980194,None,None,None,None,,6,001,2022_Dec_13_1251,searchDisc5,2021.2.3,59.97004628061398,
images/exp1a_trial_95_colour0_distractors0_l.png,l,1,0,0,0,,,,,0,150,150,150,,,,,,,,,,,,,,,,,,,,,,,,,,,,,,,,,,,,,,,,,,,352.1894393790026,None,2,0.13749099300184753,352.1894393790026,None,,,,,,,,,,,,,,,,None,None,None,,None,None,352.3733373440009,None,1,1,2.1222040470020147,352.3733373440009,None,354.4899148808014,None,None,None,None,,6,001,2022_Dec_13_1251,searchDisc5,2021.2.3,59.97004628061398,
images/exp1a_trial_89_colour3_distractors1_l.png,l,1,3,1,0,,,,,0,151,151,151,,,,,,,,,,,,,,,,,,,,,,,,,,,,,,,,,,,,,,,,,,,354.5065909380028,None,2,0.12227677600094466,354.5065909380028,None,,,,,,,,,,,,,,,,None,None,None,,None,None,354.6765919660029,None,1,1,0.6543399420006608,354.6765919660029,None,355.3233746828024,None,None,None,None,,6,001,2022_Dec_13_1251,searchDisc5,2021.2.3,59.97004628061398,
images/exp2b_trial_267_colour3_distractors4_r.png,r,3,3,4,0,,,,,0,152,152,152,,,,,,,,,,,,,,,,,,,,,,,,,,,,,,,,,,,,,,,,,,,355.3399526530011,None,2,0.18788335700082825,355.3399526530011,None,,,,,,,,,,,,,,,,None,None,None,,None,None,355.5749749580027,None,3,1,0.638336062002054,355.5749749580027,None,356.20768077980176,None,None,None,None,,6,001,2022_Dec_13_1251,searchDisc5,2021.2.3,59.97004628061398,
images/exp2c_trial_1_colour1_distractors4_r.png,r,3,1,4,0,,,,,0,153,153,153,,,,,,,,,,,,,,,,,,,,,,,,,,,,,,,,,,,,,,,,,,,356.22400886000105,None,2,0.10428379199947813,356.22400886000105,None,,,,,,,,,,,,,,,,None,None,None,,None,None,356.37646713100185,None,3,1,0.5717037020003772,356.37646713100185,None,356.940871912802,None,None,None,None,,6,001,2022_Dec_13_1251,searchDisc5,2021.2.3,59.97004628061398,
images/exp1a_trial_154_colour3_distractors4_l.png,l,1,3,4,0,,,,,0,154,154,154,,,,,,,,,,,,,,,,,,,,,,,,,,,,,,,,,,,,,,,,,,,356.9586231630019,None,2,0.12095657199824927,356.9586231630019,None,,,,,,,,,,,,,,,,None,None,None,,None,None,357.12432910900316,None,1,1,0.7031661360015278,357.12432910900316,None,357.8233537488028,None,None,None,None,,6,001,2022_Dec_13_1251,searchDisc5,2021.2.3,59.97004628061398,
images/exp2a_trial_188_colour3_distractors19_l.png,l,1,3,19,0,,,,,0,155,155,155,,,,,,,,,,,,,,,,,,,,,,,,,,,,,,,,,,,,,,,,,,,357.84255995700005,None,2,0.17299871599971084,357.84255995700005,None,,,,,,,,,,,,,,,,None,None,None,,None,None,358.058875818002,None,1,1,0.7668286519983667,358.058875818002,None,358.82320949380085,None,None,None,None,,6,001,2022_Dec_13_1251,searchDisc5,2021.2.3,59.97004628061398,
images/exp2b_trial_306_colour1_distractors19_l.png,l,1,1,19,0,,,,,0,156,156,156,,,,,,,,,,,,,,,,,,,,,,,,,,,,,,,,,,,,,,,,,,,358.8420130560007,None,2,0.1379756019996421,358.8420130560007,None,,,,,,,,,,,,,,,,None,None,None,,None,None,359.0265433220011,None,1,1,1.002196091998485,359.0265433220011,None,360.0234244688014,None,None,None,None,,6,001,2022_Dec_13_1251,searchDisc5,2021.2.3,59.97004628061398,
images/exp2c_trial_294_colour2_distractors4_r.png,r,3,2,4,0,,,,,0,157,157,157,,,,,,,,,,,,,,,,,,,,,,,,,,,,,,,,,,,,,,,,,,,360.0411037470003,None,2,0.1542852769998717,360.0411037470003,None,,,,,,,,,,,,,,,,None,None,None,,None,None,360.2423483590028,None,3,1,0.6377010169999267,360.2423483590028,None,360.8733476577996,None,None,None,None,,6,001,2022_Dec_13_1251,searchDisc5,2021.2.3,59.97004628061398,
images/exp2c_trial_189_colour3_distractors31_l.png,l,1,3,31,0,,,,,0,158,158,158,,,,,,,,,,,,,,,,,,,,,,,,,,,,,,,,,,,,,,,,,,,360.89080754800307,None,2,0.12206080500254757,360.89080754800307,None,,,,,,,,,,,,,,,,None,None,None,,None,None,361.057869966,None,1,1,1.1341515609965427,361.057869966,None,362.1900473048023,None,None,None,None,,6,001,2022_Dec_13_1251,searchDisc5,2021.2.3,59.97004628061398,
images/exp1a_trial_85_colour2_distractors4_l.png,l,1,2,4,0,,,,,0,159,159,159,,,,,,,,,,,,,,,,,,,,,,,,,,,,,,,,,,,,,,,,,,,362.2077090870007,None,2,0.1711382270004833,362.2077090870007,None,,,,,,,,,,,,,,,,None,None,None,,None,None,362.4257089090024,None,1,1,0.672661409000284,362.4257089090024,None,363.0901864767999,None,None,None,None,,6,001,2022_Dec_13_1251,searchDisc5,2021.2.3,59.97004628061398,
images/exp2b_trial_129_colour1_distractors4_r.png,r,3,1,4,0,,,,,0,160,160,160,,,,,,,,,,,,,,,,,,,,,,,,,,,,,,,,,,,,,,,,,,,363.107313212,None,2,0.15455536999797914,363.107313212,None,,,,,,,,,,,,,,,,None,None,None,,None,None,363.30941008599984,None,3,1,0.7066529990006529,363.30941008599984,None,364.0067422818007,None,None,None,None,,6,001,2022_Dec_13_1251,searchDisc5,2021.2.3,59.97004628061398,
images/exp2c_trial_213_colour2_distractors4_l.png,l,1,2,4,0,,,,,0,161,161,161,,,,,,,,,,,,,,,,,,,,,,,,,,,,,,,,,,,,,,,,,,,364.02602080900033,None,2,0.10480876700239605,364.02602080900033,None,,,,,,,,,,,,,,,,None,None,None,,None,None,364.17575782900167,None,1,1,0.873598807000235,364.17575782900167,None,365.0403231728029,None,None,None,None,,6,001,2022_Dec_13_1251,searchDisc5,2021.2.3,59.97004628061398,
images/exp2c_trial_4_colour1_distractors31_r.png,r,3,1,31,0,,,,,0,162,162,162,,,,,,,,,,,,,,,,,,,,,,,,,,,,,,,,,,,,,,,,,,,365.05685239300146,None,2,0.18521834099738044,365.05685239300146,None,,,,,,,,,,,,,,,,None,None,None,,None,None,365.29295797099985,None,3,1,0.7337232159989071,365.29295797099985,None,366.0234412458027,None,None,None,None,,6,001,2022_Dec_13_1251,searchDisc5,2021.2.3,59.97004628061398,
images/exp2c_trial_18_colour1_distractors19_l.png,l,1,1,19,0,,,,,0,163,163,163,,,,,,,,,,,,,,,,,,,,,,,,,,,,,,,,,,,,,,,,,,,366.04015208200144,None,2,0.1219427150026604,366.04015208200144,None,,,,,,,,,,,,,,,,None,None,None,,None,None,366.2089326540008,None,1,1,0.635871408998355,366.2089326540008,None,366.8402634917999,None,None,None,None,,6,001,2022_Dec_13_1251,searchDisc5,2021.2.3,59.97004628061398,
images/exp2a_trial_247_colour2_distractors19_l.png,l,1,2,19,0,,,,,0,164,164,164,,,,,,,,,,,,,,,,,,,,,,,,,,,,,,,,,,,,,,,,,,,366.856529476001,None,2,0.21922276400073315,366.856529476001,None,,,,,,,,,,,,,,,,None,None,None,,None,None,367.1259631130015,None,1,1,0.7811129960027756,367.1259631130015,None,367.90698352580296,None,None,None,None,,6,001,2022_Dec_13_1251,searchDisc5,2021.2.3,59.97004628061398,
images/exp2a_trial_54_colour2_distractors9_l.png,l,1,2,9,0,,,,,0,165,165,165,,,,,,,,,,,,,,,,,,,,,,,,,,,,,,,,,,,,,,,,,,,367.9242348300031,None,2,0.18777609700191533,367.9242348300031,None,,,,,,,,,,,,,,,,None,None,None,,None,None,368.15843785200195,None,1,1,0.9348423529991123,368.15843785200195,None,369.0902926407995,None,None,None,None,,6,001,2022_Dec_13_1251,searchDisc5,2021.2.3,59.97004628061398,
images/exp2c_trial_51_colour1_distractors31_l.png,l,1,1,31,0,,,,,0,166,166,166,,,,,,,,,,,,,,,,,,,,,,,,,,,,,,,,,,,,,,,,,,,369.109206997,None,2,0.1865896369999973,369.109206997,None,,,,,,,,,,,,,,,,None,None,None,,None,None,369.3413146040002,None,1,1,0.6191418609996617,369.3413146040002,None,369.95700652180096,None,None,None,None,,6,001,2022_Dec_13_1251,searchDisc5,2021.2.3,59.97004628061398,
images/exp2c_trial_216_colour2_distractors31_l.png,l,1,2,31,0,,,,,0,167,167,167,,,,,,,,,,,,,,,,,,,,,,,,,,,,,,,,,,,,,,,,,,,369.97425037799985,None,2,0.20752193700172938,369.97425037799985,None,,,,,,,,,,,,,,,,None,None,None,,None,None,370.22653268200156,None,1,1,0.5660213289993408,370.22653268200156,None,370.7903043258026,None,None,None,None,,6,001,2022_Dec_13_1251,searchDisc5,2021.2.3,59.97004628061398,
images/exp2c_trial_112_colour1_distractors4_l.png,l,1,1,4,0,,,,,0,168,168,168,,,,,,,,,,,,,,,,,,,,,,,,,,,,,,,,,,,,,,,,,,,370.8080371040014,None,2,0.22083461000147508,370.8080371040014,None,,,,,,,,,,,,,,,,None,None,None,,None,None,371.0750473690023,None,1,1,0.704453153997747,371.0750473690023,None,371.7732099908004,None,None,None,None,,6,001,2022_Dec_13_1251,searchDisc5,2021.2.3,59.97004628061398,
images/exp2a_trial_162_colour1_distractors9_r.png,r,3,1,9,0,,,,,0,169,169,169,,,,,,,,,,,,,,,,,,,,,,,,,,,,,,,,,,,,,,,,,,,371.79023424800107,None,2,0.20580433500072104,371.79023424800107,None,,,,,,,,,,,,,,,,None,None,None,,None,None,372.04338656000255,None,3,1,0.6036475889995927,372.04338656000255,None,372.64037685980077,None,None,None,None,,6,001,2022_Dec_13_1251,searchDisc5,2021.2.3,59.97004628061398,
images/exp2b_trial_53_colour2_distractors4_l.png,l,1,2,4,0,,,,,0,170,170,170,,,,,,,,,,,,,,,,,,,,,,,,,,,,,,,,,,,,,,,,,,,372.65625293500125,None,2,0.1727922780009976,372.65625293500125,None,,,,,,,,,,,,,,,,None,None,None,,None,None,372.87605726200127,None,3,0,0.5359679270004563,372.87605726200127,None,373.40711075480215,None,None,None,None,,6,001,2022_Dec_13_1251,searchDisc5,2021.2.3,59.97004628061398,
images/exp2b_trial_122_colour3_distractors4_l.png,l,1,3,4,0,,,,,0,171,171,171,,,,,,,,,,,,,,,,,,,,,,,,,,,,,,,,,,,,,,,,,,,373.426392444002,None,2,0.5053413569985423,373.426392444002,None,,,,,,,,,,,,,,,,None,None,None,,None,None,373.9744672020024,None,1,1,0.5711711950025347,373.9744672020024,None,374.5404401628017,None,None,None,None,,6,001,2022_Dec_13_1251,searchDisc5,2021.2.3,59.97004628061398,
images/exp1a_trial_203_colour3_distractors4_r.png,r,3,3,4,0,,,,,0,172,172,172,,,,,,,,,,,,,,,,,,,,,,,,,,,,,,,,,,,,,,,,,,,374.5577660689996,None,2,0.2218660459984676,374.5577660689996,None,,,,,,,,,,,,,,,,None,None,None,,None,None,374.8263751450031,None,1,0,0.45383328599928063,374.8263751450031,None,375.27375432980045,None,None,None,None,,6,001,2022_Dec_13_1251,searchDisc5,2021.2.3,59.97004628061398,
images/exp1a_trial_12_colour3_distractors9_r.png,r,3,3,9,0,,,,,0,173,173,173,,,,,,,,,,,,,,,,,,,,,,,,,,,,,,,,,,,,,,,,,,,375.2915253050014,None,2,0.40422590199887054,375.2915253050014,None,,,,,,,,,,,,,,,,None,None,None,,None,None,375.74335548900126,None,3,1,0.6033552449989656,375.74335548900126,None,376.34047540680115,None,None,None,None,,6,001,2022_Dec_13_1251,searchDisc5,2021.2.3,59.97004628061398,
images/exp1a_trial_97_colour1_distractors4_r.png,r,3,1,4,0,,,,,0,174,174,174,,,,,,,,,,,,,,,,,,,,,,,,,,,,,,,,,,,,,,,,,,,376.3590540710029,None,2,0.1740666779987805,376.3590540710029,None,,,,,,,,,,,,,,,,None,None,None,,None,None,376.57674809400123,None,3,1,0.7697870670017437,376.57674809400123,None,377.3405177028013,None,None,None,None,,6,001,2022_Dec_13_1251,searchDisc5,2021.2.3,59.97004628061398,
images/exp2b_trial_24_colour2_distractors31_l.png,l,1,2,31,0,,,,,0,175,175,175,,,,,,,,,,,,,,,,,,,,,,,,,,,,,,,,,,,,,,,,,,,377.35800404600013,None,2,0.13565030400059186,377.35800404600013,None,,,,,,,,,,,,,,,,None,None,None,,None,None,377.5436418160025,None,1,1,0.885206699000264,377.5436418160025,None,378.4236271927999,None,None,None,None,,6,001,2022_Dec_13_1251,searchDisc5,2021.2.3,59.97004628061398,
images/exp2b_trial_42_colour3_distractors1_r.png,r,3,3,1,0,,,,,0,176,176,176,,,,,,,,,,,,,,,,,,,,,,,,,,,,,,,,,,,,,,,,,,,378.44080009600293,None,2,0.1389825669975835,378.44080009600293,None,,,,,,,,,,,,,,,,None,None,None,,None,None,378.62632837600177,None,3,1,0.7198370859987335,378.62632837600177,None,379.3405649518005,None,None,None,None,,6,001,2022_Dec_13_1251,searchDisc5,2021.2.3,59.97004628061398,
images/exp2a_trial_114_colour1_distractors19_l.png,l,1,1,19,0,,,,,0,177,177,177,,,,,,,,,,,,,,,,,,,,,,,,,,,,,,,,,,,,,,,,,,,379.35792281199974,None,2,0.10730135699850507,379.35792281199974,None,,,,,,,,,,,,,,,,None,None,None,,None,None,379.510434232001,None,1,1,0.7165867629992135,379.510434232001,None,380.22384694379946,None,None,None,None,,6,001,2022_Dec_13_1251,searchDisc5,2021.2.3,59.97004628061398,
images/exp1a_trial_229_colour2_distractors1_r.png,r,3,2,1,0,,,,,0,178,178,178,,,,,,,,,,,,,,,,,,,,,,,,,,,,,,,,,,,,,,,,,,,380.2414721820023,None,2,0.1709040220011957,380.2414721820023,None,,,,,,,,,,,,,,,,None,None,None,,None,None,380.459211753001,None,3,1,0.6378804320011113,380.459211753001,None,381.0900989398011,None,None,None,None,,6,001,2022_Dec_13_1251,searchDisc5,2021.2.3,59.97004628061398,
images/exp2b_trial_274_colour1_distractors19_l.png,l,1,1,19,0,,,,,0,179,179,179,,,,,,,,,,,,,,,,,,,,,,,,,,,,,,,,,,,,,,,,,,,381.10727007800233,None,2,0.12436702299964963,381.10727007800233,None,,,,,,,,,,,,,,,,None,None,None,,None,None,381.274248619,None,1,1,0.70129072599957,381.274248619,None,381.9739621837995,None,None,None,None,,6,001,2022_Dec_13_1251,searchDisc5,2021.2.3,59.97004628061398,
images/exp2a_trial_204_colour3_distractors9_r.png,r,3,3,9,0,,,,,0,180,180,180,,,,,,,,,,,,,,,,,,,,,,,,,,,,,,,,,,,,,,,,,,,381.99079828899994,None,2,0.20144489200174576,381.99079828899994,None,,,,,,,,,,,,,,,,None,None,None,,None,None,382.2412030560008,None,3,1,0.7545555729993794,382.2412030560008,None,382.9905965628001,None,None,None,None,,6,001,2022_Dec_13_1251,searchDisc5,2021.2.3,59.97004628061398,
images/exp2c_trial_146_colour1_distractors19_l.png,l,1,1,19,0,,,,,0,181,181,181,,,,,,,,,,,,,,,,,,,,,,,,,,,,,,,,,,,,,,,,,,,383.008064267,None,2,0.1557997659983812,383.008064267,None,,,,,,,,,,,,,,,,None,None,None,,None,None,383.20956573900185,None,1,1,0.6358793489998789,383.20956573900185,None,383.8406862418029,None,None,None,None,,6,001,2022_Dec_13_1251,searchDisc5,2021.2.3,59.97004628061398,
images/exp2c_trial_143_colour1_distractors1_l.png,l,1,1,1,0,,,,,0,182,182,182,,,,,,,,,,,,,,,,,,,,,,,,,,,,,,,,,,,,,,,,,,,383.8581117040012,None,2,0.18565348499760148,383.8581117040012,None,,,,,,,,,,,,,,,,None,None,None,,None,None,384.0932746050021,None,1,1,0.7557182519994967,384.0932746050021,None,384.8407089787994,None,None,None,None,,6,001,2022_Dec_13_1251,searchDisc5,2021.2.3,59.97004628061398,
images/exp2c_trial_291_colour1_distractors19_r.png,r,3,1,19,0,,,,,0,183,183,183,,,,,,,,,,,,,,,,,,,,,,,,,,,,,,,,,,,,,,,,,,,384.85803205200136,None,2,0.19095569899945986,384.85803205200136,None,,,,,,,,,,,,,,,,None,None,None,,None,None,385.0930362600011,None,3,1,0.6828481280026608,385.0930362600011,None,385.7741250788,None,None,None,None,,6,001,2022_Dec_13_1251,searchDisc5,2021.2.3,59.97004628061398,
images/exp2b_trial_189_colour3_distractors31_l.png,l,1,3,31,0,,,,,0,184,184,184,,,,,,,,,,,,,,,,,,,,,,,,,,,,,,,,,,,,,,,,,,,385.791502924003,None,2,0.1240342140008579,385.791502924003,None,,,,,,,,,,,,,,,,None,None,None,,None,None,385.9578656160011,None,1,1,0.6503111310012173,385.9578656160011,None,386.60750391580007,None,None,None,None,,6,001,2022_Dec_13_1251,searchDisc5,2021.2.3,59.97004628061398,
images/exp2c_trial_181_colour2_distractors4_l.png,l,1,2,4,0,,,,,0,185,185,185,,,,,,,,,,,,,,,,,,,,,,,,,,,,,,,,,,,,,,,,,,,386.623890482002,None,2,0.17018200299935415,386.623890482002,None,,,,,,,,,,,,,,,,None,None,None,,None,None,386.8445543420021,None,1,1,0.4719901909993496,386.8445543420021,None,387.30744380080216,None,None,None,None,,6,001,2022_Dec_13_1251,searchDisc5,2021.2.3,59.97004628061398,
images/exp2c_trial_167_colour2_distractors9_r.png,r,3,2,9,0,,,,,0,186,186,186,,,,,,,,,,,,,,,,,,,,,,,,,,,,,,,,,,,,,,,,,,,387.3248728840008,None,2,0.17016321499977494,387.3248728840008,None,,,,,,,,,,,,,,,,None,None,None,,None,None,387.5439071660003,None,3,1,0.7070615160009766,387.5439071660003,None,388.24079883780144,None,None,None,None,,6,001,2022_Dec_13_1251,searchDisc5,2021.2.3,59.97004628061398,
images/exp1a_trial_216_colour2_distractors31_l.png,l,1,2,31,0,,,,,0,187,187,187,,,,,,,,,,,,,,,,,,,,,,,,,,,,,,,,,,,,,,,,,,,388.2582393110024,None,2,0.12402173499867786,388.2582393110024,None,,,,,,,,,,,,,,,,None,None,None,,None,None,388.42406657600077,None,1,1,0.8476485369974398,388.42406657600077,None,389.27528020280226,None,None,None,None,,6,001,2022_Dec_13_1251,searchDisc5,2021.2.3,59.97004628061398,
images/exp1a_trial_15_colour1_distractors1_l.png,l,1,1,1,0,,,,,0,188,188,188,,,,,,,,,,,,,,,,,,,,,,,,,,,,,,,,,,,,,,,,,,,389.2916013440008,None,2,0.17086342500260798,389.2916013440008,None,,,,,,,,,,,,,,,,None,None,None,,None,None,389.5103702000015,None,1,1,1.1546133289994032,389.5103702000015,None,390.6576882138012,None,None,None,None,,6,001,2022_Dec_13_1251,searchDisc5,2021.2.3,59.97004628061398,
images/exp1a_trial_21_colour2_distractors4_l.png,l,1,2,4,0,,,,,0,189,189,189,,,,,,,,,,,,,,,,,,,,,,,,,,,,,,,,,,,,,,,,,,,390.6770981430018,None,2,0.17307654099931824,390.6770981430018,None,,,,,,,,,,,,,,,,None,None,None,,None,None,390.89325357300186,None,1,1,0.6520878929986793,390.89325357300186,None,391.5408717778024,None,None,None,None,,6,001,2022_Dec_13_1251,searchDisc5,2021.2.3,59.97004628061398,
images/exp1a_trial_177_colour1_distractors9_l.png,l,1,1,9,0,,,,,0,190,190,190,,,,,,,,,,,,,,,,,,,,,,,,,,,,,,,,,,,,,,,,,,,391.5581559330021,None,2,0.17382905800332082,391.5581559330021,None,,,,,,,,,,,,,,,,None,None,None,,None,None,391.77731720000156,None,3,0,0.9502021750013228,391.77731720000156,None,392.7243036947999,None,None,None,None,,6,001,2022_Dec_13_1251,searchDisc5,2021.2.3,59.97004628061398,
images/exp2b_trial_68_colour1_distractors31_r.png,r,3,1,31,0,,,,,0,191,191,191,,,,,,,,,,,,,,,,,,,,,,,,,,,,,,,,,,,,,,,,,,,392.74108401800186,None,2,0.40411114800008363,392.74108401800186,None,,,,,,,,,,,,,,,,None,None,None,,None,None,393.19335103699996,None,3,1,1.0681903349977802,393.19335103699996,None,394.25745829580194,None,None,None,None,,6,001,2022_Dec_13_1251,searchDisc5,2021.2.3,59.97004628061398,
images/exp2a_trial_245_colour2_distractors4_l.png,l,1,2,4,0,,,,,0,192,192,192,,,,,,,,,,,,,,,,,,,,,,,,,,,,,,,,,,,,,,,,,,,394.2740726940028,None,2,0.1547109260027355,394.2740726940028,None,,,,,,,,,,,,,,,,None,None,None,,None,None,394.47715065500233,None,1,1,0.8685274800009211,394.47715065500233,None,395.3410506708002,None,None,None,None,,6,001,2022_Dec_13_1251,searchDisc5,2021.2.3,59.97004628061398,
images/exp1a_trial_88_colour2_distractors31_l.png,l,1,2,31,0,,,,,0,193,193,193,,,,,,,,,,,,,,,,,,,,,,,,,,,,,,,,,,,,,,,,,,,395.3566326680011,None,2,0.15450636799869244,395.3566326680011,None,,,,,,,,,,,,,,,,None,None,None,,None,None,395.56077485900096,None,1,1,0.6990901309982291,395.56077485900096,None,396.2576795727997,None,None,None,None,,6,001,2022_Dec_13_1251,searchDisc5,2021.2.3,59.97004628061398,
images/exp1a_trial_38_colour2_distractors4_r.png,r,3,2,4,0,,,,,0,194,194,194,,,,,,,,,,,,,,,,,,,,,,,,,,,,,,,,,,,,,,,,,,,396.2751691129997,None,2,0.15475273599804495,396.2751691129997,None,,,,,,,,,,,,,,,,None,None,None,,None,None,396.47550877200047,None,3,1,0.686581991998537,396.47550877200047,None,397.1577577378026,None,None,None,None,,6,001,2022_Dec_13_1251,searchDisc5,2021.2.3,59.97004628061398,
images/exp1a_trial_204_colour3_distractors9_r.png,r,3,3,9,0,,,,,0,195,195,195,,,,,,,,,,,,,,,,,,,,,,,,,,,,,,,,,,,,,,,,,,,397.1754257680004,None,2,0.12183134599763434,397.1754257680004,None,,,,,,,,,,,,,,,,None,None,None,,None,None,397.34127366100074,None,3,1,0.9880498640013684,397.34127366100074,None,398.3244931778005,None,None,None,None,,6,001,2022_Dec_13_1251,searchDisc5,2021.2.3,59.97004628061398,
images/exp2a_trial_267_colour3_distractors4_r.png,r,3,3,4,0,,,,,0,196,196,196,,,,,,,,,,,,,,,,,,,,,,,,,,,,,,,,,,,,,,,,,,,398.3413343600005,None,2,0.11993254200206138,398.3413343600005,None,,,,,,,,,,,,,,,,None,None,None,,None,None,398.5082931700017,None,3,1,0.7040235640015453,398.5082931700017,None,399.2087667778011,None,None,None,None,,6,001,2022_Dec_13_1251,searchDisc5,2021.2.3,59.97004628061398,
images/exp2c_trial_111_colour1_distractors1_l.png,l,1,1,1,0,,,,,0,197,197,197,,,,,,,,,,,,,,,,,,,,,,,,,,,,,,,,,,,,,,,,,,,399.2254479660005,None,2,0.1692680060004932,399.2254479660005,None,,,,,,,,,,,,,,,,None,None,None,,None,None,399.4436769460008,None,1,1,0.8214873210017686,399.4436769460008,None,400.2575702588016,None,None,None,None,,6,001,2022_Dec_13_1251,searchDisc5,2021.2.3,59.97004628061398,
images/exp2b_trial_214_colour2_distractors9_l.png,l,1,2,9,0,,,,,0,198,198,198,,,,,,,,,,,,,,,,,,,,,,,,,,,,,,,,,,,,,,,,,,,400.2749527779997,None,2,0.1395305609985371,400.2749527779997,None,,,,,,,,,,,,,,,,None,None,None,,None,None,400.46023193400106,None,1,1,0.5516674799982866,400.46023193400106,None,401.00759995580086,None,None,None,None,,6,001,2022_Dec_13_1251,searchDisc5,2021.2.3,59.97004628061398,
images/exp2b_trial_116_colour2_distractors1_l.png,l,1,2,1,0,,,,,0,199,199,199,,,,,,,,,,,,,,,,,,,,,,,,,,,,,,,,,,,,,,,,,,,401.02498107500287,None,2,0.15522549000161234,401.02498107500287,None,,,,,,,,,,,,,,,,None,None,None,,None,None,401.2275825270008,None,1,1,0.7217910229992412,401.2275825270008,None,401.94117326280104,None,None,None,None,,6,001,2022_Dec_13_1251,searchDisc5,2021.2.3,59.97004628061398,
images/exp2c_trial_244_colour2_distractors1_l.png,l,1,2,1,0,,,,,0,200,200,200,,,,,,,,,,,,,,,,,,,,,,,,,,,,,,,,,,,,,,,,,,,401.9578240910014,None,2,0.1413453130007838,401.9578240910014,None,,,,,,,,,,,,,,,,None,None,None,,None,None,402.1409521250025,None,1,1,0.5204470620010397,402.1409521250025,None,402.657857602802,None,None,None,None,,6,001,2022_Dec_13_1251,searchDisc5,2021.2.3,59.97004628061398,
images/exp2b_trial_64_colour1_distractors1_r.png,r,3,1,1,0,,,,,0,201,201,201,,,,,,,,,,,,,,,,,,,,,,,,,,,,,,,,,,,,,,,,,,,402.67514695499995,None,2,0.18927512699883664,402.67514695499995,None,,,,,,,,,,,,,,,,None,None,None,,None,None,402.91114247400037,None,3,1,0.6873339880003186,402.91114247400037,None,403.59122716080094,None,None,None,None,,6,001,2022_Dec_13_1251,searchDisc5,2021.2.3,59.97004628061398,
images/exp1a_trial_222_colour0_distractors0_r.png,r,3,0,0,0,,,,,0,202,202,202,,,,,,,,,,,,,,,,,,,,,,,,,,,,,,,,,,,,,,,,,,,403.6108297000028,None,2,0.1737459609976213,403.6108297000028,None,,,,,,,,,,,,,,,,None,None,None,,None,None,403.8249766040026,None,3,1,0.6361154329970304,403.8249766040026,None,404.4578599188004,None,None,None,None,,6,001,2022_Dec_13_1251,searchDisc5,2021.2.3,59.97004628061398,
images/exp1a_trial_310_colour2_distractors9_l.png,l,1,2,9,0,,,,,0,203,203,203,,,,,,,,,,,,,,,,,,,,,,,,,,,,,,,,,,,,,,,,,,,404.47555440400174,None,2,0.13651475200094865,404.47555440400174,None,,,,,,,,,,,,,,,,None,None,None,,None,None,404.6584263570003,None,1,1,0.6873532000026898,404.6584263570003,None,405.34131946880154,None,None,None,None,,6,001,2022_Dec_13_1251,searchDisc5,2021.2.3,59.97004628061398,
images/exp1a_trial_185_colour3_distractors1_l.png,l,1,3,1,0,,,,,0,204,204,204,,,,,,,,,,,,,,,,,,,,,,,,,,,,,,,,,,,,,,,,,,,405.3580788870022,None,2,0.15434821099916007,405.3580788870022,None,,,,,,,,,,,,,,,,None,None,None,,None,None,405.5582738990015,None,1,1,0.6388339960030862,405.5582738990015,None,406.19136227780257,None,None,None,None,,6,001,2022_Dec_13_1251,searchDisc5,2021.2.3,59.97004628061398,
images/exp2b_trial_179_colour1_distractors31_l.png,l,1,1,31,0,,,,,0,205,205,205,,,,,,,,,,,,,,,,,,,,,,,,,,,,,,,,,,,,,,,,,,,406.20848113600005,None,2,0.25531100400257856,406.20848113600005,None,,,,,,,,,,,,,,,,None,None,None,,None,None,406.50865033100126,None,1,1,0.7514464899977611,406.50865033100126,None,407.2578850178012,None,None,None,None,,6,001,2022_Dec_13_1251,searchDisc5,2021.2.3,59.97004628061398,
images/exp1a_trial_109_colour3_distractors19_r.png,r,3,3,19,0,,,,,0,206,206,206,,,,,,,,,,,,,,,,,,,,,,,,,,,,,,,,,,,,,,,,,,,407.27467862100093,None,2,0.15365354800087516,407.27467862100093,None,,,,,,,,,,,,,,,,None,None,None,,None,None,407.4776047380001,None,3,1,0.5844573920003313,407.4776047380001,None,408.0579237608014,None,None,None,None,,6,001,2022_Dec_13_1251,searchDisc5,2021.2.3,59.97004628061398,
images/exp2b_trial_303_colour1_distractors1_l.png,l,1,1,1,0,,,,,0,207,207,207,,,,,,,,,,,,,,,,,,,,,,,,,,,,,,,,,,,,,,,,,,,408.0746459300026,None,2,0.13868619999993825,408.0746459300026,None,,,,,,,,,,,,,,,,None,None,None,,None,None,408.2602902920007,None,1,1,0.6546898929991585,408.2602902920007,None,408.9079337357995,None,None,None,None,,6,001,2022_Dec_13_1251,searchDisc5,2021.2.3,59.97004628061398,
images/exp1a_trial_124_colour3_distractors19_l.png,l,1,3,19,0,,,,,0,208,208,208,,,,,,,,,,,,,,,,,,,,,,,,,,,,,,,,,,,,,,,,,,,408.92513936100295,None,2,0.15446308200262138,408.92513936100295,None,,,,,,,,,,,,,,,,None,None,None,,None,None,409.12767579200226,None,1,1,0.7677936580003006,409.12767579200226,None,409.8913901098,None,None,None,None,,6,001,2022_Dec_13_1251,searchDisc5,2021.2.3,59.97004628061398,
images/exp2a_trial_46_colour3_distractors31_r.png,r,3,3,31,0,,,,,0,209,209,209,,,,,,,,,,,,,,,,,,,,,,,,,,,,,,,,,,,,,,,,,,,409.909757094003,None,2,0.172828960003244,409.909757094003,None,,,,,,,,,,,,,,,,None,None,None,,None,None,410.12695178800277,None,3,1,0.6836082120025821,410.12695178800277,None,410.80813150280085,None,None,None,None,,6,001,2022_Dec_13_1251,searchDisc5,2021.2.3,59.97004628061398,
images/exp2a_trial_286_colour0_distractors0_r.png,r,3,0,0,0,,,,,0,210,210,210,,,,,,,,,,,,,,,,,,,,,,,,,,,,,,,,,,,,,,,,,,,410.8274018990014,None,2,0.12269912600095267,410.8274018990014,None,,,,,,,,,,,,,,,,None,None,None,,None,None,410.9940687970011,None,3,1,0.6218790089988033,410.9940687970011,None,411.6094503647997,None,None,None,None,,6,001,2022_Dec_13_1251,searchDisc5,2021.2.3,59.97004628061398,
images/exp2c_trial_304_colour1_distractors4_l.png,l,1,1,4,0,,,,,0,211,211,211,,,,,,,,,,,,,,,,,,,,,,,,,,,,,,,,,,,,,,,,,,,411.6257955500005,None,2,0.13665085699904012,411.6257955500005,None,,,,,,,,,,,,,,,,None,None,None,,None,None,411.808240407001,None,1,1,0.5546346839983016,411.808240407001,None,412.35812669180234,None,None,None,None,,6,001,2022_Dec_13_1251,searchDisc5,2021.2.3,59.97004628061398,
images/exp2b_trial_211_colour1_distractors31_l.png,l,1,1,31,0,,,,,0,212,212,212,,,,,,,,,,,,,,,,,,,,,,,,,,,,,,,,,,,,,,,,,,,412.37535081399983,None,2,0.1554125840011693,412.37535081399983,None,,,,,,,,,,,,,,,,None,None,None,,None,None,412.57704961700074,None,1,1,0.669508784001664,412.57704961700074,None,413.2430911608004,None,None,None,None,,6,001,2022_Dec_13_1251,searchDisc5,2021.2.3,59.97004628061398,
images/exp1a_trial_305_colour1_distractors9_l.png,l,1,1,9,0,,,,,0,213,213,213,,,,,,,,,,,,,,,,,,,,,,,,,,,,,,,,,,,,,,,,,,,413.2581728860023,None,2,0.1371680379997997,413.2581728860023,None,,,,,,,,,,,,,,,,None,None,None,,None,None,413.4444647720011,None,1,1,0.7534051799993904,413.4444647720011,None,414.1925968238007,None,None,None,None,,6,001,2022_Dec_13_1251,searchDisc5,2021.2.3,59.97004628061398,
images/exp2b_trial_79_colour1_distractors1_l.png,l,1,1,1,0,,,,,0,214,214,214,,,,,,,,,,,,,,,,,,,,,,,,,,,,,,,,,,,,,,,,,,,414.2081887910026,None,2,0.1373913990028086,414.2081887910026,None,,,,,,,,,,,,,,,,None,None,None,,None,None,414.391829684002,None,1,1,0.6715502099978039,414.391829684002,None,415.0582193097995,None,None,None,None,,6,001,2022_Dec_13_1251,searchDisc5,2021.2.3,59.97004628061398,
images/exp1a_trial_234_colour3_distractors1_r.png,r,3,3,1,0,,,,,0,215,215,215,,,,,,,,,,,,,,,,,,,,,,,,,,,,,,,,,,,,,,,,,,,415.077773832003,None,2,0.12153931100328919,415.077773832003,None,,,,,,,,,,,,,,,,None,None,None,,None,None,415.2438878920002,None,3,1,0.6872998319995531,415.2438878920002,None,415.9242485578012,None,None,None,None,,6,001,2022_Dec_13_1251,searchDisc5,2021.2.3,59.97004628061398,
images/exp2c_trial_220_colour3_distractors19_l.png,l,1,3,19,0,,,,,0,216,216,216,,,,,,,,,,,,,,,,,,,,,,,,,,,,,,,,,,,,,,,,,,,415.9415881060013,None,2,0.08833271199910087,415.9415881060013,None,,,,,,,,,,,,,,,,None,None,None,,None,None,416.07605663100185,None,1,1,0.7047458640008699,416.07605663100185,None,416.7764356328022,None,None,None,None,,6,001,2022_Dec_13_1251,searchDisc5,2021.2.3,59.97004628061398,
images/exp1a_trial_11_colour3_distractors4_r.png,r,3,3,4,0,,,,,0,217,217,217,,,,,,,,,,,,,,,,,,,,,,,,,,,,,,,,,,,,,,,,,,,416.7926008930008,None,2,0.1727257210004609,416.7926008930008,None,,,,,,,,,,,,,,,,None,None,None,,None,None,417.01051487400036,None,3,1,0.7337159060007252,417.01051487400036,None,417.7410090528007,None,None,None,None,,6,001,2022_Dec_13_1251,searchDisc5,2021.2.3,59.97004628061398,
images/exp1a_trial_196_colour1_distractors31_r.png,r,3,1,31,0,,,,,0,218,218,218,,,,,,,,,,,,,,,,,,,,,,,,,,,,,,,,,,,,,,,,,,,417.75912996900297,None,2,0.12026379599774373,417.75912996900297,None,,,,,,,,,,,,,,,,None,None,None,,None,None,417.92518906199984,None,3,1,1.2172175509986118,417.92518906199984,None,419.14239729080293,None,None,None,None,,6,001,2022_Dec_13_1251,searchDisc5,2021.2.3,59.97004628061398,
images/exp1a_trial_52_colour2_distractors1_l.png,l,1,2,1,0,,,,,0,219,219,219,,,,,,,,,,,,,,,,,,,,,,,,,,,,,,,,,,,,,,,,,,,419.15871915400203,None,2,0.1214098529999319,419.15871915400203,None,,,,,,,,,,,,,,,,None,None,None,,None,None,419.3261245700014,None,1,1,0.7204034460010007,419.3261245700014,None,420.0416385797995,None,None,None,None,,6,001,2022_Dec_13_1251,searchDisc5,2021.2.3,59.97004628061398,
images/exp1a_trial_159_colour0_distractors0_l.png,l,1,0,0,0,,,,,0,220,220,220,,,,,,,,,,,,,,,,,,,,,,,,,,,,,,,,,,,,,,,,,,,420.0582792310015,None,2,0.12341839299915591,420.0582792310015,None,,,,,,,,,,,,,,,,None,None,None,,None,None,420.22531361000074,None,1,1,0.5368447700020624,420.22531361000074,None,420.7584586788013,None,None,None,None,,6,001,2022_Dec_13_1251,searchDisc5,2021.2.3,59.97004628061398,
images/exp1a_trial_232_colour2_distractors19_r.png,r,3,2,19,0,,,,,0,221,221,221,,,,,,,,,,,,,,,,,,,,,,,,,,,,,,,,,,,,,,,,,,,420.77548597200075,None,2,0.10534689800260821,420.77548597200075,None,,,,,,,,,,,,,,,,None,None,None,,None,None,420.92741590100195,None,3,1,0.7996811020020687,420.92741590100195,None,421.72507864180227,None,None,None,None,,6,001,2022_Dec_13_1251,searchDisc5,2021.2.3,59.97004628061398,
images/exp2a_trial_150_colour2_distractors9_l.png,l,1,2,9,0,,,,,0,222,222,222,,,,,,,,,,,,,,,,,,,,,,,,,,,,,,,,,,,,,,,,,,,421.74245082500056,None,2,0.09075511899936828,421.74245082500056,None,,,,,,,,,,,,,,,,None,None,None,,None,None,421.87890706500184,None,1,1,0.6474472129993956,421.87890706500184,None,422.5251005488004,None,None,None,None,,6,001,2022_Dec_13_1251,searchDisc5,2021.2.3,59.97004628061398,
images/exp2a_trial_167_colour2_distractors9_r.png,r,3,2,9,0,,,,,0,223,223,223,,,,,,,,,,,,,,,,,,,,,,,,,,,,,,,,,,,,,,,,,,,422.54195638900273,None,2,0.17130475399972056,422.54195638900273,None,,,,,,,,,,,,,,,,None,None,None,,None,None,422.7606468869999,None,3,1,0.7831401670009654,422.7606468869999,None,423.5418026008025,None,None,None,None,,6,001,2022_Dec_13_1251,searchDisc5,2021.2.3,59.97004628061398,
images/exp2c_trial_104_colour2_distractors19_r.png,r,3,2,19,0,,,,,0,224,224,224,,,,,,,,,,,,,,,,,,,,,,,,,,,,,,,,,,,,,,,,,,,423.55940932900194,None,2,0.13743628399970476,423.55940932900194,None,,,,,,,,,,,,,,,,None,None,None,,None,None,423.74515541599976,None,3,1,0.7195152350032004,423.74515541599976,None,424.45839076080085,None,None,None,None,,6,001,2022_Dec_13_1251,searchDisc5,2021.2.3,59.97004628061398,
images/exp1a_trial_4_colour1_distractors31_r.png,r,3,1,31,0,,,,,0,225,225,225,,,,,,,,,,,,,,,,,,,,,,,,,,,,,,,,,,,,,,,,,,,424.4747495940028,None,2,0.12134268099907786,424.4747495940028,None,,,,,,,,,,,,,,,,None,None,None,,None,None,424.6446031310006,None,3,1,1.0148001969973848,424.6446031310006,None,425.65851820380124,None,None,None,None,,6,001,2022_Dec_13_1251,searchDisc5,2021.2.3,59.97004628061398,
