ImageFile,targ_side,correctAnswer,exp,trial,colour,distNo,trials_2.thisRepN,trials_2.thisTrialN,trials_2.thisN,trials_2.thisIndex,trials.thisRepN,trials.thisTrialN,trials.thisN,trials.thisIndex,X Scale,Y Scale,text_top.started,text_top.stopped,text_bottom.started,text_bottom.stopped,ccimage.started,ccimage.stopped,text_6.started,text_6.stopped,key_resp_10.keys,key_resp_10.rt,key_resp_10.started,key_resp_10.stopped,text_7.started,text_7.stopped,key_resp_11.keys,key_resp_11.rt,key_resp_11.started,key_resp_11.stopped,text_8.started,text_8.stopped,key_resp_12.keys,key_resp_12.rt,key_resp_12.started,key_resp_12.stopped,text_9.started,text_9.stopped,key_resp_13.keys,key_resp_13.rt,key_resp_13.started,key_resp_13.stopped,text_2.started,text_2.stopped,key_resp_5.keys,key_resp_5.rt,key_resp_5.started,key_resp_5.stopped,text_5.started,text_5.stopped,key_resp_8.keys,key_resp_8.rt,key_resp_8.started,key_resp_8.stopped,image_2.started,image_2.stopped,key_resp_6.keys,key_resp_6.rt,key_resp_6.started,key_resp_6.stopped,text_3.started,text_3.stopped,image_3.started,image_3.stopped,fix.started,fix.stopped,key_resp_7.keys,key_resp_7.rt,key_resp_7.started,key_resp_7.stopped,image.started,image.stopped,key_resp_4.keys,key_resp_4.corr,key_resp_4.rt,key_resp_4.started,key_resp_4.stopped,text_4.started,text_4.stopped,text.started,text.stopped,key_resp_3.keys,key_resp_3.rt,key_resp_3.started,key_resp_3.stopped,fix2experiment.started,fix2experiment.stopped,key_resp_9.keys,key_resp_9.rt,key_resp_9.started,key_resp_9.stopped,dispStimuli.started,dispStimuli.stopped,key_resp_2.keys,key_resp_2.corr,key_resp_2.rt,key_resp_2.started,key_resp_2.stopped,breakMessage.started,breakMessage.stopped,key_resp.keys,key_resp.started,key_resp.stopped,key_resp.rt,participant,session,date,expName,psychopyVersion,frameRate,
,,,,,,,,,,,,,,,48.3,40,18.34319400899767,None,18.34319400899767,None,18.34319400899767,None,56.42733311499978,None,space,5.8435651200015855,56.42733311499978,None,,,,,,,,,,,,,,,,,,,,,,,,,,,,,,,,,,,,,,,,,,,,,,,,,,,,,,,,,,,,,,,,,,,,,,,,,,,,,,,,,11,001,2021_Oct_06_1005,searchDisc4,2021.2.3,60.02341369302602,
,,,,,,,,,,,,,,,,,,,,,,,,,,,,,62.29214256999694,None,space,7.963120658001571,62.29214256999694,None,,,,,,,,,,,,,,,,,,,,,,,,,,,,,,,,,,,,,,,,,,,,,,,,,,,,,,,,,,,,,,,,,,,,,,,,,,,11,001,2021_Oct_06_1005,searchDisc4,2021.2.3,60.02341369302602,
,,,,,,,,,,,,,,,,,,,,,,,,,,,,,,,,,,,70.27801755899782,None,space,1.1132002220001596,70.27801755899782,None,,,,,,,,,,,,,,,,,,,,,,,,,,,,,,,,,,,,,,,,,,,,,,,,,,,,,,,,,,,,,,,,,,,,,11,001,2021_Oct_06_1005,searchDisc4,2021.2.3,60.02341369302602,
,,,,,,,,,,,,,,,,,,,,,,,,,,,,,,,,,,,,,,,,,71.41120890299862,None,space,2.692163191997679,71.41120890299862,None,,,,,,,,,,,,,,,,,,,,,,,,,,,,,,,,,,,,,,,,,,,,,,,,,,,,,,,,,,,,,,,11,001,2021_Oct_06_1005,searchDisc4,2021.2.3,60.02341369302602,
,,,,,,,,,,,,,,,,,,,,,,,,,,,,,,,,,,,,,,,,,,,,,,,74.1279989029972,None,space,17.08103257300172,75.11115671099833,None,,,,,,,,,,,,,,,,,,,,,,,,,,,,,,,,,,,,,,,,,,,,,,,,,,,,,,,,,11,001,2021_Oct_06_1005,searchDisc4,2021.2.3,60.02341369302602,
,,,,,,,,,,,,,,,,,,,,,,,,,,,,,,,,,,,,,,,,,,,,,,,,,,,,,92.21172183599992,None,space,20.389507575000607,92.21172183599992,None,,,,,,,,,,,,,,,,,,,,,,,,,,,,,,,,,,,,,,,,,,,,,,,,,,,11,001,2021_Oct_06_1005,searchDisc4,2021.2.3,60.02341369302602,
,,,,,,,,,,,,,,,,,,,,,,,,,,,,,,,,,,,,,,,,,,,,,,,,,,,,,,,,,,,112.62835649999761,None,space,4.101276897999924,113.61207390599884,None,,,,,,,,,,,,,,,,,,,,,,,,,,,,,,,,,,,,,,,,,,,,,11,001,2021_Oct_06_1005,searchDisc4,2021.2.3,60.02341369302602,
Practice arrays/exp1a_trial_10_colour3_distractors1_r.png,r,j,,,,,0,0,0,4,,,,,,,,,,,,,,,,,,,,,,,,,,,,,,,,,,,,,,,,,,,,,,,,,,,,,,,112.62835649999761,None,112.62835649999761,None,117.76012329699734,None,space,8.017617294000956,117.76012329699734,None,125.87766170599934,None,j,1,1.372224467999331,125.87766170599934,None,127.27686779299984,None,,,,,,,,,,,,,,,,,,,,,,,,,,11,001,2021_Oct_06_1005,searchDisc4,2021.2.3,60.02341369302602,
Practice arrays/exp1a_trial_7_colour2_distractors9_r.png,r,j,,,,,0,1,1,2,,,,,,,,,,,,,,,,,,,,,,,,,,,,,,,,,,,,,,,,,,,,,,,,,,,,,,,,,,,128.2793211019998,None,space,3.2507007799977146,128.2793211019998,None,131.61320101899764,None,j,1,0.8048674860001483,131.61320101899764,None,132.44398608199845,None,,,,,,,,,,,,,,,,,,,,,,,,,,11,001,2021_Oct_06_1005,searchDisc4,2021.2.3,60.02341369302602,
Practice arrays/exp1a_trial_8_colour2_distractors19_r.png,r,j,,,,,0,2,2,3,,,,,,,,,,,,,,,,,,,,,,,,,,,,,,,,,,,,,,,,,,,,,,,,,,,,,,,,,,,133.4459787559972,None,space,1.1482472460011195,133.4459787559972,None,134.66291016299874,None,j,1,0.6753505050000967,134.66291016299874,None,135.36084775999916,None,,,,,,,,,,,,,,,,,,,,,,,,,,11,001,2021_Oct_06_1005,searchDisc4,2021.2.3,60.02341369302602,
Practice arrays/exp1a_trial_0_colour1_distractors1_r.png,r,j,,,,,0,3,3,0,,,,,,,,,,,,,,,,,,,,,,,,,,,,,,,,,,,,,,,,,,,,,,,,,,,,,,,,,,,136.3627088439971,None,space,1.351672837001388,136.3627088439971,None,137.7962810909994,None,j,1,0.7420513129982282,137.7962810909994,None,138.56026794599893,None,,,,,,,,,,,,,,,,,,,,,,,,,,11,001,2021_Oct_06_1005,searchDisc4,2021.2.3,60.02341369302602,
Practice arrays/exp1a_trial_1_colour1_distractors4_r.png,r,j,,,,,0,4,4,1,,,,,,,,,,,,,,,,,,,,,,,,,,,,,,,,,,,,,,,,,,,,,,,,,,,,,,,,,,,139.56302942799812,None,space,0.8313662809996458,139.56302942799812,None,140.46263458300018,None,j,1,0.8439022320017102,140.46263458300018,None,141.32761715000015,None,,,,,,,,,,,,,,,,,,,,,,,,,,11,001,2021_Oct_06_1005,searchDisc4,2021.2.3,60.02341369302602,
Practice arrays/exp1a_trial_18_colour1_distractors19_l.png,l,f,,,,,0,5,5,8,,,,,,,,,,,,,,,,,,,,,,,,,,,,,,,,,,,,,,,,,,,,,,,,,,,,,,,,,,,142.32964589399853,None,space,0.0889446590008447,142.32964589399853,None,142.496231203997,None,f,1,0.8503234009986045,142.496231203997,None,143.3772764369969,None,,,,,,,,,,,,,,,,,,,,,,,,,,11,001,2021_Oct_06_1005,searchDisc4,2021.2.3,60.02341369302602,
Practice arrays/exp1a_trial_27_colour3_distractors9_l.png,l,f,,,,,0,6,6,12,,,,,,,,,,,,,,,,,,,,,,,,,,,,,,,,,,,,,,,,,,,,,,,,,,,,,,,,,,,144.37985305799884,None,space,0.5347398289995908,144.37985305799884,None,144.99596250399918,None,f,1,0.6147057640009734,144.99596250399918,None,145.62776155999745,None,,,,,,,,,,,,,,,,,,,,,,,,,,11,001,2021_Oct_06_1005,searchDisc4,2021.2.3,60.02341369302602,
Practice arrays/exp1a_trial_23_colour2_distractors19_l.png,l,f,,,,,0,7,7,10,,,,,,,,,,,,,,,,,,,,,,,,,,,,,,,,,,,,,,,,,,,,,,,,,,,,,,,,,,,146.6296852259984,None,space,0.2770367319972138,146.6296852259984,None,146.9798915399988,None,f,1,0.8548441010025272,146.9798915399988,None,147.86114340199856,None,,,,,,,,,,,,,,,,,,,,,,,,,,11,001,2021_Oct_06_1005,searchDisc4,2021.2.3,60.02341369302602,
Practice arrays/exp1a_trial_14_colour3_distractors31_r.png,r,j,,,,,0,8,8,6,,,,,,,,,,,,,,,,,,,,,,,,,,,,,,,,,,,,,,,,,,,,,,,,,,,,,,,,,,,148.862768261999,None,space,2.0202220430001034,148.862768261999,None,150.96332530200016,None,j,1,0.7036795819985855,150.96332530200016,None,151.69453916499697,None,,,,,,,,,,,,,,,,,,,,,,,,,,11,001,2021_Oct_06_1005,searchDisc4,2021.2.3,60.02341369302602,
Practice arrays/exp1a_trial_30_colour0_distractors0_r.png,r,j,,,,,0,9,9,14,,,,,,,,,,,,,,,,,,,,,,,,,,,,,,,,,,,,,,,,,,,,,,,,,,,,,,,,,,,152.69633198500014,None,space,0.7628159629966831,152.69633198500014,None,153.51106532999984,None,j,1,0.5239911300013773,153.51106532999984,None,154.06096276599783,None,,,,,,,,,,,,,,,,,,,,,,,,,,11,001,2021_Oct_06_1005,searchDisc4,2021.2.3,60.02341369302602,
Practice arrays/exp1a_trial_16_colour1_distractors4_l.png,l,f,,,,,0,10,10,13,,,,,,,,,,,,,,,,,,,,,,,,,,,,,,,,,,,,,,,,,,,,,,,,,,,,,,,,,,,155.06346481400033,None,space,0.5797216130013112,155.06346481400033,None,155.71366214399677,None,f,1,0.7215474610020465,155.71366214399677,None,156.46087061099752,None,,,,,,,,,,,,,,,,,,,,,,,,,,11,001,2021_Oct_06_1005,searchDisc4,2021.2.3,60.02341369302602,
Practice arrays/exp1a_trial_21_colour2_distractors4_l.png,l,f,,,,,0,11,11,9,,,,,,,,,,,,,,,,,,,,,,,,,,,,,,,,,,,,,,,,,,,,,,,,,,,,,,,,,,,157.46337870799834,None,space,0.5959362109970243,157.46337870799834,None,158.1298589759972,None,f,1,0.6254723769998236,158.1298589759972,None,158.77802703199995,None,,,,,,,,,,,,,,,,,,,,,,,,,,11,001,2021_Oct_06_1005,searchDisc4,2021.2.3,60.02341369302602,
Practice arrays/exp1a_trial_25_colour3_distractors1_l.png,l,f,,,,,0,12,12,11,,,,,,,,,,,,,,,,,,,,,,,,,,,,,,,,,,,,,,,,,,,,,,,,,,,,,,,,,,,159.77815429099792,None,space,0.9052853299981507,159.77815429099792,None,160.76341654399948,None,f,1,0.7760519680014113,160.76341654399948,None,161.56151552099982,None,,,,,,,,,,,,,,,,,,,,,,,,,,11,001,2021_Oct_06_1005,searchDisc4,2021.2.3,60.02341369302602,
Practice arrays/exp1a_trial_31_colour0_distractors0_l.png,l,f,,,,,0,13,13,15,,,,,,,,,,,,,,,,,,,,,,,,,,,,,,,,,,,,,,,,,,,,,,,,,,,,,,,,,,,162.56357402699723,None,space,0.5519751550018555,162.56357402699723,None,163.19495388099676,None,f,1,0.5286115449998761,163.19495388099676,None,163.7448279349992,None,,,,,,,,,,,,,,,,,,,,,,,,,,11,001,2021_Oct_06_1005,searchDisc4,2021.2.3,60.02341369302602,
Practice arrays/exp1a_trial_17_colour1_distractors9_l.png,l,f,,,,,0,14,14,7,,,,,,,,,,,,,,,,,,,,,,,,,,,,,,,,,,,,,,,,,,,,,,,,,,,,,,,,,,,164.74695021599837,None,space,0.4565960690015345,164.74695021599837,None,165.28026386299825,None,f,1,0.5954007740001543,165.28026386299825,None,165.89483419199678,None,,,,,,,,,,,,,,,,,,,,,,,,,,11,001,2021_Oct_06_1005,searchDisc4,2021.2.3,60.02341369302602,
Practice arrays/exp1a_trial_12_colour3_distractors9_r.png,r,j,,,,,0,15,15,5,,,,,,,,,,,,,,,,,,,,,,,,,,,,,,,,,,,,,,,,,,,,,,,,,,,,,,,,,,,166.89699158299845,None,space,0.8107696929982922,166.89699158299845,None,167.78000636899742,None,j,1,0.5357079269997485,167.78000636899742,None,168.3450189819996,None,,,,,,,,,,,,,,,,,,,,,,,,,,11,001,2021_Oct_06_1005,searchDisc4,2021.2.3,60.02341369302602,
,,,,,,,,,,,,,,,,,,,,,,,,,,,,,,,,,,,,,,,,,,,,,,,,,,,,,,,,,,,,,,,,,,,,,,,,,,,,,,,,,,,,169.4137729289978,None,space,3.3184541880000324,172.41360555400024,None,,,,,,,,,,,,,,,,,,,,11,001,2021_Oct_06_1005,searchDisc4,2021.2.3,60.02341369302602,
images/exp2c_trial_6_colour2_distractors4_r.png,r,j,2c,6,2,4,,,,,0,0,0,819,,,,,,,,,,,,,,,,,,,,,,,,,,,,,,,,,,,,,,,,,,,,,,,,,,,,,,,,,,,,,,,,,,,,,,,,,,,,176.163503243999,None,space,0.5766033780018915,176.163503243999,None,176.82242226999733,None,j,1,0.7657666509985575,176.82242226999733,None,177.61183920389848,None,None,177.61183920389848,None,,11,001,2021_Oct_06_1005,searchDisc4,2021.2.3,60.02341369302602,
images/exp1b_trial_48_colour1_distractors4_l.png,l,f,1b,48,1,4,,,,,0,1,1,285,,,,,,,,,,,,,,,,,,,,,,,,,,,,,,,,,,,,,,,,,,,,,,,,,,,,,,,,,,,,,,,,,,,,,,,,,,,,177.62854598799822,None,space,0.9676446849989588,177.62854598799822,None,178.6641328959995,None,f,1,0.9801898400000937,178.6641328959995,None,179.66184046989983,None,None,179.66184046989983,None,,11,001,2021_Oct_06_1005,searchDisc4,2021.2.3,60.02341369302602,
images/exp1a_trial_39_colour2_distractors9_r.png,r,j,1a,39,2,9,,,,,0,2,2,84,,,,,,,,,,,,,,,,,,,,,,,,,,,,,,,,,,,,,,,,,,,,,,,,,,,,,,,,,,,,,,,,,,,,,,,,,,,,179.66207707699868,None,space,0.7582131829985883,179.66207707699868,None,180.4973003979976,None,j,1,0.7470120230027533,180.4973003979976,None,181.26194261389864,None,None,181.26194261389864,None,,11,001,2021_Oct_06_1005,searchDisc4,2021.2.3,60.02341369302602,
images/exp2c_trial_69_colour2_distractors1_r.png,r,j,2c,69,2,1,,,,,0,3,3,882,,,,,,,,,,,,,,,,,,,,,,,,,,,,,,,,,,,,,,,,,,,,,,,,,,,,,,,,,,,,,,,,,,,,,,,,,,,,181.26161584799775,None,space,1.390764826999657,181.26161584799775,None,182.7310188929987,None,j,1,0.625354422001692,182.7310188929987,None,183.37878143789894,None,None,183.37878143789894,None,,11,001,2021_Oct_06_1005,searchDisc4,2021.2.3,60.02341369302602,
images/exp2b_trial_156_colour3_distractors19_l.png,l,f,2b,156,3,19,,,,,0,4,4,777,,,,,,,,,,,,,,,,,,,,,,,,,,,,,,,,,,,,,,,,,,,,,,,,,,,,,,,,,,,,,,,,,,,,,,,,,,,,183.37878377000015,None,space,0.7216610629984643,183.37878377000015,None,184.1808971879982,None,f,1,0.911662731999968,184.1808971879982,None,185.11160638089822,None,None,185.11160638089822,None,,11,001,2021_Oct_06_1005,searchDisc4,2021.2.3,60.02341369302602,
images/exp1a_trial_127_colour0_distractors0_l.png,l,f,1a,127,0,0,,,,,0,5,5,172,,,,,,,,,,,,,,,,,,,,,,,,,,,,,,,,,,,,,,,,,,,,,,,,,,,,,,,,,,,,,,,,,,,,,,,,,,,,185.1115066179991,None,space,0.7410250760003692,185.1115066179991,None,185.91199177799717,None,f,1,0.7086214709997876,185.91199177799717,None,186.64541291089662,None,None,186.64541291089662,None,,11,001,2021_Oct_06_1005,searchDisc4,2021.2.3,60.02341369302602,
images/exp2c_trial_180_colour2_distractors1_l.png,l,f,2c,180,2,1,,,,,0,6,6,33,,,,,,,,,,,,,,,,,,,,,,,,,,,,,,,,,,,,,,,,,,,,,,,,,,,,,,,,,,,,,,,,,,,,,,,,,,,,186.6453247979989,None,space,0.6551923469996837,186.6453247979989,None,187.38041286999942,None,f,1,0.6402683330015861,187.38041286999942,None,188.0452938118975,None,None,188.0452938118975,None,,11,001,2021_Oct_06_1005,searchDisc4,2021.2.3,60.02341369302602,
images/exp2b_trial_96_colour1_distractors1_r.png,r,j,2b,96,1,1,,,,,0,7,7,717,,,,,,,,,,,,,,,,,,,,,,,,,,,,,,,,,,,,,,,,,,,,,,,,,,,,,,,,,,,,,,,,,,,,,,,,,,,,188.0452452819991,None,space,0.5514067790027184,188.0452452819991,None,188.6644450929998,None,j,1,0.6203119120000338,188.6644450929998,None,189.31236948289697,None,None,189.31236948289697,None,,11,001,2021_Oct_06_1005,searchDisc4,2021.2.3,60.02341369302602,
images/exp1a_trial_20_colour2_distractors1_l.png,l,f,1a,20,2,1,,,,,0,8,8,65,,,,,,,,,,,,,,,,,,,,,,,,,,,,,,,,,,,,,,,,,,,,,,,,,,,,,,,,,,,,,,,,,,,,,,,,,,,,189.31222040699868,None,space,0.5164295629983826,189.31222040699868,None,189.8978115969985,None,f,1,0.7629503719981585,189.8978115969985,None,190.67831222789718,None,None,190.67831222789718,None,,11,001,2021_Oct_06_1005,searchDisc4,2021.2.3,60.02341369302602,
images/exp2a_trial_167_colour2_distractors9_r.png,r,j,2a,167,2,9,,,,,0,9,9,596,,,,,,,,,,,,,,,,,,,,,,,,,,,,,,,,,,,,,,,,,,,,,,,,,,,,,,,,,,,,,,,,,,,,,,,,,,,,190.67904892399747,None,space,0.46966457899907255,190.67904892399747,None,191.22914486599984,None,j,1,0.7597354550016462,191.22914486599984,None,192.01227630089815,None,None,192.01227630089815,None,,11,001,2021_Oct_06_1005,searchDisc4,2021.2.3,60.02341369302602,
images/exp2a_trial_170_colour3_distractors1_r.png,r,j,2a,170,3,1,,,,,0,10,10,599,,,,,,,,,,,,,,,,,,,,,,,,,,,,,,,,,,,,,,,,,,,,,,,,,,,,,,,,,,,,,,,,,,,,,,,,,,,,192.01190007900004,None,space,0.5289341870011413,192.01190007900004,None,192.61445558099877,None,j,1,0.7824742699995113,192.61445558099877,None,193.42909238889806,None,None,193.42909238889806,None,,11,001,2021_Oct_06_1005,searchDisc4,2021.2.3,60.02341369302602,
images/exp2a_trial_116_colour2_distractors1_l.png,l,f,2a,116,2,1,,,,,0,11,11,545,,,,,,,,,,,,,,,,,,,,,,,,,,,,,,,,,,,,,,,,,,,,,,,,,,,,,,,,,,,,,,,,,,,,,,,,,,,,193.42840619399794,None,space,0.5684958130004816,193.42840619399794,None,194.06468351999865,None,f,1,0.6443068090011366,194.06468351999865,None,194.72922775989682,None,None,194.72922775989682,None,,11,001,2021_Oct_06_1005,searchDisc4,2021.2.3,60.02341369302602,
images/exp2c_trial_174_colour3_distractors31_r.png,r,j,2c,174,3,31,,,,,0,12,12,27,,,,,,,,,,,,,,,,,,,,,,,,,,,,,,,,,,,,,,,,,,,,,,,,,,,,,,,,,,,,,,,,,,,,,,,,,,,,194.72841097799756,None,space,0.5805475060005847,194.72841097799756,None,195.38154042099995,None,j,1,0.8075166470007389,195.38154042099995,None,196.21241158289885,None,None,196.21241158289885,None,,11,001,2021_Oct_06_1005,searchDisc4,2021.2.3,60.02341369302602,
images/exp1b_trial_85_colour2_distractors4_l.png,l,f,1b,85,2,4,,,,,0,13,13,322,,,,,,,,,,,,,,,,,,,,,,,,,,,,,,,,,,,,,,,,,,,,,,,,,,,,,,,,,,,,,,,,,,,,,,,,,,,,196.21247360399866,None,space,0.744575378997979,196.21247360399866,None,197.02180484999917,None,f,1,0.9833496379978897,197.02180484999917,None,198.02870914589911,None,None,198.02870914589911,None,,11,001,2021_Oct_06_1005,searchDisc4,2021.2.3,60.02341369302602,
images/exp2b_trial_62_colour0_distractors0_r.png,r,j,2b,62,0,0,,,,,0,14,14,683,,,,,,,,,,,,,,,,,,,,,,,,,,,,,,,,,,,,,,,,,,,,,,,,,,,,,,,,,,,,,,,,,,,,,,,,,,,,198.02890924199892,None,space,0.6242181939996954,198.02890924199892,None,198.72091131599882,None,j,1,0.7483133129971975,198.72091131599882,None,199.49572149489867,None,None,199.49572149489867,None,,11,001,2021_Oct_06_1005,searchDisc4,2021.2.3,60.02341369302602,
images/exp2b_trial_161_colour1_distractors4_r.png,r,j,2b,161,1,4,,,,,0,15,15,782,,,,,,,,,,,,,,,,,,,,,,,,,,,,,,,,,,,,,,,,,,,,,,,,,,,,,,,,,,,,,,,,,,,,,,,,,,,,199.49573984699964,None,space,0.5093827380005678,199.49573984699964,None,200.0816184590003,None,j,1,0.6756530940001539,200.0816184590003,None,200.77867933589695,None,None,200.77867933589695,None,,11,001,2021_Oct_06_1005,searchDisc4,2021.2.3,60.02341369302602,
images/exp2b_trial_72_colour2_distractors19_r.png,r,j,2b,72,2,19,,,,,0,16,16,693,,,,,,,,,,,,,,,,,,,,,,,,,,,,,,,,,,,,,,,,,,,,,,,,,,,,,,,,,,,,,,,,,,,,,,,,,,,,200.77922483599832,None,space,0.7539301580000028,200.77922483599832,None,201.61481460099822,None,j,1,0.6624540920020081,201.61481460099822,None,202.2950874528975,None,None,202.2950874528975,None,,11,001,2021_Oct_06_1005,searchDisc4,2021.2.3,60.02341369302602,
images/exp2a_trial_129_colour1_distractors4_r.png,r,j,2a,129,1,4,,,,,0,17,17,558,,,,,,,,,,,,,,,,,,,,,,,,,,,,,,,,,,,,,,,,,,,,,,,,,,,,,,,,,,,,,,,,,,,,,,,,,,,,202.29592656000023,None,space,0.6373888020025333,202.29592656000023,None,203.0145988309996,None,j,1,0.6067952529992908,203.0145988309996,None,203.64589009289884,None,None,203.64589009289884,None,,11,001,2021_Oct_06_1005,searchDisc4,2021.2.3,60.02341369302602,
images/exp2c_trial_119_colour2_distractors19_l.png,l,f,2c,119,2,19,,,,,0,18,18,932,,,,,,,,,,,,,,,,,,,,,,,,,,,,,,,,,,,,,,,,,,,,,,,,,,,,,,,,,,,,,,,,,,,,,,,,,,,,203.6454733199971,None,space,0.4958409969985951,203.6454733199971,None,204.21495922800023,None,f,1,0.7345490799998515,204.21495922800023,None,204.97936534989967,None,None,204.97936534989967,None,,11,001,2021_Oct_06_1005,searchDisc4,2021.2.3,60.02341369302602,
images/exp2b_trial_159_colour0_distractors0_l.png,l,f,2b,159,0,0,,,,,0,19,19,780,,,,,,,,,,,,,,,,,,,,,,,,,,,,,,,,,,,,,,,,,,,,,,,,,,,,,,,,,,,,,,,,,,,,,,,,,,,,204.97929334199944,None,space,0.45012500699886004,204.97929334199944,None,205.4981995729977,None,f,1,0.5632345730009547,205.4981995729977,None,206.0786542398997,None,None,206.0786542398997,None,,11,001,2021_Oct_06_1005,searchDisc4,2021.2.3,60.02341369302602,
images/exp1a_trial_123_colour3_distractors9_l.png,l,f,1a,123,3,9,,,,,0,20,20,168,,,,,,,,,,,,,,,,,,,,,,,,,,,,,,,,,,,,,,,,,,,,,,,,,,,,,,,,,,,,,,,,,,,,,,,,,,,,206.07874128799813,None,space,0.6306623980017321,206.07874128799813,None,206.78167655599827,None,f,1,0.7919072039985622,206.78167655599827,None,207.5960101318993,None,None,207.5960101318993,None,,11,001,2021_Oct_06_1005,searchDisc4,2021.2.3,60.02341369302602,
images/exp2b_trial_155_colour3_distractors9_l.png,l,f,2b,155,3,9,,,,,0,21,21,776,,,,,,,,,,,,,,,,,,,,,,,,,,,,,,,,,,,,,,,,,,,,,,,,,,,,,,,,,,,,,,,,,,,,,,,,,,,,207.5956689409977,None,space,0.5297946479986422,207.5956689409977,None,208.19909509599893,None,f,1,0.7905550049981684,208.19909509599893,None,209.012816693899,None,None,209.012816693899,None,,11,001,2021_Oct_06_1005,searchDisc4,2021.2.3,60.02341369302602,
images/exp1a_trial_56_colour2_distractors31_l.png,l,f,1a,56,2,31,,,,,0,22,22,101,,,,,,,,,,,,,,,,,,,,,,,,,,,,,,,,,,,,,,,,,,,,,,,,,,,,,,,,,,,,,,,,,,,,,,,,,,,,209.01261702400006,None,space,0.5688990039998316,209.01261702400006,None,209.66298067899697,None,f,1,0.6067360160013777,209.66298067899697,None,210.2956408889,None,None,210.2956408889,None,,11,001,2021_Oct_06_1005,searchDisc4,2021.2.3,60.02341369302602,
images/exp2a_trial_139_colour3_distractors4_r.png,r,j,2a,139,3,4,,,,,0,23,23,568,,,,,,,,,,,,,,,,,,,,,,,,,,,,,,,,,,,,,,,,,,,,,,,,,,,,,,,,,,,,,,,,,,,,,,,,,,,,210.2960624369989,None,space,0.4776086599995324,210.2960624369989,None,210.84836552299748,None,j,1,0.6213037289999193,210.84836552299748,None,211.49539045089804,None,None,211.49539045089804,None,,11,001,2021_Oct_06_1005,searchDisc4,2021.2.3,60.02341369302602,
images/exp1a_trial_183_colour2_distractors19_l.png,l,f,1a,183,2,19,,,,,0,24,24,228,,,,,,,,,,,,,,,,,,,,,,,,,,,,,,,,,,,,,,,,,,,,,,,,,,,,,,,,,,,,,,,,,,,,,,,,,,,,211.49617266399946,None,space,0.5015679999996792,211.49617266399946,None,212.06453675399825,None,f,1,0.7812026510000578,212.06453675399825,None,212.86335494889826,None,None,212.86335494889826,None,,11,001,2021_Oct_06_1005,searchDisc4,2021.2.3,60.02341369302602,
images/exp1a_trial_29_colour3_distractors31_l.png,l,f,1a,29,3,31,,,,,0,25,25,74,,,,,,,,,,,,,,,,,,,,,,,,,,,,,,,,,,,,,,,,,,,,,,,,,,,,,,,,,,,,,,,,,,,,,,,,,,,,212.86313964799774,None,space,0.4786902550004015,212.86313964799774,None,213.41509506099828,None,f,1,0.6547982920019422,213.41509506099828,None,214.0956973688986,None,None,214.0956973688986,None,,11,001,2021_Oct_06_1005,searchDisc4,2021.2.3,60.02341369302602,
images/exp1b_trial_11_colour3_distractors4_r.png,r,j,1b,11,3,4,,,,,0,26,26,248,,,,,,,,,,,,,,,,,,,,,,,,,,,,,,,,,,,,,,,,,,,,,,,,,,,,,,,,,,,,,,,,,,,,,,,,,,,,214.09634550499686,None,space,0.4535102840018226,214.09634550499686,None,214.61326920200008,None,j,1,0.9206803359993501,214.61326920200008,None,215.56264166089713,None,None,215.56264166089713,None,,11,001,2021_Oct_06_1005,searchDisc4,2021.2.3,60.02341369302602,
images/exp1b_trial_63_colour0_distractors0_l.png,l,f,1b,63,0,0,,,,,0,27,27,300,,,,,,,,,,,,,,,,,,,,,,,,,,,,,,,,,,,,,,,,,,,,,,,,,,,,,,,,,,,,,,,,,,,,,,,,,,,,215.56305750699903,None,space,0.4908548880011949,215.56305750699903,None,216.12986024499696,None,f,1,0.7160794219998934,216.12986024499696,None,216.8630586808973,None,None,216.8630586808973,None,,11,001,2021_Oct_06_1005,searchDisc4,2021.2.3,60.02341369302602,
images/exp2a_trial_112_colour1_distractors4_l.png,l,f,2a,112,1,4,,,,,0,28,28,541,,,,,,,,,,,,,,,,,,,,,,,,,,,,,,,,,,,,,,,,,,,,,,,,,,,,,,,,,,,,,,,,,,,,,,,,,,,,216.8623606789988,None,space,0.35160197999721277,216.8623606789988,None,217.28130496700032,None,f,1,0.6207493849979073,217.28130496700032,None,217.9296999228969,None,None,217.9296999228969,None,,11,001,2021_Oct_06_1005,searchDisc4,2021.2.3,60.02341369302602,
images/exp1a_trial_6_colour2_distractors4_r.png,r,j,1a,6,2,4,,,,,0,29,29,51,,,,,,,,,,,,,,,,,,,,,,,,,,,,,,,,,,,,,,,,,,,,,,,,,,,,,,,,,,,,,,,,,,,,,,,,,,,,217.9293902569989,None,space,0.3726443109990214,217.9293902569989,None,218.3813496929979,None,j,1,0.7447810619996744,218.3813496929979,None,219.146132170899,None,None,219.146132170899,None,,11,001,2021_Oct_06_1005,searchDisc4,2021.2.3,60.02341369302602,
images/exp2c_trial_30_colour0_distractors0_r.png,r,j,2c,30,0,0,,,,,0,30,30,843,,,,,,,,,,,,,,,,,,,,,,,,,,,,,,,,,,,,,,,,,,,,,,,,,,,,,,,,,,,,,,,,,,,,,,,,,,,,219.146375944998,None,space,0.45971856499818387,219.146375944998,None,219.68190359199798,None,j,1,0.6841919830003462,219.68190359199798,None,220.3962894139,None,None,220.3962894139,None,,11,001,2021_Oct_06_1005,searchDisc4,2021.2.3,60.02341369302602,
images/exp1a_trial_143_colour1_distractors1_l.png,l,f,1a,143,1,1,,,,,0,31,31,188,,,,,,,,,,,,,,,,,,,,,,,,,,,,,,,,,,,,,,,,,,,,,,,,,,,,,,,,,,,,,,,,,,,,,,,,,,,,220.3961356789987,None,space,0.5219994319995749,220.3961356789987,None,220.99880058599956,None,f,1,1.015366769002867,220.99880058599956,None,222.04633289789817,None,None,222.04633289789817,None,,11,001,2021_Oct_06_1005,searchDisc4,2021.2.3,60.02341369302602,
images/exp2a_trial_18_colour1_distractors19_l.png,l,f,2a,18,1,19,,,,,0,32,32,447,,,,,,,,,,,,,,,,,,,,,,,,,,,,,,,,,,,,,,,,,,,,,,,,,,,,,,,,,,,,,,,,,,,,,,,,,,,,222.04609682299997,None,space,0.5681204920001619,222.04609682299997,None,222.68212823499925,None,f,1,0.7401839459998882,222.68212823499925,None,223.44593629289702,None,None,223.44593629289702,None,,11,001,2021_Oct_06_1005,searchDisc4,2021.2.3,60.02341369302602,
images/exp2c_trial_110_colour3_distractors31_r.png,r,j,2c,110,3,31,,,,,0,33,33,923,,,,,,,,,,,,,,,,,,,,,,,,,,,,,,,,,,,,,,,,,,,,,,,,,,,,,,,,,,,,,,,,,,,,,,,,,,,,223.44610442499834,None,space,0.6881866829971841,223.44610442499834,None,224.2152208919979,None,j,1,0.8711722059997555,224.2152208919979,None,225.11270859489704,None,None,225.11270859489704,None,,11,001,2021_Oct_06_1005,searchDisc4,2021.2.3,60.02341369302602,
images/exp2a_trial_22_colour2_distractors9_l.png,l,f,2a,22,2,9,,,,,0,34,34,451,,,,,,,,,,,,,,,,,,,,,,,,,,,,,,,,,,,,,,,,,,,,,,,,,,,,,,,,,,,,,,,,,,,,,,,,,,,,225.1132847279987,None,space,0.48500098300064565,225.1132847279987,None,225.6821452889999,None,f,1,0.6043301559984684,225.6821452889999,None,226.31326041389875,None,None,226.31326041389875,None,,11,001,2021_Oct_06_1005,searchDisc4,2021.2.3,60.02341369302602,
images/exp2a_trial_177_colour1_distractors9_l.png,l,f,2a,177,1,9,,,,,0,35,35,606,,,,,,,,,,,,,,,,,,,,,,,,,,,,,,,,,,,,,,,,,,,,,,,,,,,,,,,,,,,,,,,,,,,,,,,,,,,,226.3132579819976,None,space,0.5171707130029972,226.3132579819976,None,226.89897919899886,None,f,1,0.6035175830002117,226.89897919899886,None,227.5295766578998,None,None,227.5295766578998,None,,11,001,2021_Oct_06_1005,searchDisc4,2021.2.3,60.02341369302602,
images/exp1a_trial_86_colour2_distractors9_l.png,l,f,1a,86,2,9,,,,,0,36,36,131,,,,,,,,,,,,,,,,,,,,,,,,,,,,,,,,,,,,,,,,,,,,,,,,,,,,,,,,,,,,,,,,,,,,,,,,,,,,227.52995101699707,None,space,0.5645583929981512,227.52995101699707,None,228.16549029999805,None,f,1,0.5530652189991088,228.16549029999805,None,228.74678333689698,None,None,228.74678333689698,None,,11,001,2021_Oct_06_1005,searchDisc4,2021.2.3,60.02341369302602,
images/exp2a_trial_191_colour0_distractors0_l.png,l,f,2a,191,0,0,,,,,0,37,37,620,,,,,,,,,,,,,,,,,,,,,,,,,,,,,,,,,,,,,,,,,,,,,,,,,,,,,,,,,,,,,,,,,,,,,,,,,,,,228.74589301000015,None,space,0.7166508639966196,228.74589301000015,None,229.5138584879969,None,f,1,0.5887622039990674,229.5138584879969,None,230.1301815288967,None,None,230.1301815288967,None,,11,001,2021_Oct_06_1005,searchDisc4,2021.2.3,60.02341369302602,
images/exp2b_trial_101_colour2_distractors1_r.png,r,j,2b,101,2,1,,,,,0,38,38,722,,,,,,,,,,,,,,,,,,,,,,,,,,,,,,,,,,,,,,,,,,,,,,,,,,,,,,,,,,,,,,,,,,,,,,,,,,,,230.1297651519999,None,space,0.4527617699968687,230.1297651519999,None,230.65319799899953,None,j,1,0.6014721689971338,230.65319799899953,None,231.2800466118966,None,None,231.2800466118966,None,,11,001,2021_Oct_06_1005,searchDisc4,2021.2.3,60.02341369302602,
images/exp1a_trial_64_colour1_distractors1_r.png,r,j,1a,64,1,1,,,,,0,39,39,109,,,,,,,,,,,,,,,,,,,,,,,,,,,,,,,,,,,,,,,,,,,,,,,,,,,,,,,,,,,,,,,,,,,,,,,,,,,,231.28012440599923,None,space,0.4705198929987091,231.28012440599923,None,231.83156496499942,None,j,1,0.6151867690023209,231.83156496499942,None,232.46345330889707,None,None,232.46345330889707,None,,11,001,2021_Oct_06_1005,searchDisc4,2021.2.3,60.02341369302602,
images/exp1b_trial_47_colour1_distractors1_l.png,l,f,1b,47,1,1,,,,,0,40,40,284,,,,,,,,,,,,,,,,,,,,,,,,,,,,,,,,,,,,,,,,,,,,,,,,,,,,,,,,,,,,,,,,,,,,,,,,,,,,232.4635743309991,None,space,0.623128071998508,232.4635743309991,None,233.16489477999858,None,f,1,0.6578908949995821,233.16489477999858,None,233.84633839389753,None,None,233.84633839389753,None,,11,001,2021_Oct_06_1005,searchDisc4,2021.2.3,60.02341369302602,
images/exp2c_trial_149_colour2_distractors4_l.png,l,f,2c,149,2,4,,,,,0,41,41,2,,,,,,,,,,,,,,,,,,,,,,,,,,,,,,,,,,,,,,,,,,,,,,,,,,,,,,,,,,,,,,,,,,,,,,,,,,,,233.84663905900015,None,space,0.4240505279994977,233.84663905900015,None,234.34904957099934,None,f,1,0.6498075050003536,234.34904957099934,None,235.03028680389943,None,None,235.03028680389943,None,,11,001,2021_Oct_06_1005,searchDisc4,2021.2.3,60.02341369302602,
images/exp1a_trial_41_colour2_distractors31_r.png,r,j,1a,41,2,31,,,,,0,42,42,86,,,,,,,,,,,,,,,,,,,,,,,,,,,,,,,,,,,,,,,,,,,,,,,,,,,,,,,,,,,,,,,,,,,,,,,,,,,,235.0297201889989,None,space,0.4090912589999789,235.0297201889989,None,235.5136330949972,None,j,1,0.6531986180016247,235.5136330949972,None,236.19692651689874,None,None,236.19692651689874,None,,11,001,2021_Oct_06_1005,searchDisc4,2021.2.3,60.02341369302602,
images/exp1a_trial_181_colour2_distractors4_l.png,l,f,1a,181,2,4,,,,,0,43,43,226,,,,,,,,,,,,,,,,,,,,,,,,,,,,,,,,,,,,,,,,,,,,,,,,,,,,,,,,,,,,,,,,,,,,,,,,,,,,236.19650761199955,None,space,0.4503311949993076,236.19650761199955,None,236.71599469099965,None,f,1,0.6589810699988448,236.71599469099965,None,237.39634939989955,None,None,237.39634939989955,None,,11,001,2021_Oct_06_1005,searchDisc4,2021.2.3,60.02341369302602,
images/exp2a_trial_73_colour2_distractors31_r.png,r,j,2a,73,2,31,,,,,0,44,44,502,,,,,,,,,,,,,,,,,,,,,,,,,,,,,,,,,,,,,,,,,,,,,,,,,,,,,,,,,,,,,,,,,,,,,,,,,,,,237.3961361119982,None,space,0.33876717900056974,237.3961361119982,None,237.81753162899986,None,j,1,0.7494769010008895,237.81753162899986,None,238.5968718878972,None,None,238.5968718878972,None,,11,001,2021_Oct_06_1005,searchDisc4,2021.2.3,60.02341369302602,
images/exp1b_trial_116_colour2_distractors1_l.png,l,f,1b,116,2,1,,,,,0,45,45,353,,,,,,,,,,,,,,,,,,,,,,,,,,,,,,,,,,,,,,,,,,,,,,,,,,,,,,,,,,,,,,,,,,,,,,,,,,,,238.59678743999757,None,space,0.4181541500001913,238.59678743999757,None,239.08220545899894,None,f,1,0.6768581329997687,239.08220545899894,None,239.78037163289954,None,None,239.78037163289954,None,,11,001,2021_Oct_06_1005,searchDisc4,2021.2.3,60.02341369302602,
images/exp2c_trial_146_colour1_distractors19_l.png,l,f,2c,146,1,19,,,,,0,46,46,959,,,,,,,,,,,,,,,,,,,,,,,,,,,,,,,,,,,,,,,,,,,,,,,,,,,,,,,,,,,,,,,,,,,,,,,,,,,,239.78060972099775,None,space,0.4823367729986785,239.78060972099775,None,240.3324398449986,None,f,1,0.6826158740004757,240.3324398449986,None,241.04699429889988,None,None,241.04699429889988,None,,11,001,2021_Oct_06_1005,searchDisc4,2021.2.3,60.02341369302602,
images/exp1b_trial_64_colour1_distractors1_r.png,r,j,1b,64,1,1,,,,,0,47,47,301,,,,,,,,,,,,,,,,,,,,,,,,,,,,,,,,,,,,,,,,,,,,,,,,,,,,,,,,,,,,,,,,,,,,,,,,,,,,241.04676112699963,None,space,0.5522389610014216,241.04676112699963,None,241.682152571997,None,j,1,0.9489823809999507,241.682152571997,None,242.66373621489728,None,None,242.66373621489728,None,,11,001,2021_Oct_06_1005,searchDisc4,2021.2.3,60.02341369302602,
images/exp2a_trial_79_colour1_distractors1_l.png,l,f,2a,79,1,1,,,,,0,48,48,508,,,,,,,,,,,,,,,,,,,,,,,,,,,,,,,,,,,,,,,,,,,,,,,,,,,,,,,,,,,,,,,,,,,,,,,,,,,,242.66316191499936,None,space,0.4240038409989211,242.66316191499936,None,243.16589223499977,None,f,1,0.8173835850029718,243.16589223499977,None,244.01354241489716,None,None,244.01354241489716,None,,11,001,2021_Oct_06_1005,searchDisc4,2021.2.3,60.02341369302602,
images/exp2b_trial_82_colour1_distractors19_l.png,l,f,2b,82,1,19,,,,,0,49,49,703,,,,,,,,,,,,,,,,,,,,,,,,,,,,,,,,,,,,,,,,,,,,,,,,,,,,,,,,,,,,,,,,,,,,,,,,,,,,244.0138102469973,None,space,0.45726323900089483,244.0138102469973,None,244.54937617799806,None,f,1,0.689935903003061,244.54937617799806,None,245.2638901958995,None,None,245.2638901958995,None,,11,001,2021_Oct_06_1005,searchDisc4,2021.2.3,60.02341369302602,
images/exp1a_trial_55_colour2_distractors19_l.png,l,f,1a,55,2,19,,,,,0,50,50,100,,,,,,,,,,,,,,,,,,,,,,,,,,,,,,,,,,,,,,,,,,,,,,,,,,,,,,,,,,,,,,,,,,,,,,,,,,,,245.26322697799696,None,space,0.35999467199872015,245.26322697799696,None,245.6993873959982,None,f,1,0.6999639750029019,245.6993873959982,None,246.4304724658974,None,None,246.4304724658974,None,,11,001,2021_Oct_06_1005,searchDisc4,2021.2.3,60.02341369302602,
images/exp1b_trial_148_colour2_distractors1_l.png,l,f,1b,148,2,1,,,,,0,51,51,385,,,,,,,,,,,,,,,,,,,,,,,,,,,,,,,,,,,,,,,,,,,,,,,,,,,,,,,,,,,,,,,,,,,,,,,,,,,,246.4307896399987,None,space,0.32045036500130664,246.4307896399987,None,246.8320682859994,None,f,1,1.0392597540012503,246.8320682859994,None,247.8971777278999,None,None,247.8971777278999,None,,11,001,2021_Oct_06_1005,searchDisc4,2021.2.3,60.02341369302602,
images/exp1b_trial_87_colour2_distractors19_l.png,l,f,1b,87,2,19,,,,,0,52,52,324,,,,,,,,,,,,,,,,,,,,,,,,,,,,,,,,,,,,,,,,,,,,,,,,,,,,,,,,,,,,,,,,,,,,,,,,,,,,247.89735513899723,None,space,0.3740453919999709,247.89735513899723,None,248.34944874499706,None,f,1,0.7379823849987588,248.34944874499706,None,249.11390926189742,None,None,249.11390926189742,None,,11,001,2021_Oct_06_1005,searchDisc4,2021.2.3,60.02341369302602,
images/exp2b_trial_174_colour3_distractors31_r.png,r,j,2b,174,3,31,,,,,0,53,53,795,,,,,,,,,,,,,,,,,,,,,,,,,,,,,,,,,,,,,,,,,,,,,,,,,,,,,,,,,,,,,,,,,,,,,,,,,,,,249.11412732600002,None,space,0.6213575090005179,249.11412732600002,None,249.81620714499877,None,j,1,0.7592866310005775,249.81620714499877,None,250.59676351790003,None,None,250.59676351790003,None,,11,001,2021_Oct_06_1005,searchDisc4,2021.2.3,60.02341369302602,
images/exp1b_trial_147_colour1_distractors31_l.png,l,f,1b,147,1,31,,,,,0,54,54,384,,,,,,,,,,,,,,,,,,,,,,,,,,,,,,,,,,,,,,,,,,,,,,,,,,,,,,,,,,,,,,,,,,,,,,,,,,,,250.59677147099865,None,space,0.3706610759982141,250.59677147099865,None,251.049442927997,None,f,1,0.790174695001042,251.049442927997,None,251.86399585189756,None,None,251.86399585189756,None,,11,001,2021_Oct_06_1005,searchDisc4,2021.2.3,60.02341369302602,
images/exp1a_trial_118_colour2_distractors9_l.png,l,f,1a,118,2,9,,,,,0,55,55,163,,,,,,,,,,,,,,,,,,,,,,,,,,,,,,,,,,,,,,,,,,,,,,,,,,,,,,,,,,,,,,,,,,,,,,,,,,,,251.8632620440003,None,space,0.44024379099937505,251.8632620440003,None,252.38302007899983,None,f,1,1.3686054839999997,252.38302007899983,None,253.78077416289997,None,None,253.78077416289997,None,,11,001,2021_Oct_06_1005,searchDisc4,2021.2.3,60.02341369302602,
images/exp2a_trial_54_colour2_distractors9_l.png,l,f,2a,54,2,9,,,,,0,56,56,483,,,,,,,,,,,,,,,,,,,,,,,,,,,,,,,,,,,,,,,,,,,,,,,,,,,,,,,,,,,,,,,,,,,,,,,,,,,,253.78060721299698,None,space,0.3470596859988291,253.78060721299698,None,254.19942102799905,None,f,1,0.6243497519972152,254.19942102799905,None,254.84743672689692,None,None,254.84743672689692,None,,11,001,2021_Oct_06_1005,searchDisc4,2021.2.3,60.02341369302602,
images/exp1b_trial_65_colour1_distractors4_r.png,r,j,1b,65,1,4,,,,,0,57,57,302,,,,,,,,,,,,,,,,,,,,,,,,,,,,,,,,,,,,,,,,,,,,,,,,,,,,,,,,,,,,,,,,,,,,,,,,,,,,254.84706694600027,None,space,0.37666420599998673,254.84706694600027,None,255.29958724399694,None,j,1,0.9562474269987433,255.29958724399694,None,256.27996618989675,None,None,256.27996618989675,None,,11,001,2021_Oct_06_1005,searchDisc4,2021.2.3,60.02341369302602,
images/exp1b_trial_35_colour1_distractors19_r.png,r,j,1b,35,1,19,,,,,0,58,58,272,,,,,,,,,,,,,,,,,,,,,,,,,,,,,,,,,,,,,,,,,,,,,,,,,,,,,,,,,,,,,,,,,,,,,,,,,,,,256.28027247299906,None,space,0.4154319650006073,256.28027247299906,None,256.7663045599984,None,j,1,0.9375124219986901,256.7663045599984,None,257.7301961578993,None,None,257.7301961578993,None,,11,001,2021_Oct_06_1005,searchDisc4,2021.2.3,60.02341369302602,
images/exp2a_trial_176_colour1_distractors4_l.png,l,f,2a,176,1,4,,,,,0,59,59,605,,,,,,,,,,,,,,,,,,,,,,,,,,,,,,,,,,,,,,,,,,,,,,,,,,,,,,,,,,,,,,,,,,,,,,,,,,,,257.7306750459975,None,space,0.4211904740004684,257.7306750459975,None,258.2327804969973,None,f,1,0.8071766489993024,258.2327804969973,None,259.0640443658991,None,None,259.0640443658991,None,,11,001,2021_Oct_06_1005,searchDisc4,2021.2.3,60.02341369302602,
images/exp2c_trial_177_colour1_distractors9_l.png,l,f,2c,177,1,9,,,,,0,60,60,30,,,,,,,,,,,,,,,,,,,,,,,,,,,,,,,,,,,,,,,,,,,,,,,,,,,,,,,,,,,,,,,,,,,,,,,,,,,,259.0643212670002,None,space,0.5275919489977241,259.0643212670002,None,259.6663603069974,None,f,1,0.74957417800033,259.6663603069974,None,260.4469651688993,None,None,260.4469651688993,None,,11,001,2021_Oct_06_1005,searchDisc4,2021.2.3,60.02341369302602,
images/exp2a_trial_132_colour1_distractors31_r.png,r,j,2a,132,1,31,,,,,0,61,61,561,,,,,,,,,,,,,,,,,,,,,,,,,,,,,,,,,,,,,,,,,,,,,,,,,,,,,,,,,,,,,,,,,,,,,,,,,,,,260.44780251799966,None,space,0.4961775129995658,260.44780251799966,None,261.01638386299965,None,j,1,0.8396083040024678,261.01638386299965,None,261.8808495178997,None,None,261.8808495178997,None,,11,001,2021_Oct_06_1005,searchDisc4,2021.2.3,60.02341369302602,
images/exp1b_trial_23_colour2_distractors19_l.png,l,f,1b,23,2,19,,,,,0,62,62,260,,,,,,,,,,,,,,,,,,,,,,,,,,,,,,,,,,,,,,,,,,,,,,,,,,,,,,,,,,,,,,,,,,,,,,,,,,,,261.8803847509989,None,space,0.6636754339997424,261.8803847509989,None,262.6163195219997,None,f,1,0.9037442909975653,262.6163195219997,None,263.54707527389803,None,None,263.54707527389803,None,,11,001,2021_Oct_06_1005,searchDisc4,2021.2.3,60.02341369302602,
images/exp1b_trial_150_colour2_distractors9_l.png,l,f,1b,150,2,9,,,,,0,63,63,387,,,,,,,,,,,,,,,,,,,,,,,,,,,,,,,,,,,,,,,,,,,,,,,,,,,,,,,,,,,,,,,,,,,,,,,,,,,,263.5472547119971,None,space,0.44479499499720987,263.5472547119971,None,264.0666100819981,None,f,1,0.7496051710004394,264.0666100819981,None,264.84758299489806,None,None,264.84758299489806,None,,11,001,2021_Oct_06_1005,searchDisc4,2021.2.3,60.02341369302602,
images/exp1b_trial_41_colour2_distractors31_r.png,r,j,1b,41,2,31,,,,,0,64,64,278,,,,,,,,,,,,,,,,,,,,,,,,,,,,,,,,,,,,,,,,,,,,,,,,,,,,,,,,,,,,,,,,,,,,,,,,,,,,264.84748285800015,None,space,0.5207076080005208,264.84748285800015,None,265.4493776119998,None,j,1,1.3188922730005288,265.4493776119998,None,266.7973539578994,None,None,266.7973539578994,None,,11,001,2021_Oct_06_1005,searchDisc4,2021.2.3,60.02341369302602,
images/exp2b_trial_55_colour2_distractors19_l.png,l,f,2b,55,2,19,,,,,0,65,65,676,,,,,,,,,,,,,,,,,,,,,,,,,,,,,,,,,,,,,,,,,,,,,,,,,,,,,,,,,,,,,,,,,,,,,,,,,,,,266.7976880879978,None,space,0.3785798259996227,266.7976880879978,None,267.2499932719984,None,f,1,0.6783677579987852,267.2499932719984,None,267.9474079598982,None,None,267.9474079598982,None,,11,001,2021_Oct_06_1005,searchDisc4,2021.2.3,60.02341369302602,
images/exp2a_trial_42_colour3_distractors1_r.png,r,j,2a,42,3,1,,,,,0,66,66,471,,,,,,,,,,,,,,,,,,,,,,,,,,,,,,,,,,,,,,,,,,,,,,,,,,,,,,,,,,,,,,,,,,,,,,,,,,,,267.94779324099727,None,space,0.3004737879964523,267.94779324099727,None,268.31668648999766,None,j,1,0.8356676740004332,268.31668648999766,None,269.18117857489744,None,None,269.18117857489744,None,,11,001,2021_Oct_06_1005,searchDisc4,2021.2.3,60.02341369302602,
images/exp2b_trial_184_colour2_distractors31_l.png,l,f,2b,184,2,31,,,,,0,67,67,805,,,,,,,,,,,,,,,,,,,,,,,,,,,,,,,,,,,,,,,,,,,,,,,,,,,,,,,,,,,,,,,,,,,,,,,,,,,,269.18135220099794,None,space,0.35501674600163824,269.18135220099794,None,269.6167369399991,None,f,1,0.78366763199665,269.6167369399991,None,270.4313283748994,None,None,270.4313283748994,None,,11,001,2021_Oct_06_1005,searchDisc4,2021.2.3,60.02341369302602,
images/exp2c_trial_49_colour1_distractors9_l.png,l,f,2c,49,1,9,,,,,0,68,68,862,,,,,,,,,,,,,,,,,,,,,,,,,,,,,,,,,,,,,,,,,,,,,,,,,,,,,,,,,,,,,,,,,,,,,,,,,,,,270.4313590169986,None,space,0.7051024130014412,270.4313590169986,None,271.2166921850003,None,f,1,0.6317908970013377,271.2166921850003,None,271.8811316149,None,None,271.8811316149,None,,11,001,2021_Oct_06_1005,searchDisc4,2021.2.3,60.02341369302602,
images/exp2a_trial_12_colour3_distractors9_r.png,r,j,2a,12,3,9,,,,,0,69,69,441,,,,,,,,,,,,,,,,,,,,,,,,,,,,,,,,,,,,,,,,,,,,,,,,,,,,,,,,,,,,,,,,,,,,,,,,,,,,271.8813375999998,None,space,0.47921872299775714,271.8813375999998,None,272.4334005089986,None,j,1,0.5911991079992731,272.4334005089986,None,273.0480714738984,None,None,273.0480714738984,None,,11,001,2021_Oct_06_1005,searchDisc4,2021.2.3,60.02341369302602,
images/exp2a_trial_160_colour1_distractors1_r.png,r,j,2a,160,1,1,,,,,0,70,70,589,,,,,,,,,,,,,,,,,,,,,,,,,,,,,,,,,,,,,,,,,,,,,,,,,,,,,,,,,,,,,,,,,,,,,,,,,,,,273.0474193209993,None,space,0.46510660000058124,273.0474193209993,None,273.5836866319987,None,j,1,0.8728882739997061,273.5836866319987,None,274.4811591308968,None,None,274.4811591308968,None,,11,001,2021_Oct_06_1005,searchDisc4,2021.2.3,60.02341369302602,
images/exp2c_trial_191_colour0_distractors0_l.png,l,f,2c,191,0,0,,,,,0,71,71,44,,,,,,,,,,,,,,,,,,,,,,,,,,,,,,,,,,,,,,,,,,,,,,,,,,,,,,,,,,,,,,,,,,,,,,,,,,,,274.48145742999986,None,space,0.47912342400013586,274.48145742999986,None,275.0336060459995,None,f,1,0.6870757470023818,275.0336060459995,None,275.7474865258988,None,None,275.7474865258988,None,,11,001,2021_Oct_06_1005,searchDisc4,2021.2.3,60.02341369302602,
images/exp2c_trial_181_colour2_distractors4_l.png,l,f,2c,181,2,4,,,,,0,72,72,34,,,,,,,,,,,,,,,,,,,,,,,,,,,,,,,,,,,,,,,,,,,,,,,,,,,,,,,,,,,,,,,,,,,,,,,,,,,,275.7478702219996,None,space,0.4687313689973962,275.7478702219996,None,276.283706541999,None,f,1,0.5650083789987548,276.283706541999,None,276.88084764989947,None,None,276.88084764989947,None,,11,001,2021_Oct_06_1005,searchDisc4,2021.2.3,60.02341369302602,
images/exp1b_trial_55_colour2_distractors19_l.png,l,f,1b,55,2,19,,,,,0,73,73,292,,,,,,,,,,,,,,,,,,,,,,,,,,,,,,,,,,,,,,,,,,,,,,,,,,,,,,,,,,,,,,,,,,,,,,,,,,,,276.88132021099955,None,space,0.423372320998169,276.88132021099955,None,277.38350938099757,None,f,1,0.689319051001803,277.38350938099757,None,278.0981629958984,None,None,278.0981629958984,None,,11,001,2021_Oct_06_1005,searchDisc4,2021.2.3,60.02341369302602,
images/exp1b_trial_119_colour2_distractors19_l.png,l,f,1b,119,2,19,,,,,0,74,74,356,,,,,,,,,,,,,,,,,,,,,,,,,,,,,,,,,,,,,,,,,,,,,,,,,,,,,,,,,,,,,,,,,,,,,,,,,,,,278.0979313149983,None,space,0.36677713000244694,278.0979313149983,None,278.5336007609985,None,f,1,0.6432803610005067,278.5336007609985,None,279.1980682728969,None,None,279.1980682728969,None,,11,001,2021_Oct_06_1005,searchDisc4,2021.2.3,60.02341369302602,
images/exp1a_trial_138_colour3_distractors1_r.png,r,j,1a,138,3,1,,,,,0,75,75,183,,,,,,,,,,,,,,,,,,,,,,,,,,,,,,,,,,,,,,,,,,,,,,,,,,,,,,,,,,,,,,,,,,,,,,,,,,,,279.1982002369987,None,space,0.34663613199882093,279.1982002369987,None,279.6149027229985,None,j,1,0.8260333079997508,279.6149027229985,None,280.46435585989786,None,None,280.46435585989786,None,,11,001,2021_Oct_06_1005,searchDisc4,2021.2.3,60.02341369302602,
images/exp2b_trial_133_colour2_distractors1_r.png,r,j,2b,133,2,1,,,,,0,76,76,754,,,,,,,,,,,,,,,,,,,,,,,,,,,,,,,,,,,,,,,,,,,,,,,,,,,,,,,,,,,,,,,,,,,,,,,,,,,,280.4647654829969,None,space,0.4721338180024759,280.4647654829969,None,281.016945389998,None,j,1,1.760031482001068,281.016945389998,None,282.79797937989827,None,None,282.79797937989827,None,,11,001,2021_Oct_06_1005,searchDisc4,2021.2.3,60.02341369302602,
images/exp1a_trial_68_colour1_distractors31_r.png,r,j,1a,68,1,31,,,,,0,77,77,113,,,,,,,,,,,,,,,,,,,,,,,,,,,,,,,,,,,,,,,,,,,,,,,,,,,,,,,,,,,,,,,,,,,,,,,,,,,,282.7983388219982,None,space,0.47470514599990565,282.7983388219982,None,283.3504323559973,None,j,1,0.722687000001315,283.3504323559973,None,284.0982082109,None,None,284.0982082109,None,,11,001,2021_Oct_06_1005,searchDisc4,2021.2.3,60.02341369302602,
images/exp2c_trial_126_colour0_distractors0_r.png,r,j,2c,126,0,0,,,,,0,78,78,939,,,,,,,,,,,,,,,,,,,,,,,,,,,,,,,,,,,,,,,,,,,,,,,,,,,,,,,,,,,,,,,,,,,,,,,,,,,,284.0981978639975,None,space,0.6228905500029214,284.0981978639975,None,284.8004252409992,None,j,1,0.632668639998883,284.8004252409992,None,285.4648151018988,None,None,285.4648151018988,None,,11,001,2021_Oct_06_1005,searchDisc4,2021.2.3,60.02341369302602,
images/exp1b_trial_52_colour2_distractors1_l.png,l,f,1b,52,2,1,,,,,0,79,79,289,,,,,,,,,,,,,,,,,,,,,,,,,,,,,,,,,,,,,,,,,,,,,,,,,,,,,,,,,,,,,,,,,,,,,,,,,,,,285.46488512299766,None,space,0.40014994499870227,285.46488512299766,None,285.9384629959968,None,f,1,0.6147557339972991,285.9384629959968,None,286.58163443490014,None,None,286.58163443490014,None,,11,001,2021_Oct_06_1005,searchDisc4,2021.2.3,60.02341369302602,
images/exp2a_trial_166_colour2_distractors4_r.png,r,j,2a,166,2,4,,,,,0,80,80,595,,,,,,,,,,,,,,,,,,,,,,,,,,,,,,,,,,,,,,,,,,,,,,,,,,,,,,,,,,,,,,,,,,,,,,,,,,,,286.58140734199696,None,space,0.33978262900200207,286.58140734199696,None,287.0003353869979,None,j,1,0.5689415950000694,287.0003353869979,None,287.59821240689746,None,None,287.59821240689746,None,,11,001,2021_Oct_06_1005,searchDisc4,2021.2.3,60.02341369302602,
images/exp1a_trial_93_colour3_distractors31_l.png,l,f,1a,93,3,31,,,,,0,81,81,138,,,,,,,,,,,,,,,,,,,,,,,,,,,,,,,,,,,,,,,,,,,,,,,,,,,,,,,,,,,,,,,,,,,,,,,,,,,,287.5982666780001,None,space,0.2989050300020608,287.5982666780001,None,287.9674485260002,None,f,1,0.7778673169996182,287.9674485260002,None,288.76424094189827,None,None,288.76424094189827,None,,11,001,2021_Oct_06_1005,searchDisc4,2021.2.3,60.02341369302602,
images/exp2a_trial_48_colour1_distractors4_l.png,l,f,2a,48,1,4,,,,,0,82,82,477,,,,,,,,,,,,,,,,,,,,,,,,,,,,,,,,,,,,,,,,,,,,,,,,,,,,,,,,,,,,,,,,,,,,,,,,,,,,288.7650752769987,None,space,0.21219026200196822,288.7650752769987,None,289.05067889899874,None,f,1,0.9266964290000033,289.05067889899874,None,289.9985671958999,None,None,289.9985671958999,None,,11,001,2021_Oct_06_1005,searchDisc4,2021.2.3,60.02341369302602,
images/exp1a_trial_173_colour3_distractors19_r.png,r,j,1a,173,3,19,,,,,0,83,83,218,,,,,,,,,,,,,,,,,,,,,,,,,,,,,,,,,,,,,,,,,,,,,,,,,,,,,,,,,,,,,,,,,,,,,,,,,,,,289.9984952909981,None,space,0.21883383900058107,289.9984952909981,None,290.3010272279971,None,j,1,0.7964350429974729,290.3010272279971,None,291.11504450589894,None,None,291.11504450589894,None,,11,001,2021_Oct_06_1005,searchDisc4,2021.2.3,60.02341369302602,
images/exp2c_trial_68_colour1_distractors31_r.png,r,j,2c,68,1,31,,,,,0,84,84,881,,,,,,,,,,,,,,,,,,,,,,,,,,,,,,,,,,,,,,,,,,,,,,,,,,,,,,,,,,,,,,,,,,,,,,,,,,,,291.1152838929993,None,space,0.2700992739992216,291.1152838929993,None,291.46716155699687,None,j,1,1.0942652270023245,291.46716155699687,None,292.5815236008999,None,None,292.5815236008999,None,,11,001,2021_Oct_06_1005,searchDisc4,2021.2.3,60.02341369302602,
images/exp1b_trial_184_colour2_distractors31_l.png,l,f,1b,184,2,31,,,,,0,85,85,421,,,,,,,,,,,,,,,,,,,,,,,,,,,,,,,,,,,,,,,,,,,,,,,,,,,,,,,,,,,,,,,,,,,,,,,,,,,,292.58185625199985,None,space,0.19550343500304734,292.58185625199985,None,292.85071076599706,None,f,1,0.9428436590023921,292.85071076599706,None,293.8147146978987,None,None,293.8147146978987,None,,11,001,2021_Oct_06_1005,searchDisc4,2021.2.3,60.02341369302602,
images/exp2c_trial_48_colour1_distractors4_l.png,l,f,2c,48,1,4,,,,,0,86,86,861,,,,,,,,,,,,,,,,,,,,,,,,,,,,,,,,,,,,,,,,,,,,,,,,,,,,,,,,,,,,,,,,,,,,,,,,,,,,293.814920154,None,space,0.3465871079970384,293.814920154,None,294.2229582330001,None,f,1,0.6346960000009858,294.2229582330001,None,294.88180001289913,None,None,294.88180001289913,None,,11,001,2021_Oct_06_1005,searchDisc4,2021.2.3,60.02341369302602,
images/exp2a_trial_136_colour2_distractors19_r.png,r,j,2a,136,2,19,,,,,0,87,87,565,,,,,,,,,,,,,,,,,,,,,,,,,,,,,,,,,,,,,,,,,,,,,,,,,,,,,,,,,,,,,,,,,,,,,,,,,,,,294.88157767699886,None,space,0.42399850400033756,294.88157767699886,None,295.3843870159981,None,j,1,0.6652299359993776,295.3843870159981,None,296.08167068389923,None,None,296.08167068389923,None,,11,001,2021_Oct_06_1005,searchDisc4,2021.2.3,60.02341369302602,
images/exp1a_trial_172_colour3_distractors9_r.png,r,j,1a,172,3,9,,,,,0,88,88,217,,,,,,,,,,,,,,,,,,,,,,,,,,,,,,,,,,,,,,,,,,,,,,,,,,,,,,,,,,,,,,,,,,,,,,,,,,,,296.08157182399736,None,space,0.31994504899921594,296.08157182399736,None,296.4841409069995,None,j,1,0.6854744409974955,296.4841409069995,None,297.19794189789866,None,None,297.19794189789866,None,,11,001,2021_Oct_06_1005,searchDisc4,2021.2.3,60.02341369302602,
images/exp2b_trial_36_colour1_distractors31_r.png,r,j,2b,36,1,31,,,,,0,89,89,657,,,,,,,,,,,,,,,,,,,,,,,,,,,,,,,,,,,,,,,,,,,,,,,,,,,,,,,,,,,,,,,,,,,,,,,,,,,,297.19877314899713,None,space,0.2908009769998898,297.19877314899713,None,297.5668430579972,None,j,1,0.9389312310013338,297.5668430579972,None,298.53203609689774,None,None,298.53203609689774,None,,11,001,2021_Oct_06_1005,searchDisc4,2021.2.3,60.02341369302602,
images/exp2a_trial_188_colour3_distractors19_l.png,l,f,2a,188,3,19,,,,,0,90,90,617,,,,,,,,,,,,,,,,,,,,,,,,,,,,,,,,,,,,,,,,,,,,,,,,,,,,,,,,,,,,,,,,,,,,,,,,,,,,298.5321305489997,None,space,0.2775911589997122,298.5321305489997,None,298.8854578859973,None,f,1,0.7003677620014059,298.8854578859973,None,299.6154951888999,None,None,299.6154951888999,None,,11,001,2021_Oct_06_1005,searchDisc4,2021.2.3,60.02341369302602,
images/exp2c_trial_65_colour1_distractors4_r.png,r,j,2c,65,1,4,,,,,0,91,91,878,,,,,,,,,,,,,,,,,,,,,,,,,,,,,,,,,,,,,,,,,,,,,,,,,,,,,,,,,,,,,,,,,,,,,,,,,,,,299.6146526269986,None,space,0.25901519400213147,299.6146526269986,None,299.9505890859982,None,j,1,0.7232417579980392,299.9505890859982,None,300.6988289578982,None,None,300.6988289578982,None,,11,001,2021_Oct_06_1005,searchDisc4,2021.2.3,60.02341369302602,
images/exp2a_trial_98_colour1_distractors9_r.png,r,j,2a,98,1,9,,,,,0,92,92,527,,,,,,,,,,,,,,,,,,,,,,,,,,,,,,,,,,,,,,,,,,,,,,,,,,,,,,,,,,,,,,,,,,,,,,,,,,,,300.6980094089995,None,space,0.24781407699992997,300.6980094089995,None,301.01765976599927,None,j,1,0.6481799180000962,301.01765976599927,None,301.6986824788979,None,None,301.6986824788979,None,,11,001,2021_Oct_06_1005,searchDisc4,2021.2.3,60.02341369302602,
images/exp2a_trial_51_colour1_distractors31_l.png,l,f,2a,51,1,31,,,,,0,93,93,480,,,,,,,,,,,,,,,,,,,,,,,,,,,,,,,,,,,,,,,,,,,,,,,,,,,,,,,,,,,,,,,,,,,,,,,,,,,,301.6989695609991,None,space,0.2548126299989235,301.6989695609991,None,302.0342908659986,None,f,1,0.7196685729977617,302.0342908659986,None,302.782091704899,None,None,302.782091704899,None,,11,001,2021_Oct_06_1005,searchDisc4,2021.2.3,60.02341369302602,
images/exp1b_trial_32_colour1_distractors1_r.png,r,j,1b,32,1,1,,,,,0,94,94,269,,,,,,,,,,,,,,,,,,,,,,,,,,,,,,,,,,,,,,,,,,,,,,,,,,,,,,,,,,,,,,,,,,,,,,,,,,,,302.7820275749982,None,space,0.21988828200119315,302.7820275749982,None,303.0841965319996,None,j,1,0.6378158340012305,303.0841965319996,None,303.74885028289975,None,None,303.74885028289975,None,,11,001,2021_Oct_06_1005,searchDisc4,2021.2.3,60.02341369302602,
images/exp1a_trial_95_colour0_distractors0_l.png,l,f,1a,95,0,0,,,,,0,95,95,140,,,,,,,,,,,,,,,,,,,,,,,,,,,,,,,,,,,,,,,,,,,,,,,,,,,,,,,,,,,,,,,,,,,,,,,,,,,,303.747880142997,None,space,0.2699879400024656,303.747880142997,None,304.1010630069977,None,f,1,0.7089949519977381,304.1010630069977,None,304.83148195389697,None,None,304.83148195389697,None,,11,001,2021_Oct_06_1005,searchDisc4,2021.2.3,60.02341369302602,
images/exp2c_trial_168_colour2_distractors19_r.png,r,j,2c,168,2,19,,,,,0,96,96,21,,,,,,,,,,,,,,,,,,,,,,,,,,,,,,,,,,,,,,,,,,,,,,,,,,,,,,,,,,,,,,,,,,,,,,,,,,,,304.8320923789979,None,space,0.28993213400099194,304.8320923789979,None,305.19898753899906,None,j,1,0.755124301998876,305.19898753899906,None,305.9821106738997,None,None,305.9821106738997,None,,11,001,2021_Oct_06_1005,searchDisc4,2021.2.3,60.02341369302602,
images/exp2c_trial_21_colour2_distractors4_l.png,l,f,2c,21,2,4,,,,,0,97,97,834,,,,,,,,,,,,,,,,,,,,,,,,,,,,,,,,,,,,,,,,,,,,,,,,,,,,,,,,,,,,,,,,,,,,,,,,,,,,305.9820439409996,None,space,0.2999354700004915,305.9820439409996,None,306.3505562459977,None,f,1,0.6515063900005771,306.3505562459977,None,307.0317865798967,None,None,307.0317865798967,None,,11,001,2021_Oct_06_1005,searchDisc4,2021.2.3,60.02341369302602,
images/exp2a_trial_85_colour2_distractors4_l.png,l,f,2a,85,2,4,,,,,0,98,98,514,,,,,,,,,,,,,,,,,,,,,,,,,,,,,,,,,,,,,,,,,,,,,,,,,,,,,,,,,,,,,,,,,,,,,,,,,,,,307.03197929799717,None,space,0.2661136370006716,307.03197929799717,None,307.3671416529978,None,f,1,0.7390070229994308,307.3671416529978,None,308.13234620289916,None,None,308.13234620289916,None,,11,001,2021_Oct_06_1005,searchDisc4,2021.2.3,60.02341369302602,
images/exp2c_trial_170_colour3_distractors1_r.png,r,j,2c,170,3,1,,,,,0,99,99,23,,,,,,,,,,,,,,,,,,,,,,,,,,,,,,,,,,,,,,,,,,,,,,,,,,,,,,,,,,,,,,,,,,,,,,,,,,,,308.13250983099715,None,space,0.21357453999735299,308.13250983099715,None,308.41572558400003,None,j,1,0.8105652960002772,308.41572558400003,None,309.2486557748995,None,None,309.2486557748995,None,,11,001,2021_Oct_06_1005,searchDisc4,2021.2.3,60.02341369302602,
images/exp1a_trial_111_colour1_distractors1_l.png,l,f,1a,111,1,1,,,,,0,100,100,156,,,,,,,,,,,,,,,,,,,,,,,,,,,,,,,,,,,,,,,,,,,,,,,,,,,,,,,,,,,,,,,,,,,,,,,,,,,,309.24804237699936,None,space,0.2901665380013583,309.24804237699936,None,309.5986817519988,None,f,1,1.043617040002573,309.5986817519988,None,310.66579961989885,None,None,310.66579961989885,None,,11,001,2021_Oct_06_1005,searchDisc4,2021.2.3,60.02341369302602,
images/exp2a_trial_172_colour3_distractors9_r.png,r,j,2a,172,3,9,,,,,0,101,101,601,,,,,,,,,,,,,,,,,,,,,,,,,,,,,,,,,,,,,,,,,,,,,,,,,,,,,,,,,,,,,,,,,,,,,,,,,,,,310.6650523139979,None,space,0.26522199399914825,310.6650523139979,None,311.0005667999976,None,j,1,0.7538123079975776,311.0005667999976,None,311.782337885899,None,None,311.782337885899,None,,11,001,2021_Oct_06_1005,searchDisc4,2021.2.3,60.02341369302602,
images/exp1b_trial_191_colour0_distractors0_l.png,l,f,1b,191,0,0,,,,,0,102,102,428,,,,,,,,,,,,,,,,,,,,,,,,,,,,,,,,,,,,,,,,,,,,,,,,,,,,,,,,,,,,,,,,,,,,,,,,,,,,311.78164373399704,None,space,0.24470586200186517,311.78164373399704,None,312.0904616919979,None,f,1,0.7359698100008245,312.0904616919979,None,312.8489427568999,None,None,312.8489427568999,None,,11,001,2021_Oct_06_1005,searchDisc4,2021.2.3,60.02341369302602,
images/exp1a_trial_53_colour2_distractors4_l.png,l,f,1a,53,2,4,,,,,0,103,103,98,,,,,,,,,,,,,,,,,,,,,,,,,,,,,,,,,,,,,,,,,,,,,,,,,,,,,,,,,,,,,,,,,,,,,,,,,,,,312.8492138949987,None,space,0.28917620400170563,312.8492138949987,None,313.21785206399727,None,f,1,1.0406374110025354,313.21785206399727,None,314.2821503038973,None,None,314.2821503038973,None,,11,001,2021_Oct_06_1005,searchDisc4,2021.2.3,60.02341369302602,
images/exp1a_trial_166_colour2_distractors4_r.png,r,j,1a,166,2,4,,,,,0,104,104,211,,,,,,,,,,,,,,,,,,,,,,,,,,,,,,,,,,,,,,,,,,,,,,,,,,,,,,,,,,,,,,,,,,,,,,,,,,,,314.2824294469974,None,space,0.4560273690003669,314.2824294469974,None,314.817626885997,None,j,1,0.792924479002977,314.817626885997,None,315.6319184868986,None,None,315.6319184868986,None,,11,001,2021_Oct_06_1005,searchDisc4,2021.2.3,60.02341369302602,
images/exp2a_trial_163_colour1_distractors19_r.png,r,j,2a,163,1,19,,,,,0,105,105,592,,,,,,,,,,,,,,,,,,,,,,,,,,,,,,,,,,,,,,,,,,,,,,,,,,,,,,,,,,,,,,,,,,,,,,,,,,,,315.63212084599945,None,space,0.31437576900134445,315.63212084599945,None,316.0181443469992,None,j,1,0.9444688279982074,316.0181443469992,None,316.98285516089857,None,None,316.98285516089857,None,,11,001,2021_Oct_06_1005,searchDisc4,2021.2.3,60.02341369302602,
images/exp2b_trial_41_colour2_distractors31_r.png,r,j,2b,41,2,31,,,,,0,106,106,662,,,,,,,,,,,,,,,,,,,,,,,,,,,,,,,,,,,,,,,,,,,,,,,,,,,,,,,,,,,,,,,,,,,,,,,,,,,,316.9821331699968,None,space,0.2604167670033348,316.9821331699968,None,317.31600723599695,None,j,1,0.8146354220007197,317.31600723599695,None,318.1485616658971,None,None,318.1485616658971,None,,11,001,2021_Oct_06_1005,searchDisc4,2021.2.3,60.02341369302602,
images/exp1a_trial_3_colour1_distractors19_r.png,r,j,1a,3,1,19,,,,,0,107,107,48,,,,,,,,,,,,,,,,,,,,,,,,,,,,,,,,,,,,,,,,,,,,,,,,,,,,,,,,,,,,,,,,,,,,,,,,,,,,318.14903787000003,None,space,0.3575405990013678,318.14903787000003,None,318.58477826299713,None,j,1,0.6899411829981545,318.58477826299713,None,319.2993358018972,None,None,319.2993358018972,None,,11,001,2021_Oct_06_1005,searchDisc4,2021.2.3,60.02341369302602,
images/exp2c_trial_188_colour3_distractors19_l.png,l,f,2c,188,3,19,,,,,0,108,108,41,,,,,,,,,,,,,,,,,,,,,,,,,,,,,,,,,,,,,,,,,,,,,,,,,,,,,,,,,,,,,,,,,,,,,,,,,,,,319.2986477679988,None,space,0.4240503510009148,319.2986477679988,None,319.8014008069986,None,f,1,0.9853953150013695,319.8014008069986,None,320.81601913389716,None,None,320.81601913389716,None,,11,001,2021_Oct_06_1005,searchDisc4,2021.2.3,60.02341369302602,
images/exp1b_trial_98_colour1_distractors9_r.png,r,j,1b,98,1,9,,,,,0,109,109,335,,,,,,,,,,,,,,,,,,,,,,,,,,,,,,,,,,,,,,,,,,,,,,,,,,,,,,,,,,,,,,,,,,,,,,,,,,,,320.81631881799694,None,space,0.2744554579985561,320.81631881799694,None,321.1661796579974,None,j,1,0.9406161240003712,321.1661796579974,None,322.13260958789726,None,None,322.13260958789726,None,,11,001,2021_Oct_06_1005,searchDisc4,2021.2.3,60.02341369302602,
images/exp2b_trial_128_colour1_distractors1_r.png,r,j,2b,128,1,1,,,,,0,110,110,749,,,,,,,,,,,,,,,,,,,,,,,,,,,,,,,,,,,,,,,,,,,,,,,,,,,,,,,,,,,,,,,,,,,,,,,,,,,,322.13193083700025,None,space,0.2868841830022575,322.13193083700025,None,322.4824098459976,None,j,1,0.6884802319982555,322.4824098459976,None,323.1994941288973,None,None,323.1994941288973,None,,11,001,2021_Oct_06_1005,searchDisc4,2021.2.3,60.02341369302602,
images/exp1b_trial_92_colour3_distractors19_l.png,l,f,1b,92,3,19,,,,,0,111,111,329,,,,,,,,,,,,,,,,,,,,,,,,,,,,,,,,,,,,,,,,,,,,,,,,,,,,,,,,,,,,,,,,,,,,,,,,,,,,323.19881183399775,None,space,0.32406568700025673,323.19881183399775,None,323.60141984099755,None,f,1,1.0415654749995156,323.60141984099755,None,324.6660720049,None,None,324.6660720049,None,,11,001,2021_Oct_06_1005,searchDisc4,2021.2.3,60.02341369302602,
images/exp2c_trial_147_colour1_distractors31_l.png,l,f,2c,147,1,31,,,,,0,112,112,0,,,,,,,,,,,,,,,,,,,,,,,,,,,,,,,,,,,,,,,,,,,,,,,,,,,,,,,,,,,,,,,,,,,,,,,,,,,,324.6663193259992,None,space,0.2645623819989851,324.6663193259992,None,325.00169520899726,None,f,1,0.9132540709979367,325.00169520899726,None,325.9322319258969,None,None,325.9322319258969,None,,11,001,2021_Oct_06_1005,searchDisc4,2021.2.3,60.02341369302602,
images/exp2c_trial_97_colour1_distractors4_r.png,r,j,2c,97,1,4,,,,,0,113,113,910,,,,,,,,,,,,,,,,,,,,,,,,,,,,,,,,,,,,,,,,,,,,,,,,,,,,,,,,,,,,,,,,,,,,,,,,,,,,325.93242158799694,None,space,0.27056012600223767,325.93242158799694,None,326.28500148499734,None,j,1,0.8060004130020388,326.28500148499734,None,327.11610932289807,None,None,327.11610932289807,None,,11,001,2021_Oct_06_1005,searchDisc4,2021.2.3,60.02341369302602,
images/exp2a_trial_121_colour3_distractors1_l.png,l,f,2a,121,3,1,,,,,0,114,114,550,,,,,,,,,,,,,,,,,,,,,,,,,,,,,,,,,,,,,,,,,,,,,,,,,,,,,,,,,,,,,,,,,,,,,,,,,,,,327.11610042999746,None,space,0.29495662699991954,327.11610042999746,None,327.48273979199803,None,f,1,0.7763979529991047,327.48273979199803,None,328.28296908289815,None,None,328.28296908289815,None,,11,001,2021_Oct_06_1005,searchDisc4,2021.2.3,60.02341369302602,
images/exp2b_trial_71_colour2_distractors9_r.png,r,j,2b,71,2,9,,,,,0,115,115,692,,,,,,,,,,,,,,,,,,,,,,,,,,,,,,,,,,,,,,,,,,,,,,,,,,,,,,,,,,,,,,,,,,,,,,,,,,,,328.282447349,None,space,0.2165759359995718,328.282447349,None,328.5677282179968,None,j,1,0.7874553600013314,328.5677282179968,None,329.38289711189975,None,None,329.38289711189975,None,,11,001,2021_Oct_06_1005,searchDisc4,2021.2.3,60.02341369302602,
images/exp2c_trial_135_colour2_distractors9_r.png,r,j,2c,135,2,9,,,,,0,116,116,948,,,,,,,,,,,,,,,,,,,,,,,,,,,,,,,,,,,,,,,,,,,,,,,,,,,,,,,,,,,,,,,,,,,,,,,,,,,,329.38304291999884,None,space,0.33210651600165875,329.38304291999884,None,329.78490799499923,None,j,1,0.7223327110004902,329.78490799499923,None,330.53293083790015,None,None,330.53293083790015,None,,11,001,2021_Oct_06_1005,searchDisc4,2021.2.3,60.02341369302602,
images/exp2a_trial_25_colour3_distractors1_l.png,l,f,2a,25,3,1,,,,,0,117,117,454,,,,,,,,,,,,,,,,,,,,,,,,,,,,,,,,,,,,,,,,,,,,,,,,,,,,,,,,,,,,,,,,,,,,,,,,,,,,330.5328607629999,None,space,0.3504143190002651,330.5328607629999,None,330.95158138699844,None,f,1,0.6996516330000304,330.95158138699844,None,331.68306793289923,None,None,331.68306793289923,None,,11,001,2021_Oct_06_1005,searchDisc4,2021.2.3,60.02341369302602,
images/exp2c_trial_82_colour1_distractors19_l.png,l,f,2c,82,1,19,,,,,0,118,118,895,,,,,,,,,,,,,,,,,,,,,,,,,,,,,,,,,,,,,,,,,,,,,,,,,,,,,,,,,,,,,,,,,,,,,,,,,,,,331.68233180099924,None,space,0.41686478599876864,331.68233180099924,None,332.16837840899825,None,f,1,0.7389710259994899,332.16837840899825,None,332.9330896308999,None,None,332.9330896308999,None,,11,001,2021_Oct_06_1005,searchDisc4,2021.2.3,60.02341369302602,
images/exp2a_trial_190_colour0_distractors0_r.png,r,j,2a,190,0,0,,,,,0,119,119,619,,,,,,,,,,,,,,,,,,,,,,,,,,,,,,,,,,,,,,,,,,,,,,,,,,,,,,,,,,,,,,,,,,,,,,,,,,,,332.93237704700005,None,space,0.27892567700109794,332.93237704700005,None,333.275089286999,None,j,1,0.7043138160006492,333.275089286999,None,333.99936335500024,None,space,333.99936335500024,None,9.404436145003274,11,001,2021_Oct_06_1005,searchDisc4,2021.2.3,60.02341369302602,
images/exp2b_trial_17_colour1_distractors9_l.png,l,f,2b,17,1,9,,,,,0,120,120,638,,,,,,,,,,,,,,,,,,,,,,,,,,,,,,,,,,,,,,,,,,,,,,,,,,,,,,,,,,,,,,,,,,,,,,,,,,,,343.4354754369997,None,space,0.7924022410006728,343.4354754369997,None,344.28324296199935,None,f,1,0.6326791489991592,344.28324296199935,None,344.93353712789724,None,None,344.93353712789724,None,,11,001,2021_Oct_06_1005,searchDisc4,2021.2.3,60.02341369302602,
images/exp2c_trial_137_colour2_distractors31_r.png,r,j,2c,137,2,31,,,,,0,121,121,950,,,,,,,,,,,,,,,,,,,,,,,,,,,,,,,,,,,,,,,,,,,,,,,,,,,,,,,,,,,,,,,,,,,,,,,,,,,,344.9334321879978,None,space,0.37443474500105367,344.9334321879978,None,345.3835028879985,None,j,1,0.6764558330032742,345.3835028879985,None,346.0834689699001,None,None,346.0834689699001,None,,11,001,2021_Oct_06_1005,searchDisc4,2021.2.3,60.02341369302602,
images/exp1a_trial_22_colour2_distractors9_l.png,l,f,1a,22,2,9,,,,,0,122,122,67,,,,,,,,,,,,,,,,,,,,,,,,,,,,,,,,,,,,,,,,,,,,,,,,,,,,,,,,,,,,,,,,,,,,,,,,,,,,346.08266612999796,None,space,0.4972596369989333,346.08266612999796,None,346.6522666409983,None,f,1,0.6557472960012092,346.6522666409983,None,347.3333721548985,None,None,347.3333721548985,None,,11,001,2021_Oct_06_1005,searchDisc4,2021.2.3,60.02341369302602,
images/exp2c_trial_189_colour3_distractors31_l.png,l,f,2c,189,3,31,,,,,0,123,123,42,,,,,,,,,,,,,,,,,,,,,,,,,,,,,,,,,,,,,,,,,,,,,,,,,,,,,,,,,,,,,,,,,,,,,,,,,,,,347.33327678599744,None,space,0.7026597750009387,347.33327678599744,None,348.1187070099986,None,f,1,0.7653232060001756,348.1187070099986,None,348.9168469718967,None,None,348.9168469718967,None,,11,001,2021_Oct_06_1005,searchDisc4,2021.2.3,60.02341369302602,
images/exp1a_trial_189_colour3_distractors31_l.png,l,f,1a,189,3,31,,,,,0,124,124,234,,,,,,,,,,,,,,,,,,,,,,,,,,,,,,,,,,,,,,,,,,,,,,,,,,,,,,,,,,,,,,,,,,,,,,,,,,,,348.9167828749996,None,space,0.5432795630003966,348.9167828749996,None,349.5356780410002,None,f,1,0.8204784859990468,349.5356780410002,None,350.38329100589874,None,None,350.38329100589874,None,,11,001,2021_Oct_06_1005,searchDisc4,2021.2.3,60.02341369302602,
images/exp2a_trial_189_colour3_distractors31_l.png,l,f,2a,189,3,31,,,,,0,125,125,618,,,,,,,,,,,,,,,,,,,,,,,,,,,,,,,,,,,,,,,,,,,,,,,,,,,,,,,,,,,,,,,,,,,,,,,,,,,,350.3835388849984,None,space,0.43656003199794213,350.3835388849984,None,350.90251485899716,None,f,1,0.6696978910003963,350.90251485899716,None,351.6002142028989,None,None,351.6002142028989,None,,11,001,2021_Oct_06_1005,searchDisc4,2021.2.3,60.02341369302602,
images/exp1a_trial_180_colour2_distractors1_l.png,l,f,1a,180,2,1,,,,,0,126,126,225,,,,,,,,,,,,,,,,,,,,,,,,,,,,,,,,,,,,,,,,,,,,,,,,,,,,,,,,,,,,,,,,,,,,,,,,,,,,351.60041984599957,None,space,0.49167463800040423,351.60041984599957,None,352.16907176199675,None,f,1,0.6752010679992964,352.16907176199675,None,352.8666596688996,None,None,352.8666596688996,None,,11,001,2021_Oct_06_1005,searchDisc4,2021.2.3,60.02341369302602,
images/exp1a_trial_46_colour3_distractors31_r.png,r,j,1a,46,3,31,,,,,0,127,127,91,,,,,,,,,,,,,,,,,,,,,,,,,,,,,,,,,,,,,,,,,,,,,,,,,,,,,,,,,,,,,,,,,,,,,,,,,,,,352.866888286997,None,space,0.43334743400191655,352.866888286997,None,353.3685265439999,None,j,1,0.7958011770024314,353.3685265439999,None,354.18338069689673,None,None,354.18338069689673,None,,11,001,2021_Oct_06_1005,searchDisc4,2021.2.3,60.02341369302602,
images/exp2c_trial_59_colour3_distractors9_l.png,l,f,2c,59,3,9,,,,,0,128,128,872,,,,,,,,,,,,,,,,,,,,,,,,,,,,,,,,,,,,,,,,,,,,,,,,,,,,,,,,,,,,,,,,,,,,,,,,,,,,354.18334237199815,None,space,0.4289446000002499,354.18334237199815,None,354.6839426919978,None,f,1,0.5924530689990206,354.6839426919978,None,355.30014145889766,None,None,355.30014145889766,None,,11,001,2021_Oct_06_1005,searchDisc4,2021.2.3,60.02341369302602,
images/exp2b_trial_16_colour1_distractors4_l.png,l,f,2b,16,1,4,,,,,0,129,129,637,,,,,,,,,,,,,,,,,,,,,,,,,,,,,,,,,,,,,,,,,,,,,,,,,,,,,,,,,,,,,,,,,,,,,,,,,,,,355.2997468939975,None,space,0.5045257409983606,355.2997468939975,None,355.8670012139992,None,f,1,0.6893530179986556,355.8670012139992,None,356.5835526328989,None,None,356.5835526328989,None,,11,001,2021_Oct_06_1005,searchDisc4,2021.2.3,60.02341369302602,
images/exp1a_trial_148_colour2_distractors1_l.png,l,f,1a,148,2,1,,,,,0,130,130,193,,,,,,,,,,,,,,,,,,,,,,,,,,,,,,,,,,,,,,,,,,,,,,,,,,,,,,,,,,,,,,,,,,,,,,,,,,,,356.5829579499987,None,space,0.3894534230021236,356.5829579499987,None,357.0525627899988,None,f,1,0.9439617080024618,357.0525627899988,None,358.01670919189894,None,None,358.01670919189894,None,,11,001,2021_Oct_06_1005,searchDisc4,2021.2.3,60.02341369302602,
images/exp2b_trial_98_colour1_distractors9_r.png,r,j,2b,98,1,9,,,,,0,131,131,719,,,,,,,,,,,,,,,,,,,,,,,,,,,,,,,,,,,,,,,,,,,,,,,,,,,,,,,,,,,,,,,,,,,,,,,,,,,,358.016246723997,None,space,0.6362323569992441,358.016246723997,None,358.7360534289983,None,j,1,0.7564526260030107,358.7360534289983,None,359.5171683609002,None,None,359.5171683609002,None,,11,001,2021_Oct_06_1005,searchDisc4,2021.2.3,60.02341369302602,
images/exp1a_trial_98_colour1_distractors9_r.png,r,j,1a,98,1,9,,,,,0,132,132,143,,,,,,,,,,,,,,,,,,,,,,,,,,,,,,,,,,,,,,,,,,,,,,,,,,,,,,,,,,,,,,,,,,,,,,,,,,,,359.5171990529998,None,space,0.6313036009996722,359.5171990529998,None,360.21731331499905,None,j,1,0.7553339879996201,360.21731331499905,None,361.0005010348974,None,None,361.0005010348974,None,,11,001,2021_Oct_06_1005,searchDisc4,2021.2.3,60.02341369302602,
images/exp1b_trial_171_colour3_distractors4_r.png,r,j,1b,171,3,4,,,,,0,133,133,408,,,,,,,,,,,,,,,,,,,,,,,,,,,,,,,,,,,,,,,,,,,,,,,,,,,,,,,,,,,,,,,,,,,,,,,,,,,,361.00052438299826,None,space,0.7001068889985618,361.00052438299826,None,361.7694887559992,None,j,1,0.9471535809971101,361.7694887559992,None,362.7337918428999,None,None,362.7337918428999,None,,11,001,2021_Oct_06_1005,searchDisc4,2021.2.3,60.02341369302602,
images/exp2c_trial_105_colour2_distractors31_r.png,r,j,2c,105,2,31,,,,,0,134,134,918,,,,,,,,,,,,,,,,,,,,,,,,,,,,,,,,,,,,,,,,,,,,,,,,,,,,,,,,,,,,,,,,,,,,,,,,,,,,362.7334263809971,None,space,0.4552629680001701,362.7334263809971,None,363.2694872949978,None,j,1,0.6312138579996827,363.2694872949978,None,363.93385799289865,None,None,363.93385799289865,None,,11,001,2021_Oct_06_1005,searchDisc4,2021.2.3,60.02341369302602,
images/exp2c_trial_152_colour2_distractors31_l.png,l,f,2c,152,2,31,,,,,0,135,135,5,,,,,,,,,,,,,,,,,,,,,,,,,,,,,,,,,,,,,,,,,,,,,,,,,,,,,,,,,,,,,,,,,,,,,,,,,,,,363.9333791539975,None,space,0.471369640003104,363.9333791539975,None,364.48617039300007,None,f,1,0.782661556997482,364.48617039300007,None,365.30080853889706,None,None,365.30080853889706,None,,11,001,2021_Oct_06_1005,searchDisc4,2021.2.3,60.02341369302602,
images/exp2c_trial_86_colour2_distractors9_l.png,l,f,2c,86,2,9,,,,,0,136,136,899,,,,,,,,,,,,,,,,,,,,,,,,,,,,,,,,,,,,,,,,,,,,,,,,,,,,,,,,,,,,,,,,,,,,,,,,,,,,365.30008220299715,None,space,0.592736225000408,365.30008220299715,None,365.96948181599873,None,f,1,0.5394146800026647,365.96948181599873,None,366.5339837138996,None,None,366.5339837138996,None,,11,001,2021_Oct_06_1005,searchDisc4,2021.2.3,60.02341369302602,
images/exp1b_trial_177_colour1_distractors9_l.png,l,f,1b,177,1,9,,,,,0,137,137,414,,,,,,,,,,,,,,,,,,,,,,,,,,,,,,,,,,,,,,,,,,,,,,,,,,,,,,,,,,,,,,,,,,,,,,,,,,,,366.5338010029991,None,space,0.4310694619998685,366.5338010029991,None,367.03624198599937,None,f,1,0.5927069490026042,367.03624198599937,None,367.6503481508986,None,None,367.6503481508986,None,,11,001,2021_Oct_06_1005,searchDisc4,2021.2.3,60.02341369302602,
images/exp2a_trial_138_colour3_distractors1_r.png,r,j,2a,138,3,1,,,,,0,138,138,567,,,,,,,,,,,,,,,,,,,,,,,,,,,,,,,,,,,,,,,,,,,,,,,,,,,,,,,,,,,,,,,,,,,,,,,,,,,,367.6506404899992,None,space,0.4582750070003385,367.6506404899992,None,368.1758429989968,None,j,1,0.9811980109989236,368.1758429989968,None,369.18398343889896,None,None,369.18398343889896,None,,11,001,2021_Oct_06_1005,searchDisc4,2021.2.3,60.02341369302602,
images/exp2c_trial_1_colour1_distractors4_r.png,r,j,2c,1,1,4,,,,,0,139,139,814,,,,,,,,,,,,,,,,,,,,,,,,,,,,,,,,,,,,,,,,,,,,,,,,,,,,,,,,,,,,,,,,,,,,,,,,,,,,369.1833002159983,None,space,0.4456252169984509,369.1833002159983,None,369.6835473729989,None,j,1,0.7055434159992728,369.6835473729989,None,370.41741321789925,None,None,370.41741321789925,None,,11,001,2021_Oct_06_1005,searchDisc4,2021.2.3,60.02341369302602,
images/exp2c_trial_72_colour2_distractors19_r.png,r,j,2c,72,2,19,,,,,0,140,140,885,,,,,,,,,,,,,,,,,,,,,,,,,,,,,,,,,,,,,,,,,,,,,,,,,,,,,,,,,,,,,,,,,,,,,,,,,,,,370.41764152599717,None,space,0.4914036589980242,370.41764152599717,None,370.98620551099884,None,j,1,0.6109238500030187,370.98620551099884,None,371.61734430389663,None,None,371.61734430389663,None,,11,001,2021_Oct_06_1005,searchDisc4,2021.2.3,60.02341369302602,
images/exp1b_trial_160_colour1_distractors1_r.png,r,j,1b,160,1,1,,,,,0,141,141,397,,,,,,,,,,,,,,,,,,,,,,,,,,,,,,,,,,,,,,,,,,,,,,,,,,,,,,,,,,,,,,,,,,,,,,,,,,,,371.61745978399995,None,space,0.6036565340000379,371.61745978399995,None,372.29272519799997,None,j,1,0.5844668959980481,372.29272519799997,None,372.9008357288982,None,None,372.9008357288982,None,,11,001,2021_Oct_06_1005,searchDisc4,2021.2.3,60.02341369302602,
images/exp2b_trial_4_colour1_distractors31_r.png,r,j,2b,4,1,31,,,,,0,142,142,625,,,,,,,,,,,,,,,,,,,,,,,,,,,,,,,,,,,,,,,,,,,,,,,,,,,,,,,,,,,,,,,,,,,,,,,,,,,,372.90000918700025,None,space,0.4971470880009292,372.90000918700025,None,373.4697305789996,None,j,1,0.6395134379999945,373.4697305789996,None,374.13399213189734,None,None,374.13399213189734,None,,11,001,2021_Oct_06_1005,searchDisc4,2021.2.3,60.02341369302602,
images/exp2c_trial_64_colour1_distractors1_r.png,r,j,2c,64,1,1,,,,,0,143,143,877,,,,,,,,,,,,,,,,,,,,,,,,,,,,,,,,,,,,,,,,,,,,,,,,,,,,,,,,,,,,,,,,,,,,,,,,,,,,374.1341607059985,None,space,0.43106536800041795,374.1341607059985,None,374.6362805309982,None,j,1,0.6090216170014173,374.6362805309982,None,375.26763695189914,None,None,375.26763695189914,None,,11,001,2021_Oct_06_1005,searchDisc4,2021.2.3,60.02341369302602,
images/exp2c_trial_89_colour3_distractors1_l.png,l,f,2c,89,3,1,,,,,0,144,144,902,,,,,,,,,,,,,,,,,,,,,,,,,,,,,,,,,,,,,,,,,,,,,,,,,,,,,,,,,,,,,,,,,,,,,,,,,,,,375.26771444399856,None,space,0.4255491820003954,375.26771444399856,None,375.7700469529991,None,f,1,0.7872577119997004,375.7700469529991,None,376.5837560698998,None,None,376.5837560698998,None,,11,001,2021_Oct_06_1005,searchDisc4,2021.2.3,60.02341369302602,
images/exp1a_trial_150_colour2_distractors9_l.png,l,f,1a,150,2,9,,,,,0,145,145,195,,,,,,,,,,,,,,,,,,,,,,,,,,,,,,,,,,,,,,,,,,,,,,,,,,,,,,,,,,,,,,,,,,,,,,,,,,,,376.58379581199915,None,space,0.4855373150021478,376.58379581199915,None,377.1365511449985,None,f,1,0.6528707789984765,377.1365511449985,None,377.81761286289805,None,None,377.81761286289805,None,,11,001,2021_Oct_06_1005,searchDisc4,2021.2.3,60.02341369302602,
images/exp1b_trial_100_colour1_distractors31_r.png,r,j,1b,100,1,31,,,,,0,146,146,337,,,,,,,,,,,,,,,,,,,,,,,,,,,,,,,,,,,,,,,,,,,,,,,,,,,,,,,,,,,,,,,,,,,,,,,,,,,,377.81747503399674,None,space,0.3399199839986977,377.81747503399674,None,378.23633457999676,None,j,1,0.7051387339997746,378.23633457999676,None,378.9667743858987,None,None,378.9667743858987,None,,11,001,2021_Oct_06_1005,searchDisc4,2021.2.3,60.02341369302602,
images/exp2a_trial_95_colour0_distractors0_l.png,l,f,2a,95,0,0,,,,,0,147,147,524,,,,,,,,,,,,,,,,,,,,,,,,,,,,,,,,,,,,,,,,,,,,,,,,,,,,,,,,,,,,,,,,,,,,,,,,,,,,378.9671263739983,None,space,0.40631165499871713,378.9671263739983,None,379.44240053799876,None,f,1,0.8431352029983827,379.44240053799876,None,380.3177177048998,None,None,380.3177177048998,None,,11,001,2021_Oct_06_1005,searchDisc4,2021.2.3,60.02341369302602,
images/exp2b_trial_157_colour3_distractors31_l.png,l,f,2b,157,3,31,,,,,0,148,148,778,,,,,,,,,,,,,,,,,,,,,,,,,,,,,,,,,,,,,,,,,,,,,,,,,,,,,,,,,,,,,,,,,,,,,,,,,,,,380.31766150399926,None,space,0.3998457749985391,380.31766150399926,None,380.78660045599827,None,f,1,0.6829284919986094,380.78660045599827,None,381.5010127728998,None,None,381.5010127728998,None,,11,001,2021_Oct_06_1005,searchDisc4,2021.2.3,60.02341369302602,
images/exp2c_trial_113_colour1_distractors9_l.png,l,f,2c,113,1,9,,,,,0,149,149,926,,,,,,,,,,,,,,,,,,,,,,,,,,,,,,,,,,,,,,,,,,,,,,,,,,,,,,,,,,,,,,,,,,,,,,,,,,,,381.50098297399745,None,space,0.35251140300169936,381.50098297399745,None,381.9181827889988,None,f,1,0.7034740070012049,381.9181827889988,None,382.6511364398972,None,None,382.6511364398972,None,,11,001,2021_Oct_06_1005,searchDisc4,2021.2.3,60.02341369302602,
images/exp1a_trial_13_colour3_distractors19_r.png,r,j,1a,13,3,19,,,,,0,150,150,58,,,,,,,,,,,,,,,,,,,,,,,,,,,,,,,,,,,,,,,,,,,,,,,,,,,,,,,,,,,,,,,,,,,,,,,,,,,,382.65045344399914,None,space,0.403097076999984,382.65045344399914,None,383.13625292699726,None,j,1,0.7653920109987666,383.13625292699726,None,383.9344758968979,None,None,383.9344758968979,None,,11,001,2021_Oct_06_1005,searchDisc4,2021.2.3,60.02341369302602,
images/exp2c_trial_39_colour2_distractors9_r.png,r,j,2c,39,2,9,,,,,0,151,151,852,,,,,,,,,,,,,,,,,,,,,,,,,,,,,,,,,,,,,,,,,,,,,,,,,,,,,,,,,,,,,,,,,,,,,,,,,,,,383.93441231799807,None,space,0.391185532000236,383.93441231799807,None,384.40333441599796,None,j,1,0.7784218100023281,384.40333441599796,None,385.2007672128999,None,None,385.2007672128999,None,,11,001,2021_Oct_06_1005,searchDisc4,2021.2.3,60.02341369302602,
images/exp1a_trial_130_colour1_distractors9_r.png,r,j,1a,130,1,9,,,,,0,152,152,175,,,,,,,,,,,,,,,,,,,,,,,,,,,,,,,,,,,,,,,,,,,,,,,,,,,,,,,,,,,,,,,,,,,,,,,,,,,,385.2009470399971,None,space,0.49268599200149765,385.2009470399971,None,385.7680460079973,None,j,1,0.6457692590010993,385.7680460079973,None,386.4340271528996,None,None,386.4340271528996,None,,11,001,2021_Oct_06_1005,searchDisc4,2021.2.3,60.02341369302602,
images/exp2b_trial_48_colour1_distractors4_l.png,l,f,2b,48,1,4,,,,,0,153,153,669,,,,,,,,,,,,,,,,,,,,,,,,,,,,,,,,,,,,,,,,,,,,,,,,,,,,,,,,,,,,,,,,,,,,,,,,,,,,386.4343838099994,None,space,0.4673439110010804,386.4343838099994,None,386.9750622369975,None,f,1,0.6947899549995782,386.9750622369975,None,387.70127478989855,None,None,387.70127478989855,None,,11,001,2021_Oct_06_1005,searchDisc4,2021.2.3,60.02341369302602,
images/exp2a_trial_171_colour3_distractors4_r.png,r,j,2a,171,3,4,,,,,0,154,154,600,,,,,,,,,,,,,,,,,,,,,,,,,,,,,,,,,,,,,,,,,,,,,,,,,,,,,,,,,,,,,,,,,,,,,,,,,,,,387.7014012019972,None,space,0.3444507780004642,387.7014012019972,None,388.1200840849997,None,j,1,0.8538467479993415,388.1200840849997,None,389.00139605589686,None,None,389.00139605589686,None,,11,001,2021_Oct_06_1005,searchDisc4,2021.2.3,60.02341369302602,
images/exp2c_trial_90_colour3_distractors4_l.png,l,f,2c,90,3,4,,,,,0,155,155,903,,,,,,,,,,,,,,,,,,,,,,,,,,,,,,,,,,,,,,,,,,,,,,,,,,,,,,,,,,,,,,,,,,,,,,,,,,,,389.00087769299716,None,space,0.2930292429991823,389.00087769299716,None,389.36807143699843,None,f,1,0.6699261799985834,389.36807143699843,None,390.0681341078995,None,None,390.0681341078995,None,,11,001,2021_Oct_06_1005,searchDisc4,2021.2.3,60.02341369302602,
images/exp2b_trial_123_colour3_distractors9_l.png,l,f,2b,123,3,9,,,,,0,156,156,744,,,,,,,,,,,,,,,,,,,,,,,,,,,,,,,,,,,,,,,,,,,,,,,,,,,,,,,,,,,,,,,,,,,,,,,,,,,,390.06792437499826,None,space,0.3060293019989331,390.06792437499826,None,390.4535377159991,None,f,1,0.7604980549986067,390.4535377159991,None,391.2341836028969,None,None,391.2341836028969,None,,11,001,2021_Oct_06_1005,searchDisc4,2021.2.3,60.02341369302602,
images/exp1a_trial_179_colour1_distractors31_l.png,l,f,1a,179,1,31,,,,,0,157,157,224,,,,,,,,,,,,,,,,,,,,,,,,,,,,,,,,,,,,,,,,,,,,,,,,,,,,,,,,,,,,,,,,,,,,,,,,,,,,391.23460881400024,None,space,0.3873300199993537,391.23460881400024,None,391.70414003899714,None,f,1,0.9819508859982307,391.70414003899714,None,392.7180635018991,None,None,392.7180635018991,None,,11,001,2021_Oct_06_1005,searchDisc4,2021.2.3,60.02341369302602,
images/exp1b_trial_22_colour2_distractors9_l.png,l,f,1b,22,2,9,,,,,0,158,158,259,,,,,,,,,,,,,,,,,,,,,,,,,,,,,,,,,,,,,,,,,,,,,,,,,,,,,,,,,,,,,,,,,,,,,,,,,,,,392.71798728799695,None,space,0.2640757900007884,392.71798728799695,None,393.042234843997,None,f,1,0.7398714830014796,393.042234843997,None,393.8012672898982,None,None,393.8012672898982,None,,11,001,2021_Oct_06_1005,searchDisc4,2021.2.3,60.02341369302602,
images/exp2b_trial_167_colour2_distractors9_r.png,r,j,2b,167,2,9,,,,,0,159,159,788,,,,,,,,,,,,,,,,,,,,,,,,,,,,,,,,,,,,,,,,,,,,,,,,,,,,,,,,,,,,,,,,,,,,,,,,,,,,393.8011517729974,None,space,0.2768671350022487,393.8011517729974,None,394.14184831199964,None,j,1,0.7283691259981424,394.14184831199964,None,394.9013457758989,None,None,394.9013457758989,None,,11,001,2021_Oct_06_1005,searchDisc4,2021.2.3,60.02341369302602,
images/exp1a_trial_105_colour2_distractors31_r.png,r,j,1a,105,2,31,,,,,0,160,160,150,,,,,,,,,,,,,,,,,,,,,,,,,,,,,,,,,,,,,,,,,,,,,,,,,,,,,,,,,,,,,,,,,,,,,,,,,,,,394.9008163159997,None,space,0.32935296300274786,394.9008163159997,None,395.3036384199986,None,j,1,0.7586181400001806,395.3036384199986,None,396.0847151999002,None,None,396.0847151999002,None,,11,001,2021_Oct_06_1005,searchDisc4,2021.2.3,60.02341369302602,
images/exp2b_trial_54_colour2_distractors9_l.png,l,f,2b,54,2,9,,,,,0,161,161,675,,,,,,,,,,,,,,,,,,,,,,,,,,,,,,,,,,,,,,,,,,,,,,,,,,,,,,,,,,,,,,,,,,,,,,,,,,,,396.0851781479978,None,space,0.3689904029997706,396.0851781479978,None,396.5246877799982,None,f,1,0.7376228159992024,396.5246877799982,None,397.28472027789724,None,None,397.28472027789724,None,,11,001,2021_Oct_06_1005,searchDisc4,2021.2.3,60.02341369302602,
images/exp1b_trial_122_colour3_distractors4_l.png,l,f,1b,122,3,4,,,,,0,162,162,359,,,,,,,,,,,,,,,,,,,,,,,,,,,,,,,,,,,,,,,,,,,,,,,,,,,,,,,,,,,,,,,,,,,,,,,,,,,,397.2851607269986,None,space,0.32111807899855194,397.2851607269986,None,397.68703529399863,None,f,1,0.9113403669980471,397.68703529399863,None,398.6186710388971,None,None,398.6186710388971,None,,11,001,2021_Oct_06_1005,searchDisc4,2021.2.3,60.02341369302602,
images/exp1a_trial_187_colour3_distractors9_l.png,l,f,1a,187,3,9,,,,,0,163,163,232,,,,,,,,,,,,,,,,,,,,,,,,,,,,,,,,,,,,,,,,,,,,,,,,,,,,,,,,,,,,,,,,,,,,,,,,,,,,398.61745987999893,None,space,0.29276557299817796,398.61745987999893,None,398.9847828509992,None,f,1,0.6056461419975676,398.9847828509992,None,399.6182022559002,None,None,399.6182022559002,None,,11,001,2021_Oct_06_1005,searchDisc4,2021.2.3,60.02341369302602,
images/exp2a_trial_55_colour2_distractors19_l.png,l,f,2a,55,2,19,,,,,0,164,164,484,,,,,,,,,,,,,,,,,,,,,,,,,,,,,,,,,,,,,,,,,,,,,,,,,,,,,,,,,,,,,,,,,,,,,,,,,,,,399.6178185359968,None,space,0.3885475969982508,399.6178185359968,None,400.0870621039976,None,f,1,0.6633535220025806,400.0870621039976,None,400.767977658899,None,None,400.767977658899,None,,11,001,2021_Oct_06_1005,searchDisc4,2021.2.3,60.02341369302602,
images/exp1a_trial_90_colour3_distractors4_l.png,l,f,1a,90,3,4,,,,,0,165,165,135,,,,,,,,,,,,,,,,,,,,,,,,,,,,,,,,,,,,,,,,,,,,,,,,,,,,,,,,,,,,,,,,,,,,,,,,,,,,400.76833635899675,None,space,0.2940933040008531,400.76833635899675,None,401.1271625169975,None,f,1,0.7513654949980264,401.1271625169975,None,401.90167359789814,None,None,401.90167359789814,None,,11,001,2021_Oct_06_1005,searchDisc4,2021.2.3,60.02341369302602,
images/exp2b_trial_106_colour3_distractors1_r.png,r,j,2b,106,3,1,,,,,0,166,166,727,,,,,,,,,,,,,,,,,,,,,,,,,,,,,,,,,,,,,,,,,,,,,,,,,,,,,,,,,,,,,,,,,,,,,,,,,,,,401.90173215899995,None,space,0.28869770200253697,401.90173215899995,None,402.2704406849989,None,j,1,0.728096432001621,402.2704406849989,None,403.01751991489766,None,None,403.01751991489766,None,,11,001,2021_Oct_06_1005,searchDisc4,2021.2.3,60.02341369302602,
images/exp2b_trial_65_colour1_distractors4_r.png,r,j,2b,65,1,4,,,,,0,167,167,686,,,,,,,,,,,,,,,,,,,,,,,,,,,,,,,,,,,,,,,,,,,,,,,,,,,,,,,,,,,,,,,,,,,,,,,,,,,,403.0177030419982,None,space,0.38887450199763407,403.0177030419982,None,403.48664491699674,None,j,1,0.7760450060013682,403.48664491699674,None,404.28520739489943,None,None,404.28520739489943,None,,11,001,2021_Oct_06_1005,searchDisc4,2021.2.3,60.02341369302602,
images/exp2b_trial_134_colour2_distractors4_r.png,r,j,2b,134,2,4,,,,,0,168,168,755,,,,,,,,,,,,,,,,,,,,,,,,,,,,,,,,,,,,,,,,,,,,,,,,,,,,,,,,,,,,,,,,,,,,,,,,,,,,404.2844423589995,None,space,0.4981808589982393,404.2844423589995,None,404.85403898099685,None,j,1,0.6726535929992679,404.85403898099685,None,405.55150218989695,None,None,405.55150218989695,None,,11,001,2021_Oct_06_1005,searchDisc4,2021.2.3,60.02341369302602,
images/exp2c_trial_179_colour1_distractors31_l.png,l,f,2c,179,1,31,,,,,0,169,169,32,,,,,,,,,,,,,,,,,,,,,,,,,,,,,,,,,,,,,,,,,,,,,,,,,,,,,,,,,,,,,,,,,,,,,,,,,,,,405.5516369629986,None,space,0.3270190920011373,405.5516369629986,None,405.95375807599703,None,f,1,0.9089981530014484,405.95375807599703,None,406.8851661738987,None,None,406.8851661738987,None,,11,001,2021_Oct_06_1005,searchDisc4,2021.2.3,60.02341369302602,
images/exp2c_trial_85_colour2_distractors4_l.png,l,f,2c,85,2,4,,,,,0,170,170,898,,,,,,,,,,,,,,,,,,,,,,,,,,,,,,,,,,,,,,,,,,,,,,,,,,,,,,,,,,,,,,,,,,,,,,,,,,,,406.8854069739973,None,space,0.2812566329994297,406.8854069739973,None,407.21828209799787,None,f,1,0.7405645750004624,407.21828209799787,None,407.9852686848968,None,None,407.9852686848968,None,,11,001,2021_Oct_06_1005,searchDisc4,2021.2.3,60.02341369302602,
images/exp1b_trial_58_colour3_distractors4_l.png,l,f,1b,58,3,4,,,,,0,171,171,295,,,,,,,,,,,,,,,,,,,,,,,,,,,,,,,,,,,,,,,,,,,,,,,,,,,,,,,,,,,,,,,,,,,,,,,,,,,,407.98441856799764,None,space,0.24634261000028346,407.98441856799764,None,408.2937293590003,None,f,1,0.9371342039994488,408.2937293590003,None,409.2520921408974,None,None,409.2520921408974,None,,11,001,2021_Oct_06_1005,searchDisc4,2021.2.3,60.02341369302602,
images/exp1b_trial_2_colour1_distractors9_r.png,r,j,1b,2,1,9,,,,,0,172,172,239,,,,,,,,,,,,,,,,,,,,,,,,,,,,,,,,,,,,,,,,,,,,,,,,,,,,,,,,,,,,,,,,,,,,,,,,,,,,409.25180993199683,None,space,0.33894124799917336,409.25180993199683,None,409.67061969699716,None,j,1,0.8722559020025074,409.67061969699716,None,410.56857820490006,None,None,410.56857820490006,None,,11,001,2021_Oct_06_1005,searchDisc4,2021.2.3,60.02341369302602,
images/exp2c_trial_132_colour1_distractors31_r.png,r,j,2c,132,1,31,,,,,0,173,173,945,,,,,,,,,,,,,,,,,,,,,,,,,,,,,,,,,,,,,,,,,,,,,,,,,,,,,,,,,,,,,,,,,,,,,,,,,,,,410.5685638759969,None,space,0.29431501100043533,410.5685638759969,None,410.9372986979979,None,j,1,1.2857191210023302,410.9372986979979,None,412.25223869789954,None,None,412.25223869789954,None,,11,001,2021_Oct_06_1005,searchDisc4,2021.2.3,60.02341369302602,
images/exp2a_trial_143_colour1_distractors1_l.png,l,f,2a,143,1,1,,,,,0,174,174,572,,,,,,,,,,,,,,,,,,,,,,,,,,,,,,,,,,,,,,,,,,,,,,,,,,,,,,,,,,,,,,,,,,,,,,,,,,,,412.2515449149978,None,space,0.33943487999931676,412.2515449149978,None,412.6708642550002,None,f,1,0.7042055530000653,412.6708642550002,None,413.4021774538993,None,None,413.4021774538993,None,,11,001,2021_Oct_06_1005,searchDisc4,2021.2.3,60.02341369302602,
images/exp2c_trial_108_colour3_distractors9_r.png,r,j,2c,108,3,9,,,,,0,175,175,921,,,,,,,,,,,,,,,,,,,,,,,,,,,,,,,,,,,,,,,,,,,,,,,,,,,,,,,,,,,,,,,,,,,,,,,,,,,,413.4014381279994,None,space,0.317516457002057,413.4014381279994,None,413.7882109079983,None,j,1,0.8589070050002192,413.7882109079983,None,414.66852136989803,None,None,414.66852136989803,None,,11,001,2021_Oct_06_1005,searchDisc4,2021.2.3,60.02341369302602,
images/exp1a_trial_2_colour1_distractors9_r.png,r,j,1a,2,1,9,,,,,0,176,176,47,,,,,,,,,,,,,,,,,,,,,,,,,,,,,,,,,,,,,,,,,,,,,,,,,,,,,,,,,,,,,,,,,,,,,,,,,,,,414.667825843997,None,space,0.3152966310008196,414.667825843997,None,415.05416590799723,None,j,1,0.7370684730012727,415.05416590799723,None,415.81845226789994,None,None,415.81845226789994,None,,11,001,2021_Oct_06_1005,searchDisc4,2021.2.3,60.02341369302602,
images/exp2b_trial_188_colour3_distractors19_l.png,l,f,2b,188,3,19,,,,,0,177,177,809,,,,,,,,,,,,,,,,,,,,,,,,,,,,,,,,,,,,,,,,,,,,,,,,,,,,,,,,,,,,,,,,,,,,,,,,,,,,415.8184357859973,None,space,0.3326802849987871,415.8184357859973,None,416.2209218909993,None,f,1,0.7862995440009399,416.2209218909993,None,417.0353910238988,None,None,417.0353910238988,None,,11,001,2021_Oct_06_1005,searchDisc4,2021.2.3,60.02341369302602,
images/exp1b_trial_155_colour3_distractors9_l.png,l,f,1b,155,3,9,,,,,0,178,178,392,,,,,,,,,,,,,,,,,,,,,,,,,,,,,,,,,,,,,,,,,,,,,,,,,,,,,,,,,,,,,,,,,,,,,,,,,,,,417.035468414997,None,space,0.33171100900290185,417.035468414997,None,417.4376034929992,None,f,1,0.8496945820006658,417.4376034929992,None,418.31884210589817,None,None,418.31884210589817,None,,11,001,2021_Oct_06_1005,searchDisc4,2021.2.3,60.02341369302602,
images/exp2a_trial_109_colour3_distractors19_r.png,r,j,2a,109,3,19,,,,,0,179,179,538,,,,,,,,,,,,,,,,,,,,,,,,,,,,,,,,,,,,,,,,,,,,,,,,,,,,,,,,,,,,,,,,,,,,,,,,,,,,418.3183285819978,None,space,0.2649405760021182,418.3183285819978,None,418.6543456959989,None,j,1,1.3290398690005532,418.6543456959989,None,420.0012060978985,None,None,420.0012060978985,None,,11,001,2021_Oct_06_1005,searchDisc4,2021.2.3,60.02341369302602,
images/exp2b_trial_182_colour2_distractors9_l.png,l,f,2b,182,2,9,,,,,0,180,180,803,,,,,,,,,,,,,,,,,,,,,,,,,,,,,,,,,,,,,,,,,,,,,,,,,,,,,,,,,,,,,,,,,,,,,,,,,,,,420.0017136989991,None,space,0.2775342599998112,420.0017136989991,None,420.34370614399813,None,f,1,0.6877043040003628,420.34370614399813,None,421.0516119348973,None,None,421.0516119348973,None,,11,001,2021_Oct_06_1005,searchDisc4,2021.2.3,60.02341369302602,
images/exp2c_trial_84_colour2_distractors1_l.png,l,f,2c,84,2,1,,,,,0,181,181,897,,,,,,,,,,,,,,,,,,,,,,,,,,,,,,,,,,,,,,,,,,,,,,,,,,,,,,,,,,,,,,,,,,,,,,,,,,,,421.05162972499966,None,space,0.28368207499806886,421.05162972499966,None,421.40429325699733,None,f,1,0.7951715790004528,421.40429325699733,None,422.21847954489897,None,None,422.21847954489897,None,,11,001,2021_Oct_06_1005,searchDisc4,2021.2.3,60.02341369302602,
images/exp2a_trial_96_colour1_distractors1_r.png,r,j,2a,96,1,1,,,,,0,182,182,525,,,,,,,,,,,,,,,,,,,,,,,,,,,,,,,,,,,,,,,,,,,,,,,,,,,,,,,,,,,,,,,,,,,,,,,,,,,,422.2185403329968,None,space,0.4528080360032618,422.2185403329968,None,422.7539092469997,None,j,1,0.733614281998598,422.7539092469997,None,423.51885337789975,None,None,423.51885337789975,None,,11,001,2021_Oct_06_1005,searchDisc4,2021.2.3,60.02341369302602,
images/exp1b_trial_10_colour3_distractors1_r.png,r,j,1b,10,3,1,,,,,0,183,183,247,,,,,,,,,,,,,,,,,,,,,,,,,,,,,,,,,,,,,,,,,,,,,,,,,,,,,,,,,,,,,,,,,,,,,,,,,,,,423.51888621899707,None,space,0.26458274600008735,423.51888621899707,None,423.8442575009976,None,j,1,0.9793304830018315,423.8442575009976,None,424.85234059089964,None,None,424.85234059089964,None,,11,001,2021_Oct_06_1005,searchDisc4,2021.2.3,60.02341369302602,
images/exp2b_trial_22_colour2_distractors9_l.png,l,f,2b,22,2,9,,,,,0,184,184,643,,,,,,,,,,,,,,,,,,,,,,,,,,,,,,,,,,,,,,,,,,,,,,,,,,,,,,,,,,,,,,,,,,,,,,,,,,,,424.8517419409982,None,space,0.283810438002547,424.8517419409982,None,425.1944588189981,None,f,1,0.8451803099997051,425.1944588189981,None,426.06897766089935,None,None,426.06897766089935,None,,11,001,2021_Oct_06_1005,searchDisc4,2021.2.3,60.02341369302602,
images/exp2c_trial_104_colour2_distractors19_r.png,r,j,2c,104,2,19,,,,,0,185,185,917,,,,,,,,,,,,,,,,,,,,,,,,,,,,,,,,,,,,,,,,,,,,,,,,,,,,,,,,,,,,,,,,,,,,,,,,,,,,426.06896390899783,None,space,0.25057502599884174,426.06896390899783,None,426.38772494399745,None,j,1,0.811970768001629,426.38772494399745,None,427.2186706068966,None,None,427.2186706068966,None,,11,001,2021_Oct_06_1005,searchDisc4,2021.2.3,60.02341369302602,
images/exp2b_trial_170_colour3_distractors1_r.png,r,j,2b,170,3,1,,,,,0,186,186,791,,,,,,,,,,,,,,,,,,,,,,,,,,,,,,,,,,,,,,,,,,,,,,,,,,,,,,,,,,,,,,,,,,,,,,,,,,,,427.2184038129999,None,space,0.3011892340000486,427.2184038129999,None,427.58781560699936,None,j,1,0.683928857997671,427.58781560699936,None,428.3023831788993,None,None,428.3023831788993,None,,11,001,2021_Oct_06_1005,searchDisc4,2021.2.3,60.02341369302602,
images/exp1a_trial_52_colour2_distractors1_l.png,l,f,1a,52,2,1,,,,,0,187,187,97,,,,,,,,,,,,,,,,,,,,,,,,,,,,,,,,,,,,,,,,,,,,,,,,,,,,,,,,,,,,,,,,,,,,,,,,,,,,428.3017808779987,None,space,0.32193594300042605,428.3017808779987,None,428.6938337699976,None,f,1,0.8339690540014999,428.6938337699976,None,429.5524433809002,None,None,429.5524433809002,None,,11,001,2021_Oct_06_1005,searchDisc4,2021.2.3,60.02341369302602,
images/exp2b_trial_176_colour1_distractors4_l.png,l,f,2b,176,1,4,,,,,0,188,188,797,,,,,,,,,,,,,,,,,,,,,,,,,,,,,,,,,,,,,,,,,,,,,,,,,,,,,,,,,,,,,,,,,,,,,,,,,,,,429.55198868200023,None,space,0.26373427400176297,429.55198868200023,None,429.8876642869982,None,f,1,0.9202096400003938,429.8876642869982,None,430.8357579348991,None,None,430.8357579348991,None,,11,001,2021_Oct_06_1005,searchDisc4,2021.2.3,60.02341369302602,
images/exp2c_trial_121_colour3_distractors1_l.png,l,f,2c,121,3,1,,,,,0,189,189,934,,,,,,,,,,,,,,,,,,,,,,,,,,,,,,,,,,,,,,,,,,,,,,,,,,,,,,,,,,,,,,,,,,,,,,,,,,,,430.8357663099996,None,space,0.2440519640003913,430.8357663099996,None,431.14430170299966,None,f,1,0.6476492889996734,431.14430170299966,None,431.81927878689714,None,None,431.81927878689714,None,,11,001,2021_Oct_06_1005,searchDisc4,2021.2.3,60.02341369302602,
images/exp1a_trial_9_colour2_distractors31_r.png,r,j,1a,9,2,31,,,,,0,190,190,54,,,,,,,,,,,,,,,,,,,,,,,,,,,,,,,,,,,,,,,,,,,,,,,,,,,,,,,,,,,,,,,,,,,,,,,,,,,,431.81908300899886,None,space,0.1646930520000751,431.81908300899886,None,432.0546573599968,None,j,1,0.7532966459984891,432.0546573599968,None,432.83586512189834,None,None,432.83586512189834,None,,11,001,2021_Oct_06_1005,searchDisc4,2021.2.3,60.02341369302602,
images/exp1a_trial_61_colour3_distractors31_l.png,l,f,1a,61,3,31,,,,,0,191,191,106,,,,,,,,,,,,,,,,,,,,,,,,,,,,,,,,,,,,,,,,,,,,,,,,,,,,,,,,,,,,,,,,,,,,,,,,,,,,432.835447518999,None,space,0.22043017400210374,432.835447518999,None,433.1380992859995,None,f,1,0.9419084490000387,433.1380992859995,None,434.1025606528998,None,None,434.1025606528998,None,,11,001,2021_Oct_06_1005,searchDisc4,2021.2.3,60.02341369302602,
images/exp1b_trial_173_colour3_distractors19_r.png,r,j,1b,173,3,19,,,,,0,192,192,410,,,,,,,,,,,,,,,,,,,,,,,,,,,,,,,,,,,,,,,,,,,,,,,,,,,,,,,,,,,,,,,,,,,,,,,,,,,,434.1026866109969,None,space,0.4412845950027986,434.1026866109969,None,434.62145481399784,None,j,1,0.874624252999638,434.62145481399784,None,435.5192309208975,None,None,435.5192309208975,None,,11,001,2021_Oct_06_1005,searchDisc4,2021.2.3,60.02341369302602,
images/exp1b_trial_75_colour3_distractors4_r.png,r,j,1b,75,3,4,,,,,0,193,193,312,,,,,,,,,,,,,,,,,,,,,,,,,,,,,,,,,,,,,,,,,,,,,,,,,,,,,,,,,,,,,,,,,,,,,,,,,,,,435.5195974439994,None,space,0.4723716490007064,435.5195974439994,None,436.0710829589989,None,j,1,0.745060081997508,436.0710829589989,None,436.8351611878967,None,None,436.8351611878967,None,,11,001,2021_Oct_06_1005,searchDisc4,2021.2.3,60.02341369302602,
images/exp2b_trial_180_colour2_distractors1_l.png,l,f,2b,180,2,1,,,,,0,194,194,801,,,,,,,,,,,,,,,,,,,,,,,,,,,,,,,,,,,,,,,,,,,,,,,,,,,,,,,,,,,,,,,,,,,,,,,,,,,,436.8355234399969,None,space,0.612587376999727,436.8355234399969,None,437.51087945999825,None,f,1,0.7373216779997165,437.51087945999825,None,438.269400216897,None,None,438.269400216897,None,,11,001,2021_Oct_06_1005,searchDisc4,2021.2.3,60.02341369302602,
images/exp1a_trial_12_colour3_distractors9_r.png,r,j,1a,12,3,9,,,,,0,195,195,57,,,,,,,,,,,,,,,,,,,,,,,,,,,,,,,,,,,,,,,,,,,,,,,,,,,,,,,,,,,,,,,,,,,,,,,,,,,,438.2685636489987,None,space,0.41952078599933884,438.2685636489987,None,438.7544700649996,None,j,1,0.7417865349998465,438.7544700649996,None,439.5188961188975,None,None,439.5188961188975,None,,11,001,2021_Oct_06_1005,searchDisc4,2021.2.3,60.02341369302602,
images/exp1a_trial_154_colour3_distractors4_l.png,l,f,1a,154,3,4,,,,,0,196,196,199,,,,,,,,,,,,,,,,,,,,,,,,,,,,,,,,,,,,,,,,,,,,,,,,,,,,,,,,,,,,,,,,,,,,,,,,,,,,439.5191900239988,None,space,0.3690307639990351,439.5191900239988,None,439.9605699019994,None,f,1,0.7837456929992186,439.9605699019994,None,440.76964914890016,None,None,440.76964914890016,None,,11,001,2021_Oct_06_1005,searchDisc4,2021.2.3,60.02341369302602,
images/exp1a_trial_21_colour2_distractors4_l.png,l,f,1a,21,2,4,,,,,0,197,197,66,,,,,,,,,,,,,,,,,,,,,,,,,,,,,,,,,,,,,,,,,,,,,,,,,,,,,,,,,,,,,,,,,,,,,,,,,,,,440.7698185599984,None,space,0.2864547669996682,440.7698185599984,None,441.11985758099763,None,f,1,1.272486382000352,441.11985758099763,None,442.4195176108984,None,None,442.4195176108984,None,,11,001,2021_Oct_06_1005,searchDisc4,2021.2.3,60.02341369302602,
images/exp2a_trial_150_colour2_distractors9_l.png,l,f,2a,150,2,9,,,,,0,198,198,579,,,,,,,,,,,,,,,,,,,,,,,,,,,,,,,,,,,,,,,,,,,,,,,,,,,,,,,,,,,,,,,,,,,,,,,,,,,,442.41883205499835,None,space,0.34156226300183334,442.41883205499835,None,442.8383983099993,None,f,1,0.618054831000336,442.8383983099993,None,443.4861840068985,None,None,443.4861840068985,None,,11,001,2021_Oct_06_1005,searchDisc4,2021.2.3,60.02341369302602,
images/exp1a_trial_76_colour3_distractors9_r.png,r,j,1a,76,3,9,,,,,0,199,199,121,,,,,,,,,,,,,,,,,,,,,,,,,,,,,,,,,,,,,,,,,,,,,,,,,,,,,,,,,,,,,,,,,,,,,,,,,,,,443.4855202749968,None,space,0.29882080699826474,443.4855202749968,None,443.85513188099867,None,j,1,0.7613806680019479,443.85513188099867,None,444.6356592228982,None,None,444.6356592228982,None,,11,001,2021_Oct_06_1005,searchDisc4,2021.2.3,60.02341369302602,
images/exp1a_trial_78_colour3_distractors31_r.png,r,j,1a,78,3,31,,,,,0,200,200,123,,,,,,,,,,,,,,,,,,,,,,,,,,,,,,,,,,,,,,,,,,,,,,,,,,,,,,,,,,,,,,,,,,,,,,,,,,,,444.63575083499745,None,space,0.38070806600080687,444.63575083499745,None,445.08837133199995,None,j,1,0.832170756002597,445.08837133199995,None,445.95274994589965,None,None,445.95274994589965,None,,11,001,2021_Oct_06_1005,searchDisc4,2021.2.3,60.02341369302602,
images/exp2b_trial_6_colour2_distractors4_r.png,r,j,2b,6,2,4,,,,,0,201,201,627,,,,,,,,,,,,,,,,,,,,,,,,,,,,,,,,,,,,,,,,,,,,,,,,,,,,,,,,,,,,,,,,,,,,,,,,,,,,445.9529841149997,None,space,0.3435338569979649,445.9529841149997,None,446.3526366759979,None,j,1,0.8159926139996969,446.3526366759979,None,447.18623907989934,None,None,447.18623907989934,None,,11,001,2021_Oct_06_1005,searchDisc4,2021.2.3,60.02341369302602,
images/exp2b_trial_146_colour1_distractors19_l.png,l,f,2b,146,1,19,,,,,0,202,202,767,,,,,,,,,,,,,,,,,,,,,,,,,,,,,,,,,,,,,,,,,,,,,,,,,,,,,,,,,,,,,,,,,,,,,,,,,,,,447.1855700669985,None,space,0.3830188089996227,447.1855700669985,None,447.6384904810002,None,f,1,1.0582084339985158,447.6384904810002,None,448.7190273988996,None,None,448.7190273988996,None,,11,001,2021_Oct_06_1005,searchDisc4,2021.2.3,60.02341369302602,
images/exp2c_trial_9_colour2_distractors31_r.png,r,j,2c,9,2,31,,,,,0,203,203,822,,,,,,,,,,,,,,,,,,,,,,,,,,,,,,,,,,,,,,,,,,,,,,,,,,,,,,,,,,,,,,,,,,,,,,,,,,,,448.7196726609982,None,space,0.2809801450021041,448.7196726609982,None,449.07175806099985,None,j,1,0.7609883229997649,449.07175806099985,None,449.85284270389786,None,None,449.85284270389786,None,,11,001,2021_Oct_06_1005,searchDisc4,2021.2.3,60.02341369302602,
images/exp2c_trial_79_colour1_distractors1_l.png,l,f,2c,79,1,1,,,,,0,204,204,892,,,,,,,,,,,,,,,,,,,,,,,,,,,,,,,,,,,,,,,,,,,,,,,,,,,,,,,,,,,,,,,,,,,,,,,,,,,,449.85300299299706,None,space,0.3876140430002124,449.85300299299706,None,450.3213727659968,None,f,1,0.6633602119982243,450.3213727659968,None,451.0023122268973,None,None,451.0023122268973,None,,11,001,2021_Oct_06_1005,searchDisc4,2021.2.3,60.02341369302602,
images/exp1a_trial_74_colour3_distractors1_r.png,r,j,1a,74,3,1,,,,,0,205,205,119,,,,,,,,,,,,,,,,,,,,,,,,,,,,,,,,,,,,,,,,,,,,,,,,,,,,,,,,,,,,,,,,,,,,,,,,,,,,451.0029641969995,None,space,0.32580177999989246,451.0029641969995,None,451.39558361200034,None,j,1,0.8052646140022262,451.39558361200034,None,452.22006419389766,None,None,452.22006419389766,None,,11,001,2021_Oct_06_1005,searchDisc4,2021.2.3,60.02341369302602,
images/exp1a_trial_42_colour3_distractors1_r.png,r,j,1a,42,3,1,,,,,0,206,206,87,,,,,,,,,,,,,,,,,,,,,,,,,,,,,,,,,,,,,,,,,,,,,,,,,,,,,,,,,,,,,,,,,,,,,,,,,,,,452.21961356300017,None,space,0.3411203969990311,452.21961356300017,None,452.63864949199706,None,j,1,0.7622522130004654,452.63864949199706,None,453.42002615589774,None,None,453.42002615589774,None,,11,001,2021_Oct_06_1005,searchDisc4,2021.2.3,60.02341369302602,
images/exp1b_trial_84_colour2_distractors1_l.png,l,f,1b,84,2,1,,,,,0,207,207,321,,,,,,,,,,,,,,,,,,,,,,,,,,,,,,,,,,,,,,,,,,,,,,,,,,,,,,,,,,,,,,,,,,,,,,,,,,,,453.41905400199903,None,space,0.3818042660022911,453.41905400199903,None,453.87199419699755,None,f,1,0.712977781000518,453.87199419699755,None,454.6025402509,None,None,454.6025402509,None,,11,001,2021_Oct_06_1005,searchDisc4,2021.2.3,60.02341369302602,
images/exp1b_trial_170_colour3_distractors1_r.png,r,j,1b,170,3,1,,,,,0,208,208,407,,,,,,,,,,,,,,,,,,,,,,,,,,,,,,,,,,,,,,,,,,,,,,,,,,,,,,,,,,,,,,,,,,,,,,,,,,,,454.60287986299954,None,space,0.35002967299806187,454.60287986299954,None,455.02185803300017,None,j,1,0.7951501829993504,455.02185803300017,None,455.8360505598972,None,None,455.8360505598972,None,,11,001,2021_Oct_06_1005,searchDisc4,2021.2.3,60.02341369302602,
images/exp2b_trial_131_colour1_distractors19_r.png,r,j,2b,131,1,19,,,,,0,209,209,752,,,,,,,,,,,,,,,,,,,,,,,,,,,,,,,,,,,,,,,,,,,,,,,,,,,,,,,,,,,,,,,,,,,,,,,,,,,,455.83644323299814,None,space,0.3004555789993901,455.83644323299814,None,456.2055282559995,None,j,1,0.8835460900008911,456.2055282559995,None,457.1190229828968,None,None,457.1190229828968,None,,11,001,2021_Oct_06_1005,searchDisc4,2021.2.3,60.02341369302602,
images/exp2a_trial_142_colour3_distractors31_r.png,r,j,2a,142,3,31,,,,,0,210,210,571,,,,,,,,,,,,,,,,,,,,,,,,,,,,,,,,,,,,,,,,,,,,,,,,,,,,,,,,,,,,,,,,,,,,,,,,,,,,457.1192751259987,None,space,0.3777763670004788,457.1192751259987,None,457.5721355509995,None,j,1,0.7489410950001911,457.5721355509995,None,458.35328151489705,None,None,458.35328151489705,None,,11,001,2021_Oct_06_1005,searchDisc4,2021.2.3,60.02341369302602,
images/exp1a_trial_151_colour2_distractors19_l.png,l,f,1a,151,2,19,,,,,0,211,211,196,,,,,,,,,,,,,,,,,,,,,,,,,,,,,,,,,,,,,,,,,,,,,,,,,,,,,,,,,,,,,,,,,,,,,,,,,,,,458.35273259199676,None,space,0.2884139720008534,458.35273259199676,None,458.72208209199744,None,f,1,0.7910828390013194,458.72208209199744,None,459.53675388789964,None,None,459.53675388789964,None,,11,001,2021_Oct_06_1005,searchDisc4,2021.2.3,60.02341369302602,
images/exp1b_trial_56_colour2_distractors31_l.png,l,f,1b,56,2,31,,,,,0,212,212,293,,,,,,,,,,,,,,,,,,,,,,,,,,,,,,,,,,,,,,,,,,,,,,,,,,,,,,,,,,,,,,,,,,,,,,,,,,,,459.536766453999,None,space,0.256386562003172,459.536766453999,None,459.87217840499943,None,f,1,0.8890632189977623,459.87217840499943,None,460.78681127589846,None,None,460.78681127589846,None,,11,001,2021_Oct_06_1005,searchDisc4,2021.2.3,60.02341369302602,
images/exp1b_trial_74_colour3_distractors1_r.png,r,j,1b,74,3,1,,,,,0,213,213,311,,,,,,,,,,,,,,,,,,,,,,,,,,,,,,,,,,,,,,,,,,,,,,,,,,,,,,,,,,,,,,,,,,,,,,,,,,,,460.7869175380001,None,space,0.23827688000164926,460.7869175380001,None,461.1056348789971,None,j,1,0.9117001039994648,461.1056348789971,None,462.0362925878977,None,None,462.0362925878977,None,,11,001,2021_Oct_06_1005,searchDisc4,2021.2.3,60.02341369302602,
images/exp1a_trial_1_colour1_distractors4_r.png,r,j,1a,1,1,4,,,,,0,214,214,46,,,,,,,,,,,,,,,,,,,,,,,,,,,,,,,,,,,,,,,,,,,,,,,,,,,,,,,,,,,,,,,,,,,,,,,,,,,,462.03623194699685,None,space,0.38102894599796855,462.03623194699685,None,462.48862511199695,None,j,1,0.7367214990008506,462.48862511199695,None,463.25351700589783,None,None,463.25351700589783,None,,11,001,2021_Oct_06_1005,searchDisc4,2021.2.3,60.02341369302602,
images/exp2c_trial_55_colour2_distractors19_l.png,l,f,2c,55,2,19,,,,,0,215,215,868,,,,,,,,,,,,,,,,,,,,,,,,,,,,,,,,,,,,,,,,,,,,,,,,,,,,,,,,,,,,,,,,,,,,,,,,,,,,463.2529993479984,None,space,0.33231226800126024,463.2529993479984,None,463.6535808489971,None,f,1,0.7078226449993963,463.6535808489971,None,464.38661206590007,None,None,464.38661206590007,None,,11,001,2021_Oct_06_1005,searchDisc4,2021.2.3,60.02341369302602,
