ImageFile,targ_side,correctAnswer,exp,trial,colour,distNo,trials_2.thisRepN,trials_2.thisTrialN,trials_2.thisN,trials_2.thisIndex,trials.thisRepN,trials.thisTrialN,trials.thisN,trials.thisIndex,X Scale,Y Scale,text_top.started,text_top.stopped,text_bottom.started,text_bottom.stopped,ccimage.started,ccimage.stopped,text_6.started,text_6.stopped,key_resp_10.keys,key_resp_10.rt,key_resp_10.started,key_resp_10.stopped,text_7.started,text_7.stopped,key_resp_11.keys,key_resp_11.rt,key_resp_11.started,key_resp_11.stopped,text_8.started,text_8.stopped,key_resp_12.keys,key_resp_12.rt,key_resp_12.started,key_resp_12.stopped,text_9.started,text_9.stopped,key_resp_13.keys,key_resp_13.rt,key_resp_13.started,key_resp_13.stopped,text_2.started,text_2.stopped,key_resp_5.keys,key_resp_5.rt,key_resp_5.started,key_resp_5.stopped,text_5.started,text_5.stopped,key_resp_8.keys,key_resp_8.rt,key_resp_8.started,key_resp_8.stopped,image_2.started,image_2.stopped,key_resp_6.keys,key_resp_6.rt,key_resp_6.started,key_resp_6.stopped,text_3.started,text_3.stopped,image_3.started,image_3.stopped,fix.started,fix.stopped,key_resp_7.keys,key_resp_7.rt,key_resp_7.started,key_resp_7.stopped,image.started,image.stopped,key_resp_4.keys,key_resp_4.corr,key_resp_4.rt,key_resp_4.started,key_resp_4.stopped,text_4.started,text_4.stopped,text.started,text.stopped,key_resp_3.keys,key_resp_3.rt,key_resp_3.started,key_resp_3.stopped,fix2experiment.started,fix2experiment.stopped,key_resp_9.keys,key_resp_9.rt,key_resp_9.started,key_resp_9.stopped,dispStimuli.started,dispStimuli.stopped,key_resp_2.keys,key_resp_2.corr,key_resp_2.rt,key_resp_2.started,key_resp_2.stopped,breakMessage.started,breakMessage.stopped,key_resp.keys,key_resp.started,key_resp.stopped,key_resp.rt,participant,session,date,expName,psychopyVersion,frameRate,
,,,,,,,,,,,,,,,34.2,32.2,11.986399092998909,None,11.986399092998909,None,11.986399092998909,None,76.31924344999788,None,space,2.53669990400158,76.31924344999788,None,,,,,,,,,,,,,,,,,,,,,,,,,,,,,,,,,,,,,,,,,,,,,,,,,,,,,,,,,,,,,,,,,,,,,,,,,,,,,,,,,12,001,2021_Oct_06_1053,searchDisc4,2021.2.3,59.303605704379684,
,,,,,,,,,,,,,,,,,,,,,,,,,,,,,78.88800653699946,None,space,0.7280291130009573,78.88800653699946,None,,,,,,,,,,,,,,,,,,,,,,,,,,,,,,,,,,,,,,,,,,,,,,,,,,,,,,,,,,,,,,,,,,,,,,,,,,,12,001,2021_Oct_06_1053,searchDisc4,2021.2.3,59.303605704379684,
,,,,,,,,,,,,,,,,,,,,,,,,,,,,,,,,,,,79.63805228699857,None,space,0.7700523099993006,79.63805228699857,None,,,,,,,,,,,,,,,,,,,,,,,,,,,,,,,,,,,,,,,,,,,,,,,,,,,,,,,,,,,,,,,,,,,,,12,001,2021_Oct_06_1053,searchDisc4,2021.2.3,59.303605704379684,
,,,,,,,,,,,,,,,,,,,,,,,,,,,,,,,,,,,,,,,,,80.43811504000041,None,space,0.5539933029976964,80.43811504000041,None,,,,,,,,,,,,,,,,,,,,,,,,,,,,,,,,,,,,,,,,,,,,,,,,,,,,,,,,,,,,,,,12,001,2021_Oct_06_1053,searchDisc4,2021.2.3,59.303605704379684,
,,,,,,,,,,,,,,,,,,,,,,,,,,,,,,,,,,,,,,,,,,,,,,,81.02158470999711,None,space,18.244860926999536,81.98815133099924,None,,,,,,,,,,,,,,,,,,,,,,,,,,,,,,,,,,,,,,,,,,,,,,,,,,,,,,,,,12,001,2021_Oct_06_1053,searchDisc4,2021.2.3,59.303605704379684,
,,,,,,,,,,,,,,,,,,,,,,,,,,,,,,,,,,,,,,,,,,,,,,,,,,,,,100.2553152090004,None,space,5.24993017000088,100.2553152090004,None,,,,,,,,,,,,,,,,,,,,,,,,,,,,,,,,,,,,,,,,,,,,,,,,,,,12,001,2021_Oct_06_1053,searchDisc4,2021.2.3,59.303605704379684,
,,,,,,,,,,,,,,,,,,,,,,,,,,,,,,,,,,,,,,,,,,,,,,,,,,,,,,,,,,,105.52218362499843,None,space,2.992039692999242,106.50539859799756,None,,,,,,,,,,,,,,,,,,,,,,,,,,,,,,,,,,,,,,,,,,,,,12,001,2021_Oct_06_1053,searchDisc4,2021.2.3,59.303605704379684,
Practice arrays/exp1a_trial_21_colour2_distractors4_l.png,l,f,,,,,0,0,0,9,,,,,,,,,,,,,,,,,,,,,,,,,,,,,,,,,,,,,,,,,,,,,,,,,,,,,,,105.52218362499843,None,105.52218362499843,None,109.53818263299763,None,space,3.815433612999186,109.53818263299763,None,113.43917704100022,None,f,1,0.8584654280020914,113.43917704100022,None,114.32034873500015,None,,,,,,,,,,,,,,,,,,,,,,,,,,12,001,2021_Oct_06_1053,searchDisc4,2021.2.3,59.303605704379684,
Practice arrays/exp1a_trial_30_colour0_distractors0_r.png,r,j,,,,,0,1,1,14,,,,,,,,,,,,,,,,,,,,,,,,,,,,,,,,,,,,,,,,,,,,,,,,,,,,,,,,,,,115.32241088099909,None,space,1.5512680600004387,115.32241088099909,None,116.9559766780003,None,f,0,0.5097839549998753,116.9559766780003,None,117.48706761599897,None,,,,,,,,,,,,,,,,,,,,,,,,,,12,001,2021_Oct_06_1053,searchDisc4,2021.2.3,59.303605704379684,
Practice arrays/exp1a_trial_17_colour1_distractors9_l.png,l,f,,,,,0,2,2,7,,,,,,,,,,,,,,,,,,,,,,,,,,,,,,,,,,,,,,,,,,,,,,,,,,,,,,,,,,,118.48910904399963,None,space,0.9607455289988138,118.48910904399963,None,119.52284157999748,None,f,1,0.6070584699991741,119.52284157999748,None,120.15373877299862,None,,,,,,,,,,,,,,,,,,,,,,,,,,12,001,2021_Oct_06_1053,searchDisc4,2021.2.3,59.303605704379684,
Practice arrays/exp1a_trial_25_colour3_distractors1_l.png,l,f,,,,,0,3,3,11,,,,,,,,,,,,,,,,,,,,,,,,,,,,,,,,,,,,,,,,,,,,,,,,,,,,,,,,,,,121.15583641299963,None,space,4.926342738999665,121.15583641299963,None,126.1561701699975,None,f,1,0.43805314599740086,126.1561701699975,None,126.62055346799752,None,,,,,,,,,,,,,,,,,,,,,,,,,,12,001,2021_Oct_06_1053,searchDisc4,2021.2.3,59.303605704379684,
Practice arrays/exp1a_trial_1_colour1_distractors4_r.png,r,j,,,,,0,4,4,1,,,,,,,,,,,,,,,,,,,,,,,,,,,,,,,,,,,,,,,,,,,,,,,,,,,,,,,,,,,127.62261898100041,None,space,4.467780769999081,127.62261898100041,None,132.17307662199892,None,j,1,0.5094065610028338,132.17307662199892,None,132.7043052480003,None,,,,,,,,,,,,,,,,,,,,,,,,,,12,001,2021_Oct_06_1053,searchDisc4,2021.2.3,59.303605704379684,
Practice arrays/exp1a_trial_14_colour3_distractors31_r.png,r,j,,,,,0,5,5,6,,,,,,,,,,,,,,,,,,,,,,,,,,,,,,,,,,,,,,,,,,,,,,,,,,,,,,,,,,,133.70619542499844,None,space,0.08030018199860933,133.70619542499844,None,133.85627901000043,None,j,1,0.5062965789984446,133.85627901000043,None,134.38739425599852,None,,,,,,,,,,,,,,,,,,,,,,,,,,12,001,2021_Oct_06_1053,searchDisc4,2021.2.3,59.303605704379684,
Practice arrays/exp1a_trial_16_colour1_distractors4_l.png,l,f,,,,,0,6,6,13,,,,,,,,,,,,,,,,,,,,,,,,,,,,,,,,,,,,,,,,,,,,,,,,,,,,,,,,,,,135.3894962739978,None,space,0.6850698359994567,135.3894962739978,None,136.15638516800027,None,f,1,0.4542981599988707,136.15638516800027,None,136.63759688699793,None,,,,,,,,,,,,,,,,,,,,,,,,,,12,001,2021_Oct_06_1053,searchDisc4,2021.2.3,59.303605704379684,
Practice arrays/exp1a_trial_27_colour3_distractors9_l.png,l,f,,,,,0,7,7,12,,,,,,,,,,,,,,,,,,,,,,,,,,,,,,,,,,,,,,,,,,,,,,,,,,,,,,,,,,,137.63966498999798,None,space,4.251151702999778,137.63966498999798,None,141.97135487299965,None,f,1,0.46355898099864135,141.97135487299965,None,142.4543988339974,None,,,,,,,,,,,,,,,,,,,,,,,,,,12,001,2021_Oct_06_1053,searchDisc4,2021.2.3,59.303605704379684,
Practice arrays/exp1a_trial_0_colour1_distractors1_r.png,r,j,,,,,0,8,8,0,,,,,,,,,,,,,,,,,,,,,,,,,,,,,,,,,,,,,,,,,,,,,,,,,,,,,,,,,,,143.45641838499796,None,space,0.3945472429986694,143.45641838499796,None,143.92327403200034,None,j,1,0.45571920499787666,143.92327403200034,None,144.4044398650003,None,,,,,,,,,,,,,,,,,,,,,,,,,,12,001,2021_Oct_06_1053,searchDisc4,2021.2.3,59.303605704379684,
Practice arrays/exp1a_trial_31_colour0_distractors0_l.png,l,f,,,,,0,9,9,15,,,,,,,,,,,,,,,,,,,,,,,,,,,,,,,,,,,,,,,,,,,,,,,,,,,,,,,,,,,145.406455499,None,space,0.21252648000154295,145.406455499,None,145.69004348599992,None,f,1,0.4250588909999351,145.69004348599992,None,146.1377633159973,None,,,,,,,,,,,,,,,,,,,,,,,,,,12,001,2021_Oct_06_1053,searchDisc4,2021.2.3,59.303605704379684,
Practice arrays/exp1a_trial_8_colour2_distractors19_r.png,r,j,,,,,0,10,10,3,,,,,,,,,,,,,,,,,,,,,,,,,,,,,,,,,,,,,,,,,,,,,,,,,,,,,,,,,,,147.13985708399923,None,space,0.36722555099913734,147.13985708399923,None,147.58994537499893,None,j,1,0.4132523640000727,147.58994537499893,None,148.02022559800025,None,,,,,,,,,,,,,,,,,,,,,,,,,,12,001,2021_Oct_06_1053,searchDisc4,2021.2.3,59.303605704379684,
Practice arrays/exp1a_trial_12_colour3_distractors9_r.png,r,j,,,,,0,11,11,5,,,,,,,,,,,,,,,,,,,,,,,,,,,,,,,,,,,,,,,,,,,,,,,,,,,,,,,,,,,149.0232676960004,None,space,0.5159924669969769,149.0232676960004,None,149.60676273399804,None,j,1,0.42851156299730064,149.60676273399804,None,150.05459194599825,None,,,,,,,,,,,,,,,,,,,,,,,,,,12,001,2021_Oct_06_1053,searchDisc4,2021.2.3,59.303605704379684,
Practice arrays/exp1a_trial_23_colour2_distractors19_l.png,l,f,,,,,0,12,12,10,,,,,,,,,,,,,,,,,,,,,,,,,,,,,,,,,,,,,,,,,,,,,,,,,,,,,,,,,,,151.05656375899707,None,space,0.38678863199675106,151.05656375899707,None,151.52146451599765,None,j,0,0.42587636499956716,151.52146451599765,None,151.97108032899996,None,,,,,,,,,,,,,,,,,,,,,,,,,,12,001,2021_Oct_06_1053,searchDisc4,2021.2.3,59.303605704379684,
Practice arrays/exp1a_trial_18_colour1_distractors19_l.png,l,f,,,,,0,13,13,8,,,,,,,,,,,,,,,,,,,,,,,,,,,,,,,,,,,,,,,,,,,,,,,,,,,,,,,,,,,152.97337805999996,None,space,0.3980619239991938,152.97337805999996,None,153.44023280699912,None,j,0,0.43524968799829367,153.44023280699912,None,153.90464773299755,None,,,,,,,,,,,,,,,,,,,,,,,,,,12,001,2021_Oct_06_1053,searchDisc4,2021.2.3,59.303605704379684,
Practice arrays/exp1a_trial_7_colour2_distractors9_r.png,r,j,,,,,0,14,14,2,,,,,,,,,,,,,,,,,,,,,,,,,,,,,,,,,,,,,,,,,,,,,,,,,,,,,,,,,,,154.90676408099898,None,space,0.16875580600026296,154.90676408099898,None,155.15690246099985,None,j,1,0.6066393720029737,155.15690246099985,None,155.7880020149969,None,,,,,,,,,,,,,,,,,,,,,,,,,,12,001,2021_Oct_06_1053,searchDisc4,2021.2.3,59.303605704379684,
Practice arrays/exp1a_trial_10_colour3_distractors1_r.png,r,j,,,,,0,15,15,4,,,,,,,,,,,,,,,,,,,,,,,,,,,,,,,,,,,,,,,,,,,,,,,,,,,,,,,,,,,156.79013317299905,None,space,0.4934443669990287,156.79013317299905,None,157.3451433989976,None,f,0,0.6744807950017275,157.3451433989976,None,158.0381732349997,None,,,,,,,,,,,,,,,,,,,,,,,,,,12,001,2021_Oct_06_1053,searchDisc4,2021.2.3,59.303605704379684,
,,,,,,,,,,,,,,,,,,,,,,,,,,,,,,,,,,,,,,,,,,,,,,,,,,,,,,,,,,,,,,,,,,,,,,,,,,,,,,,,,,,,159.10633652899924,None,space,23.874808417000168,162.09013957799834,None,,,,,,,,,,,,,,,,,,,,12,001,2021_Oct_06_1053,searchDisc4,2021.2.3,59.303605704379684,
images/exp1a_trial_71_colour2_distractors9_r.png,r,j,1a,71,2,9,,,,,0,0,0,116,,,,,,,,,,,,,,,,,,,,,,,,,,,,,,,,,,,,,,,,,,,,,,,,,,,,,,,,,,,,,,,,,,,,,,,,,,,,186.3734933559972,None,space,0.831396270001278,186.3734933559972,None,187.27731248700002,None,j,1,0.5917055220015754,187.27731248700002,None,187.8880812080988,None,None,187.8880812080988,None,,12,001,2021_Oct_06_1053,searchDisc4,2021.2.3,59.303605704379684,
images/exp1b_trial_145_colour1_distractors9_l.png,l,f,1b,145,1,9,,,,,0,1,1,382,,,,,,,,,,,,,,,,,,,,,,,,,,,,,,,,,,,,,,,,,,,,,,,,,,,,,,,,,,,,,,,,,,,,,,,,,,,,187.90549980399737,None,space,0.21938581699942006,187.90549980399737,None,188.2077706529999,None,f,1,0.8292138479991991,188.2077706529999,None,189.05481969809807,None,None,189.05481969809807,None,,12,001,2021_Oct_06_1053,searchDisc4,2021.2.3,59.303605704379684,
images/exp2c_trial_140_colour3_distractors9_r.png,r,j,2c,140,3,9,,,,,0,2,2,953,,,,,,,,,,,,,,,,,,,,,,,,,,,,,,,,,,,,,,,,,,,,,,,,,,,,,,,,,,,,,,,,,,,,,,,,,,,,189.05491050699857,None,space,0.22211146499830647,189.05491050699857,None,189.3577696680004,None,f,0,0.6233543910020671,189.3577696680004,None,190.00563085209978,None,None,190.00563085209978,None,,12,001,2021_Oct_06_1053,searchDisc4,2021.2.3,59.303605704379684,
images/exp2b_trial_139_colour3_distractors4_r.png,r,j,2b,139,3,4,,,,,0,3,3,760,,,,,,,,,,,,,,,,,,,,,,,,,,,,,,,,,,,,,,,,,,,,,,,,,,,,,,,,,,,,,,,,,,,,,,,,,,,,190.00491614699786,None,space,0.5360952890005137,190.00491614699786,None,190.6078624699985,None,j,1,0.7173165150015848,190.6078624699985,None,191.35565408709772,None,None,191.35565408709772,None,,12,001,2021_Oct_06_1053,searchDisc4,2021.2.3,59.303605704379684,
images/exp2b_trial_31_colour0_distractors0_l.png,l,f,2b,31,0,0,,,,,0,4,4,652,,,,,,,,,,,,,,,,,,,,,,,,,,,,,,,,,,,,,,,,,,,,,,,,,,,,,,,,,,,,,,,,,,,,,,,,,,,,191.35564658099975,None,space,0.26549960400006967,191.35564658099975,None,191.6799787130003,None,f,1,0.6132417839980917,191.6799787130003,None,192.32233740809716,None,None,192.32233740809716,None,,12,001,2021_Oct_06_1053,searchDisc4,2021.2.3,59.303605704379684,
images/exp2a_trial_123_colour3_distractors9_l.png,l,f,2a,123,3,9,,,,,0,5,5,552,,,,,,,,,,,,,,,,,,,,,,,,,,,,,,,,,,,,,,,,,,,,,,,,,,,,,,,,,,,,,,,,,,,,,,,,,,,,192.32240959699993,None,space,0.25876777400117135,192.32240959699993,None,192.65777935900041,None,f,1,0.6194805479972274,192.65777935900041,None,193.30568060509722,None,None,193.30568060509722,None,,12,001,2021_Oct_06_1053,searchDisc4,2021.2.3,59.303605704379684,
images/exp1b_trial_176_colour1_distractors4_l.png,l,f,1b,176,1,4,,,,,0,6,6,413,,,,,,,,,,,,,,,,,,,,,,,,,,,,,,,,,,,,,,,,,,,,,,,,,,,,,,,,,,,,,,,,,,,,,,,,,,,,193.3058478319981,None,space,0.24336662800124031,193.3058478319981,None,193.6135604689989,None,f,1,3.167844031999266,193.6135604689989,None,196.80584531209934,None,None,196.80584531209934,None,,12,001,2021_Oct_06_1053,searchDisc4,2021.2.3,59.303605704379684,
images/exp1b_trial_142_colour3_distractors31_r.png,r,j,1b,142,3,31,,,,,0,7,7,379,,,,,,,,,,,,,,,,,,,,,,,,,,,,,,,,,,,,,,,,,,,,,,,,,,,,,,,,,,,,,,,,,,,,,,,,,,,,196.8051081199992,None,space,0.25628052599859075,196.8051081199992,None,197.14141441399988,None,j,1,1.1520677560001786,197.14141441399988,None,198.3225996600977,None,None,198.3225996600977,None,,12,001,2021_Oct_06_1053,searchDisc4,2021.2.3,59.303605704379684,
images/exp1b_trial_94_colour0_distractors0_r.png,r,j,1b,94,0,0,,,,,0,8,8,331,,,,,,,,,,,,,,,,,,,,,,,,,,,,,,,,,,,,,,,,,,,,,,,,,,,,,,,,,,,,,,,,,,,,,,,,,,,,198.32191098199837,None,space,0.1315079819978564,198.32191098199837,None,198.52478753099786,None,j,1,0.5687364019977394,198.52478753099786,None,199.12261632909758,None,None,199.12261632909758,None,,12,001,2021_Oct_06_1053,searchDisc4,2021.2.3,59.303605704379684,
images/exp2a_trial_166_colour2_distractors4_r.png,r,j,2a,166,2,4,,,,,0,9,9,595,,,,,,,,,,,,,,,,,,,,,,,,,,,,,,,,,,,,,,,,,,,,,,,,,,,,,,,,,,,,,,,,,,,,,,,,,,,,199.1227292049989,None,space,0.06671038599961321,199.1227292049989,None,199.25811441899714,None,j,1,0.6514439759994275,199.25811441899714,None,199.9391366960972,None,None,199.9391366960972,None,,12,001,2021_Oct_06_1053,searchDisc4,2021.2.3,59.303605704379684,
images/exp1a_trial_174_colour3_distractors31_r.png,r,j,1a,174,3,31,,,,,0,10,10,219,,,,,,,,,,,,,,,,,,,,,,,,,,,,,,,,,,,,,,,,,,,,,,,,,,,,,,,,,,,,,,,,,,,,,,,,,,,,199.93928918599704,None,space,0.050287390000448795,199.93928918599704,None,200.05806711999685,None,j,1,0.5715341300019645,200.05806711999685,None,200.65602845109788,None,None,200.65602845109788,None,,12,001,2021_Oct_06_1053,searchDisc4,2021.2.3,59.303605704379684,
images/exp1a_trial_94_colour0_distractors0_r.png,r,j,1a,94,0,0,,,,,0,11,11,139,,,,,,,,,,,,,,,,,,,,,,,,,,,,,,,,,,,,,,,,,,,,,,,,,,,,,,,,,,,,,,,,,,,,,,,,,,,,200.65587745399898,None,space,0.05360768900209223,200.65587745399898,None,200.7802522589991,None,j,1,0.5853752600014559,200.7802522589991,None,201.38927688809963,None,None,201.38927688809963,None,,12,001,2021_Oct_06_1053,searchDisc4,2021.2.3,59.303605704379684,
images/exp2b_trial_61_colour3_distractors31_l.png,l,f,2b,61,3,31,,,,,0,12,12,682,,,,,,,,,,,,,,,,,,,,,,,,,,,,,,,,,,,,,,,,,,,,,,,,,,,,,,,,,,,,,,,,,,,,,,,,,,,,201.38924935499745,None,space,0.08034591099931276,201.38924935499745,None,201.5415542039991,None,f,1,0.560116222997749,201.5415542039991,None,202.12201928809918,None,None,202.12201928809918,None,,12,001,2021_Oct_06_1053,searchDisc4,2021.2.3,59.303605704379684,
images/exp2a_trial_27_colour3_distractors9_l.png,l,f,2a,27,3,9,,,,,0,13,13,456,,,,,,,,,,,,,,,,,,,,,,,,,,,,,,,,,,,,,,,,,,,,,,,,,,,,,,,,,,,,,,,,,,,,,,,,,,,,202.12210073299866,None,space,0.06750854100027937,202.12210073299866,None,202.25814912900023,None,f,1,0.643550167002104,202.25814912900023,None,202.92196857509953,None,None,202.92196857509953,None,,12,001,2021_Oct_06_1053,searchDisc4,2021.2.3,59.303605704379684,
images/exp1b_trial_160_colour1_distractors1_r.png,r,j,1b,160,1,1,,,,,0,14,14,397,,,,,,,,,,,,,,,,,,,,,,,,,,,,,,,,,,,,,,,,,,,,,,,,,,,,,,,,,,,,,,,,,,,,,,,,,,,,202.92208003199994,None,space,0.09954548699897714,202.92208003199994,None,203.08007310899848,None,j,1,0.6296862249982951,203.08007310899848,None,203.73941073609785,None,None,203.73941073609785,None,,12,001,2021_Oct_06_1053,searchDisc4,2021.2.3,59.303605704379684,
images/exp2a_trial_72_colour2_distractors19_r.png,r,j,2a,72,2,19,,,,,0,15,15,501,,,,,,,,,,,,,,,,,,,,,,,,,,,,,,,,,,,,,,,,,,,,,,,,,,,,,,,,,,,,,,,,,,,,,,,,,,,,203.73887817399736,None,space,0.03480386100272881,203.73887817399736,None,203.84111378200032,None,j,1,0.6766686230002961,203.84111378200032,None,204.53932378609716,None,None,204.53932378609716,None,,12,001,2021_Oct_06_1053,searchDisc4,2021.2.3,59.303605704379684,
images/exp2a_trial_74_colour3_distractors1_r.png,r,j,2a,74,3,1,,,,,0,16,16,503,,,,,,,,,,,,,,,,,,,,,,,,,,,,,,,,,,,,,,,,,,,,,,,,,,,,,,,,,,,,,,,,,,,,,,,,,,,,204.5392964829989,None,space,0.07442050600002403,204.5392964829989,None,204.69164627299688,None,j,1,0.5460589819995221,204.69164627299688,None,205.25531757809767,None,None,205.25531757809767,None,,12,001,2021_Oct_06_1053,searchDisc4,2021.2.3,59.303605704379684,
images/exp1b_trial_186_colour3_distractors4_l.png,l,f,1b,186,3,4,,,,,0,17,17,423,,,,,,,,,,,,,,,,,,,,,,,,,,,,,,,,,,,,,,,,,,,,,,,,,,,,,,,,,,,,,,,,,,,,,,,,,,,,205.2554116249994,None,space,0.08627106499989168,205.2554116249994,None,205.4243038479981,None,f,1,0.829556593002053,205.4243038479981,None,206.27185494609694,None,None,206.27185494609694,None,,12,001,2021_Oct_06_1053,searchDisc4,2021.2.3,59.303605704379684,
images/exp1a_trial_40_colour2_distractors19_r.png,r,j,1a,40,2,19,,,,,0,18,18,85,,,,,,,,,,,,,,,,,,,,,,,,,,,,,,,,,,,,,,,,,,,,,,,,,,,,,,,,,,,,,,,,,,,,,,,,,,,,206.2727722899981,None,space,0.06096984699979657,206.2727722899981,None,206.40833960999953,None,None,0,,206.40833960999953,None,211.3728942600992,None,None,211.3728942600992,None,,12,001,2021_Oct_06_1053,searchDisc4,2021.2.3,59.303605704379684,
images/exp2c_trial_141_colour3_distractors19_r.png,r,j,2c,141,3,19,,,,,0,19,19,954,,,,,,,,,,,,,,,,,,,,,,,,,,,,,,,,,,,,,,,,,,,,,,,,,,,,,,,,,,,,,,,,,,,,,,,,,,,,211.37283917499735,None,space,2.905347891999554,211.37283917499735,None,214.3587565429989,None,j,1,0.5035084969968011,214.3587565429989,None,214.88967555310046,None,None,214.88967555310046,None,,12,001,2021_Oct_06_1053,searchDisc4,2021.2.3,59.303605704379684,
images/exp2a_trial_121_colour3_distractors1_l.png,l,f,2a,121,3,1,,,,,0,20,20,550,,,,,,,,,,,,,,,,,,,,,,,,,,,,,,,,,,,,,,,,,,,,,,,,,,,,,,,,,,,,,,,,,,,,,,,,,,,,214.88974750299894,None,space,0.10033315200053039,214.88974750299894,None,215.05848622199846,None,f,1,0.5397319660005451,215.05848622199846,None,215.62309576410007,None,None,215.62309576410007,None,,12,001,2021_Oct_06_1053,searchDisc4,2021.2.3,59.303605704379684,
images/exp2c_trial_38_colour2_distractors4_r.png,r,j,2c,38,2,4,,,,,0,21,21,851,,,,,,,,,,,,,,,,,,,,,,,,,,,,,,,,,,,,,,,,,,,,,,,,,,,,,,,,,,,,,,,,,,,,,,,,,,,,215.6222734719995,None,space,0.1279132199997548,215.6222734719995,None,215.82506810999985,None,j,1,0.5412675170009607,215.82506810999985,None,216.38965276109775,None,None,216.38965276109775,None,,12,001,2021_Oct_06_1053,searchDisc4,2021.2.3,59.303605704379684,
images/exp1a_trial_155_colour3_distractors9_l.png,l,f,1a,155,3,9,,,,,0,22,22,200,,,,,,,,,,,,,,,,,,,,,,,,,,,,,,,,,,,,,,,,,,,,,,,,,,,,,,,,,,,,,,,,,,,,,,,,,,,,216.3897608749976,None,space,0.04846078000264242,216.3897608749976,None,216.50866855099957,None,f,1,0.6416994319988589,216.50866855099957,None,217.17299277509846,None,None,217.17299277509846,None,,12,001,2021_Oct_06_1053,searchDisc4,2021.2.3,59.303605704379684,
images/exp1a_trial_29_colour3_distractors31_l.png,l,f,1a,29,3,31,,,,,0,23,23,74,,,,,,,,,,,,,,,,,,,,,,,,,,,,,,,,,,,,,,,,,,,,,,,,,,,,,,,,,,,,,,,,,,,,,,,,,,,,217.1729485299984,None,space,0.11336495599971386,217.1729485299984,None,217.35856226899705,None,f,1,0.6238352999971539,217.35856226899705,None,218.00561382709748,None,None,218.00561382709748,None,,12,001,2021_Oct_06_1053,searchDisc4,2021.2.3,59.303605704379684,
images/exp1b_trial_138_colour3_distractors1_r.png,r,j,1b,138,3,1,,,,,0,24,24,375,,,,,,,,,,,,,,,,,,,,,,,,,,,,,,,,,,,,,,,,,,,,,,,,,,,,,,,,,,,,,,,,,,,,,,,,,,,,218.00569878199894,None,space,0.10465059399939491,218.00569878199894,None,218.1810018899996,None,j,1,0.4974359449988697,218.1810018899996,None,218.70651467009702,None,None,218.70651467009702,None,,12,001,2021_Oct_06_1053,searchDisc4,2021.2.3,59.303605704379684,
images/exp1a_trial_173_colour3_distractors19_r.png,r,j,1a,173,3,19,,,,,0,25,25,218,,,,,,,,,,,,,,,,,,,,,,,,,,,,,,,,,,,,,,,,,,,,,,,,,,,,,,,,,,,,,,,,,,,,,,,,,,,,218.70677620199785,None,space,0.09961761700105853,218.70677620199785,None,218.87515615399752,None,j,1,0.7713256679999176,218.87515615399752,None,219.67310773609825,None,None,219.67310773609825,None,,12,001,2021_Oct_06_1053,searchDisc4,2021.2.3,59.303605704379684,
images/exp1b_trial_57_colour3_distractors1_l.png,l,f,1b,57,3,1,,,,,0,26,26,294,,,,,,,,,,,,,,,,,,,,,,,,,,,,,,,,,,,,,,,,,,,,,,,,,,,,,,,,,,,,,,,,,,,,,,,,,,,,219.67334579899762,None,space,0.08500242300215177,219.67334579899762,None,219.825299377997,None,f,1,0.5732098520020372,219.825299377997,None,220.42314087409795,None,None,220.42314087409795,None,,12,001,2021_Oct_06_1053,searchDisc4,2021.2.3,59.303605704379684,
images/exp1b_trial_79_colour1_distractors1_l.png,l,f,1b,79,1,1,,,,,0,27,27,316,,,,,,,,,,,,,,,,,,,,,,,,,,,,,,,,,,,,,,,,,,,,,,,,,,,,,,,,,,,,,,,,,,,,,,,,,,,,220.4223280189981,None,space,0.15209105599933537,220.4223280189981,None,220.63008210299813,None,f,1,0.5684308399977454,220.63008210299813,None,221.22314628710046,None,None,221.22314628710046,None,,12,001,2021_Oct_06_1053,searchDisc4,2021.2.3,59.303605704379684,
images/exp2c_trial_143_colour1_distractors1_l.png,l,f,2c,143,1,1,,,,,0,28,28,956,,,,,,,,,,,,,,,,,,,,,,,,,,,,,,,,,,,,,,,,,,,,,,,,,,,,,,,,,,,,,,,,,,,,,,,,,,,,221.22262346599746,None,space,0.13577391999933752,221.22262346599746,None,221.4253258619974,None,f,1,0.6212480930007587,221.4253258619974,None,222.07323312809785,None,None,222.07323312809785,None,,12,001,2021_Oct_06_1053,searchDisc4,2021.2.3,59.303605704379684,
images/exp1a_trial_113_colour1_distractors9_l.png,l,f,1a,113,1,9,,,,,0,29,29,158,,,,,,,,,,,,,,,,,,,,,,,,,,,,,,,,,,,,,,,,,,,,,,,,,,,,,,,,,,,,,,,,,,,,,,,,,,,,222.0730977139974,None,space,0.0934059690007416,222.0730977139974,None,222.24204386400015,None,j,0,0.6285449550014164,222.24204386400015,None,222.88981275009974,None,None,222.88981275009974,None,,12,001,2021_Oct_06_1053,searchDisc4,2021.2.3,59.303605704379684,
images/exp2c_trial_69_colour2_distractors1_r.png,r,j,2c,69,2,1,,,,,0,30,30,882,,,,,,,,,,,,,,,,,,,,,,,,,,,,,,,,,,,,,,,,,,,,,,,,,,,,,,,,,,,,,,,,,,,,,,,,,,,,222.88987394099968,None,space,0.8846648049984651,222.88987394099968,None,223.8419492949979,None,j,1,0.6767495290005172,223.8419492949979,None,224.54002783109718,None,None,224.54002783109718,None,,12,001,2021_Oct_06_1053,searchDisc4,2021.2.3,59.303605704379684,
images/exp2b_trial_87_colour2_distractors19_l.png,l,f,2b,87,2,19,,,,,0,31,31,708,,,,,,,,,,,,,,,,,,,,,,,,,,,,,,,,,,,,,,,,,,,,,,,,,,,,,,,,,,,,,,,,,,,,,,,,,,,,224.53932983499908,None,space,0.05930538900065585,224.53932983499908,None,224.66329344399855,None,f,1,0.5994568219975918,224.66329344399855,None,225.28992951709915,None,None,225.28992951709915,None,,12,001,2021_Oct_06_1053,searchDisc4,2021.2.3,59.303605704379684,
images/exp1b_trial_100_colour1_distractors31_r.png,r,j,1b,100,1,31,,,,,0,32,32,337,,,,,,,,,,,,,,,,,,,,,,,,,,,,,,,,,,,,,,,,,,,,,,,,,,,,,,,,,,,,,,,,,,,,,,,,,,,,225.28979615099888,None,space,0.1328176480019465,225.28979615099888,None,225.49210833399775,None,j,1,0.6426603570034786,225.49210833399775,None,226.156101660099,None,None,226.156101660099,None,,12,001,2021_Oct_06_1053,searchDisc4,2021.2.3,59.303605704379684,
images/exp1b_trial_41_colour2_distractors31_r.png,r,j,1b,41,2,31,,,,,0,33,33,278,,,,,,,,,,,,,,,,,,,,,,,,,,,,,,,,,,,,,,,,,,,,,,,,,,,,,,,,,,,,,,,,,,,,,,,,,,,,226.15668504899804,None,space,0.06598118300098577,226.15668504899804,None,226.29212435999943,None,j,1,0.6746910539986857,226.29212435999943,None,226.98939455209802,None,None,226.98939455209802,None,,12,001,2021_Oct_06_1053,searchDisc4,2021.2.3,59.303605704379684,
images/exp2b_trial_2_colour1_distractors9_r.png,r,j,2b,2,1,9,,,,,0,34,34,623,,,,,,,,,,,,,,,,,,,,,,,,,,,,,,,,,,,,,,,,,,,,,,,,,,,,,,,,,,,,,,,,,,,,,,,,,,,,226.9894661090002,None,space,0.04129232299965224,226.9894661090002,None,227.09736480399806,None,j,1,0.6374849470012123,227.09736480399806,None,227.75615949309758,None,None,227.75615949309758,None,,12,001,2021_Oct_06_1053,searchDisc4,2021.2.3,59.303605704379684,
images/exp2a_trial_41_colour2_distractors31_r.png,r,j,2a,41,2,31,,,,,0,35,35,470,,,,,,,,,,,,,,,,,,,,,,,,,,,,,,,,,,,,,,,,,,,,,,,,,,,,,,,,,,,,,,,,,,,,,,,,,,,,227.75616429799993,None,space,0.05069088200252736,227.75616429799993,None,227.87541164600043,None,j,1,0.6034793660001014,227.87541164600043,None,228.50595223809978,None,None,228.50595223809978,None,,12,001,2021_Oct_06_1053,searchDisc4,2021.2.3,59.303605704379684,
images/exp2c_trial_136_colour2_distractors19_r.png,r,j,2c,136,2,19,,,,,0,36,36,949,,,,,,,,,,,,,,,,,,,,,,,,,,,,,,,,,,,,,,,,,,,,,,,,,,,,,,,,,,,,,,,,,,,,,,,,,,,,228.5059637459999,None,space,0.028870813999674283,228.5059637459999,None,228.59703046199866,None,j,1,0.5938021940019098,228.59703046199866,None,229.22333897909812,None,None,229.22333897909812,None,,12,001,2021_Oct_06_1053,searchDisc4,2021.2.3,59.303605704379684,
images/exp2b_trial_75_colour3_distractors4_r.png,r,j,2b,75,3,4,,,,,0,37,37,696,,,,,,,,,,,,,,,,,,,,,,,,,,,,,,,,,,,,,,,,,,,,,,,,,,,,,,,,,,,,,,,,,,,,,,,,,,,,229.22328869299963,None,space,0.0315154129966686,229.22328869299963,None,229.31320524299736,None,j,1,0.5337624719977612,229.31320524299736,None,229.87338252309746,None,None,229.87338252309746,None,,12,001,2021_Oct_06_1053,searchDisc4,2021.2.3,59.303605704379684,
images/exp2c_trial_45_colour3_distractors19_r.png,r,j,2c,45,3,19,,,,,0,38,38,858,,,,,,,,,,,,,,,,,,,,,,,,,,,,,,,,,,,,,,,,,,,,,,,,,,,,,,,,,,,,,,,,,,,,,,,,,,,,229.8725920149991,None,space,0.06227623200175003,229.8725920149991,None,230.00881423600003,None,j,1,0.7901808570022695,230.00881423600003,None,230.8233742850989,None,None,230.8233742850989,None,,12,001,2021_Oct_06_1053,searchDisc4,2021.2.3,59.303605704379684,
images/exp2b_trial_55_colour2_distractors19_l.png,l,f,2b,55,2,19,,,,,0,39,39,676,,,,,,,,,,,,,,,,,,,,,,,,,,,,,,,,,,,,,,,,,,,,,,,,,,,,,,,,,,,,,,,,,,,,,,,,,,,,230.82351706499685,None,space,0.05542213300213916,230.82351706499685,None,230.95891576199938,None,f,1,0.5761076180024247,230.95891576199938,None,231.5562675680976,None,None,231.5562675680976,None,,12,001,2021_Oct_06_1053,searchDisc4,2021.2.3,59.303605704379684,
images/exp2a_trial_102_colour2_distractors4_r.png,r,j,2a,102,2,4,,,,,0,40,40,531,,,,,,,,,,,,,,,,,,,,,,,,,,,,,,,,,,,,,,,,,,,,,,,,,,,,,,,,,,,,,,,,,,,,,,,,,,,,231.55623433199798,None,space,0.14673481399950106,231.55623433199798,None,231.77551444100027,None,j,1,0.5675493540002208,231.77551444100027,None,232.37342662209812,None,None,232.37342662209812,None,,12,001,2021_Oct_06_1053,searchDisc4,2021.2.3,59.303605704379684,
images/exp2a_trial_55_colour2_distractors19_l.png,l,f,2a,55,2,19,,,,,0,41,41,484,,,,,,,,,,,,,,,,,,,,,,,,,,,,,,,,,,,,,,,,,,,,,,,,,,,,,,,,,,,,,,,,,,,,,,,,,,,,232.37270779999744,None,space,0.05024440900160698,232.37270779999744,None,232.49250228599703,None,f,1,0.67456457300068,232.49250228599703,None,233.18961310309714,None,None,233.18961310309714,None,,12,001,2021_Oct_06_1053,searchDisc4,2021.2.3,59.303605704379684,
images/exp2a_trial_101_colour2_distractors1_r.png,r,j,2a,101,2,1,,,,,0,42,42,530,,,,,,,,,,,,,,,,,,,,,,,,,,,,,,,,,,,,,,,,,,,,,,,,,,,,,,,,,,,,,,,,,,,,,,,,,,,,233.18981694399918,None,space,0.06514116899779765,233.18981694399918,None,233.3113219509978,None,j,1,0.6237805829987337,233.3113219509978,None,233.95645331909873,None,None,233.95645331909873,None,,12,001,2021_Oct_06_1053,searchDisc4,2021.2.3,59.303605704379684,
images/exp2a_trial_49_colour1_distractors9_l.png,l,f,2a,49,1,9,,,,,0,43,43,478,,,,,,,,,,,,,,,,,,,,,,,,,,,,,,,,,,,,,,,,,,,,,,,,,,,,,,,,,,,,,,,,,,,,,,,,,,,,233.95656649800003,None,space,0.05047880599886412,233.95656649800003,None,234.07548251499975,None,f,1,0.603678656003467,234.07548251499975,None,234.7068226641004,None,None,234.7068226641004,None,,12,001,2021_Oct_06_1053,searchDisc4,2021.2.3,59.303605704379684,
images/exp2a_trial_129_colour1_distractors4_r.png,r,j,2a,129,1,4,,,,,0,44,44,558,,,,,,,,,,,,,,,,,,,,,,,,,,,,,,,,,,,,,,,,,,,,,,,,,,,,,,,,,,,,,,,,,,,,,,,,,,,,234.7068875219993,None,space,0.10014515799775836,234.7068875219993,None,234.87572575199738,None,j,1,0.6273928689988679,234.87572575199738,None,235.52328170209694,None,None,235.52328170209694,None,,12,001,2021_Oct_06_1053,searchDisc4,2021.2.3,59.303605704379684,
images/exp2c_trial_41_colour2_distractors31_r.png,r,j,2c,41,2,31,,,,,0,45,45,854,,,,,,,,,,,,,,,,,,,,,,,,,,,,,,,,,,,,,,,,,,,,,,,,,,,,,,,,,,,,,,,,,,,,,,,,,,,,235.52343529399877,None,space,0.043708303001039894,235.52343529399877,None,235.64235371199902,None,j,1,0.5807698170028743,235.64235371199902,None,236.24044106109977,None,None,236.24044106109977,None,,12,001,2021_Oct_06_1053,searchDisc4,2021.2.3,59.303605704379684,
images/exp1b_trial_95_colour0_distractors0_l.png,l,f,1b,95,0,0,,,,,0,46,46,332,,,,,,,,,,,,,,,,,,,,,,,,,,,,,,,,,,,,,,,,,,,,,,,,,,,,,,,,,,,,,,,,,,,,,,,,,,,,236.2393463059998,None,space,0.07984019200011971,236.2393463059998,None,236.3802408909978,None,f,1,0.5070192060011323,236.3802408909978,None,236.9064061361005,None,None,236.9064061361005,None,,12,001,2021_Oct_06_1053,searchDisc4,2021.2.3,59.303605704379684,
images/exp1a_trial_54_colour2_distractors9_l.png,l,f,1a,54,2,9,,,,,0,47,47,99,,,,,,,,,,,,,,,,,,,,,,,,,,,,,,,,,,,,,,,,,,,,,,,,,,,,,,,,,,,,,,,,,,,,,,,,,,,,236.90625030999945,None,space,0.11694130100295297,236.90625030999945,None,237.09170263499982,None,j,0,0.7155271240008005,237.09170263499982,None,237.84031206709733,None,None,237.84031206709733,None,,12,001,2021_Oct_06_1053,searchDisc4,2021.2.3,59.303605704379684,
images/exp2a_trial_153_colour3_distractors1_l.png,l,f,2a,153,3,1,,,,,0,48,48,582,,,,,,,,,,,,,,,,,,,,,,,,,,,,,,,,,,,,,,,,,,,,,,,,,,,,,,,,,,,,,,,,,,,,,,,,,,,,237.84020263699858,None,space,0.6070788380020531,237.84020263699858,None,238.52558328699888,None,f,1,0.657755279000412,238.52558328699888,None,239.20702079609873,None,None,239.20702079609873,None,,12,001,2021_Oct_06_1053,searchDisc4,2021.2.3,59.303605704379684,
images/exp1a_trial_153_colour3_distractors1_l.png,l,f,1a,153,3,1,,,,,0,49,49,198,,,,,,,,,,,,,,,,,,,,,,,,,,,,,,,,,,,,,,,,,,,,,,,,,,,,,,,,,,,,,,,,,,,,,,,,,,,,239.20617131699692,None,space,0.11316778199761757,239.20617131699692,None,239.38090357299734,None,f,1,0.6664963950024685,239.38090357299734,None,240.07341405809893,None,None,240.07341405809893,None,,12,001,2021_Oct_06_1053,searchDisc4,2021.2.3,59.303605704379684,
images/exp2c_trial_123_colour3_distractors9_l.png,l,f,2c,123,3,9,,,,,0,50,50,936,,,,,,,,,,,,,,,,,,,,,,,,,,,,,,,,,,,,,,,,,,,,,,,,,,,,,,,,,,,,,,,,,,,,,,,,,,,,240.0734372629995,None,space,0.11792214500019327,240.0734372629995,None,240.2591300919994,None,j,0,0.8843466580001405,240.2591300919994,None,241.17371396909766,None,None,241.17371396909766,None,,12,001,2021_Oct_06_1053,searchDisc4,2021.2.3,59.303605704379684,
images/exp2b_trial_36_colour1_distractors31_r.png,r,j,2b,36,1,31,,,,,0,51,51,657,,,,,,,,,,,,,,,,,,,,,,,,,,,,,,,,,,,,,,,,,,,,,,,,,,,,,,,,,,,,,,,,,,,,,,,,,,,,241.17361442499896,None,space,0.0657623639999656,241.17361442499896,None,241.30925562300035,None,j,1,1.0981582120002713,241.30925562300035,None,242.44038017509774,None,None,242.44038017509774,None,,12,001,2021_Oct_06_1053,searchDisc4,2021.2.3,59.303605704379684,
images/exp2c_trial_142_colour3_distractors31_r.png,r,j,2c,142,3,31,,,,,0,52,52,955,,,,,,,,,,,,,,,,,,,,,,,,,,,,,,,,,,,,,,,,,,,,,,,,,,,,,,,,,,,,,,,,,,,,,,,,,,,,242.4403549259987,None,space,0.8151562029997876,242.4403549259987,None,243.32598531199983,None,j,1,0.8336193690010987,243.32598531199983,None,244.1905718871003,None,None,244.1905718871003,None,,12,001,2021_Oct_06_1053,searchDisc4,2021.2.3,59.303605704379684,
images/exp1b_trial_51_colour1_distractors31_l.png,l,f,1b,51,1,31,,,,,0,53,53,288,,,,,,,,,,,,,,,,,,,,,,,,,,,,,,,,,,,,,,,,,,,,,,,,,,,,,,,,,,,,,,,,,,,,,,,,,,,,244.1897608679974,None,space,0.00979850000294391,244.1897608679974,None,244.27410348299964,None,f,1,1.0135562340001343,244.27410348299964,None,245.30677250010012,None,None,245.30677250010012,None,,12,001,2021_Oct_06_1053,searchDisc4,2021.2.3,59.303605704379684,
images/exp2b_trial_15_colour1_distractors1_l.png,l,f,2b,15,1,1,,,,,0,54,54,636,,,,,,,,,,,,,,,,,,,,,,,,,,,,,,,,,,,,,,,,,,,,,,,,,,,,,,,,,,,,,,,,,,,,,,,,,,,,245.30679823199898,None,space,0.0848023220023606,245.30679823199898,None,245.4475010219976,None,f,1,0.6401960359980876,245.4475010219976,None,246.10678557909887,None,None,246.10678557909887,None,,12,001,2021_Oct_06_1053,searchDisc4,2021.2.3,59.303605704379684,
images/exp1b_trial_185_colour3_distractors1_l.png,l,f,1b,185,3,1,,,,,0,55,55,422,,,,,,,,,,,,,,,,,,,,,,,,,,,,,,,,,,,,,,,,,,,,,,,,,,,,,,,,,,,,,,,,,,,,,,,,,,,,246.1066613639996,None,space,0.09300653099853662,246.1066613639996,None,246.26457071999903,None,f,1,0.5830724619991088,246.26457071999903,None,246.87362325709728,None,None,246.87362325709728,None,,12,001,2021_Oct_06_1053,searchDisc4,2021.2.3,59.303605704379684,
images/exp1b_trial_60_colour3_distractors19_l.png,l,f,1b,60,3,19,,,,,0,56,56,297,,,,,,,,,,,,,,,,,,,,,,,,,,,,,,,,,,,,,,,,,,,,,,,,,,,,,,,,,,,,,,,,,,,,,,,,,,,,246.87367646399798,None,space,0.08591355599855888,246.87367646399798,None,247.03170389799925,None,f,1,1.5200792910000018,247.03170389799925,None,248.57334283309865,None,None,248.57334283309865,None,,12,001,2021_Oct_06_1053,searchDisc4,2021.2.3,59.303605704379684,
images/exp1b_trial_118_colour2_distractors9_l.png,l,f,1b,118,2,9,,,,,0,57,57,355,,,,,,,,,,,,,,,,,,,,,,,,,,,,,,,,,,,,,,,,,,,,,,,,,,,,,,,,,,,,,,,,,,,,,,,,,,,,248.5737829469981,None,space,0.08194101299886825,248.5737829469981,None,248.72631454399743,None,f,1,0.8415001739995205,248.72631454399743,None,249.59046974109697,None,None,249.59046974109697,None,,12,001,2021_Oct_06_1053,searchDisc4,2021.2.3,59.303605704379684,
images/exp2c_trial_36_colour1_distractors31_r.png,r,j,2c,36,1,31,,,,,0,58,58,849,,,,,,,,,,,,,,,,,,,,,,,,,,,,,,,,,,,,,,,,,,,,,,,,,,,,,,,,,,,,,,,,,,,,,,,,,,,,249.59049355099705,None,space,0.06526266299988492,249.59049355099705,None,249.71470153599876,None,j,1,0.645170321000478,249.71470153599876,None,250.39044154009935,None,None,250.39044154009935,None,,12,001,2021_Oct_06_1053,searchDisc4,2021.2.3,59.303605704379684,
images/exp2c_trial_62_colour0_distractors0_r.png,r,j,2c,62,0,0,,,,,0,59,59,875,,,,,,,,,,,,,,,,,,,,,,,,,,,,,,,,,,,,,,,,,,,,,,,,,,,,,,,,,,,,,,,,,,,,,,,,,,,,250.39079006599786,None,space,0.06503921100011212,250.39079006599786,None,250.52619208099713,None,j,1,0.49766152200027136,250.52619208099713,None,251.0407208680972,None,None,251.0407208680972,None,,12,001,2021_Oct_06_1053,searchDisc4,2021.2.3,59.303605704379684,
images/exp1a_trial_169_colour2_distractors31_r.png,r,j,1a,169,2,31,,,,,0,60,60,214,,,,,,,,,,,,,,,,,,,,,,,,,,,,,,,,,,,,,,,,,,,,,,,,,,,,,,,,,,,,,,,,,,,,,,,,,,,,251.04000500799884,None,space,0.09581555899785599,251.04000500799884,None,251.20929510600035,None,j,1,0.5186506600002758,251.20929510600035,None,251.7573067480971,None,None,251.7573067480971,None,,12,001,2021_Oct_06_1053,searchDisc4,2021.2.3,59.303605704379684,
images/exp2b_trial_79_colour1_distractors1_l.png,l,f,2b,79,1,1,,,,,0,61,61,700,,,,,,,,,,,,,,,,,,,,,,,,,,,,,,,,,,,,,,,,,,,,,,,,,,,,,,,,,,,,,,,,,,,,,,,,,,,,251.75731739099865,None,space,0.058572481997543946,251.75731739099865,None,251.8818001869986,None,f,1,0.6461846740021429,251.8818001869986,None,252.55732040210023,None,None,252.55732040210023,None,,12,001,2021_Oct_06_1053,searchDisc4,2021.2.3,59.303605704379684,
images/exp2c_trial_98_colour1_distractors9_r.png,r,j,2c,98,1,9,,,,,0,62,62,911,,,,,,,,,,,,,,,,,,,,,,,,,,,,,,,,,,,,,,,,,,,,,,,,,,,,,,,,,,,,,,,,,,,,,,,,,,,,252.55721249499766,None,space,0.9307484599994496,252.55721249499766,None,253.5595263510004,None,j,1,0.6324590769982024,253.5595263510004,None,254.22407737609865,None,None,254.22407737609865,None,,12,001,2021_Oct_06_1053,searchDisc4,2021.2.3,59.303605704379684,
images/exp2b_trial_102_colour2_distractors4_r.png,r,j,2b,102,2,4,,,,,0,63,63,723,,,,,,,,,,,,,,,,,,,,,,,,,,,,,,,,,,,,,,,,,,,,,,,,,,,,,,,,,,,,,,,,,,,,,,,,,,,,254.22399361399948,None,space,0.03200743499837699,254.22399361399948,None,254.3128861999976,None,j,1,0.5671966890004114,254.3128861999976,None,254.90745725809938,None,None,254.90745725809938,None,,12,001,2021_Oct_06_1053,searchDisc4,2021.2.3,59.303605704379684,
images/exp2c_trial_11_colour3_distractors4_r.png,r,j,2c,11,3,4,,,,,0,64,64,824,,,,,,,,,,,,,,,,,,,,,,,,,,,,,,,,,,,,,,,,,,,,,,,,,,,,,,,,,,,,,,,,,,,,,,,,,,,,254.90742168199722,None,space,0.03654833300242899,254.90742168199722,None,255.02624276200004,None,j,1,0.605875549998018,255.02624276200004,None,255.65699812509956,None,None,255.65699812509956,None,,12,001,2021_Oct_06_1053,searchDisc4,2021.2.3,59.303605704379684,
images/exp1b_trial_53_colour2_distractors4_l.png,l,f,1b,53,2,4,,,,,0,65,65,290,,,,,,,,,,,,,,,,,,,,,,,,,,,,,,,,,,,,,,,,,,,,,,,,,,,,,,,,,,,,,,,,,,,,,,,,,,,,255.65727229999902,None,space,0.0788087920009275,255.65727229999902,None,255.79869047999819,None,f,1,0.7054688360003638,255.79869047999819,None,256.5233314190973,None,None,256.5233314190973,None,,12,001,2021_Oct_06_1053,searchDisc4,2021.2.3,59.303605704379684,
images/exp2c_trial_175_colour1_distractors1_l.png,l,f,2c,175,1,1,,,,,0,66,66,28,,,,,,,,,,,,,,,,,,,,,,,,,,,,,,,,,,,,,,,,,,,,,,,,,,,,,,,,,,,,,,,,,,,,,,,,,,,,256.52347044699854,None,space,0.1646478719994775,256.52347044699854,None,256.7485021219982,None,f,1,0.6036902099986037,256.7485021219982,None,257.3736509040991,None,None,257.3736509040991,None,,12,001,2021_Oct_06_1053,searchDisc4,2021.2.3,59.303605704379684,
images/exp2a_trial_172_colour3_distractors9_r.png,r,j,2a,172,3,9,,,,,0,67,67,601,,,,,,,,,,,,,,,,,,,,,,,,,,,,,,,,,,,,,,,,,,,,,,,,,,,,,,,,,,,,,,,,,,,,,,,,,,,,257.3737573969993,None,space,0.09046299200053909,257.3737573969993,None,257.54306854499737,None,j,1,0.7290621049978654,257.54306854499737,None,258.2899389410977,None,None,258.2899389410977,None,,12,001,2021_Oct_06_1053,searchDisc4,2021.2.3,59.303605704379684,
images/exp1b_trial_1_colour1_distractors4_r.png,r,j,1b,1,1,4,,,,,0,68,68,238,,,,,,,,,,,,,,,,,,,,,,,,,,,,,,,,,,,,,,,,,,,,,,,,,,,,,,,,,,,,,,,,,,,,,,,,,,,,258.2901628990003,None,space,0.09404146799715818,258.2901628990003,None,258.45956954400026,None,j,1,0.828722040001594,258.45956954400026,None,259.30737948209753,None,None,259.30737948209753,None,,12,001,2021_Oct_06_1053,searchDisc4,2021.2.3,59.303605704379684,
images/exp2b_trial_65_colour1_distractors4_r.png,r,j,2b,65,1,4,,,,,0,69,69,686,,,,,,,,,,,,,,,,,,,,,,,,,,,,,,,,,,,,,,,,,,,,,,,,,,,,,,,,,,,,,,,,,,,,,,,,,,,,259.30740010599766,None,space,0.12486832399736159,259.30740010599766,None,259.5091303829977,None,j,1,0.5552131910008029,259.5091303829977,None,260.09025382509753,None,None,260.09025382509753,None,,12,001,2021_Oct_06_1053,searchDisc4,2021.2.3,59.303605704379684,
images/exp1b_trial_21_colour2_distractors4_l.png,l,f,1b,21,2,4,,,,,0,70,70,258,,,,,,,,,,,,,,,,,,,,,,,,,,,,,,,,,,,,,,,,,,,,,,,,,,,,,,,,,,,,,,,,,,,,,,,,,,,,260.09020804600004,None,space,0.08598923899990041,260.09020804600004,None,260.24303838099877,None,f,1,0.7413377919983759,260.24303838099877,None,261.007584139099,None,None,261.007584139099,None,,12,001,2021_Oct_06_1053,searchDisc4,2021.2.3,59.303605704379684,
images/exp1b_trial_47_colour1_distractors1_l.png,l,f,1b,47,1,1,,,,,0,71,71,284,,,,,,,,,,,,,,,,,,,,,,,,,,,,,,,,,,,,,,,,,,,,,,,,,,,,,,,,,,,,,,,,,,,,,,,,,,,,261.00757977099784,None,space,0.07276724899929832,261.00757977099784,None,261.1486734129976,None,f,1,0.635730660000263,261.1486734129976,None,261.8069970171,None,None,261.8069970171,None,,12,001,2021_Oct_06_1053,searchDisc4,2021.2.3,59.303605704379684,
images/exp2c_trial_27_colour3_distractors9_l.png,l,f,2c,27,3,9,,,,,0,72,72,840,,,,,,,,,,,,,,,,,,,,,,,,,,,,,,,,,,,,,,,,,,,,,,,,,,,,,,,,,,,,,,,,,,,,,,,,,,,,261.80727111599845,None,space,0.10508616700099083,261.80727111599845,None,261.9930760419993,None,f,1,0.9913980570017884,261.9930760419993,None,263.0070877560993,None,None,263.0070877560993,None,,12,001,2021_Oct_06_1053,searchDisc4,2021.2.3,59.303605704379684,
images/exp1a_trial_166_colour2_distractors4_r.png,r,j,1a,166,2,4,,,,,0,73,73,211,,,,,,,,,,,,,,,,,,,,,,,,,,,,,,,,,,,,,,,,,,,,,,,,,,,,,,,,,,,,,,,,,,,,,,,,,,,,263.0072206279983,None,space,0.12920474799830117,263.0072206279983,None,263.2096881969992,None,j,1,0.5668200210020586,263.2096881969992,None,263.80763869309703,None,None,263.80763869309703,None,,12,001,2021_Oct_06_1053,searchDisc4,2021.2.3,59.303605704379684,
images/exp2b_trial_37_colour2_distractors1_r.png,r,j,2b,37,2,1,,,,,0,74,74,658,,,,,,,,,,,,,,,,,,,,,,,,,,,,,,,,,,,,,,,,,,,,,,,,,,,,,,,,,,,,,,,,,,,,,,,,,,,,263.807611319,None,space,0.06477767000251333,263.807611319,None,263.9313930979988,None,j,1,0.5491840779977792,263.9313930979988,None,264.50757697009794,None,None,264.50757697009794,None,,12,001,2021_Oct_06_1053,searchDisc4,2021.2.3,59.303605704379684,
images/exp2c_trial_61_colour3_distractors31_l.png,l,f,2c,61,3,31,,,,,0,75,75,874,,,,,,,,,,,,,,,,,,,,,,,,,,,,,,,,,,,,,,,,,,,,,,,,,,,,,,,,,,,,,,,,,,,,,,,,,,,,264.5076453099973,None,space,0.05275035500017111,264.5076453099973,None,264.6432398349971,None,f,1,0.6853384930000175,264.6432398349971,None,265.35775017209926,None,None,265.35775017209926,None,,12,001,2021_Oct_06_1053,searchDisc4,2021.2.3,59.303605704379684,
images/exp2b_trial_39_colour2_distractors9_r.png,r,j,2b,39,2,9,,,,,0,76,76,660,,,,,,,,,,,,,,,,,,,,,,,,,,,,,,,,,,,,,,,,,,,,,,,,,,,,,,,,,,,,,,,,,,,,,,,,,,,,265.35766721899927,None,space,0.12286463199779973,265.35766721899927,None,265.54905559399776,None,j,1,0.6594453809993865,265.54905559399776,None,266.2409458020975,None,None,266.2409458020975,None,,12,001,2021_Oct_06_1053,searchDisc4,2021.2.3,59.303605704379684,
images/exp2b_trial_28_colour3_distractors19_l.png,l,f,2b,28,3,19,,,,,0,77,77,649,,,,,,,,,,,,,,,,,,,,,,,,,,,,,,,,,,,,,,,,,,,,,,,,,,,,,,,,,,,,,,,,,,,,,,,,,,,,266.24102785799914,None,space,0.04754258499815478,266.24102785799914,None,266.35992403699856,None,f,1,0.7607304810007918,266.35992403699856,None,267.1408995710972,None,None,267.1408995710972,None,,12,001,2021_Oct_06_1053,searchDisc4,2021.2.3,59.303605704379684,
images/exp2a_trial_91_colour3_distractors9_l.png,l,f,2a,91,3,9,,,,,0,78,78,520,,,,,,,,,,,,,,,,,,,,,,,,,,,,,,,,,,,,,,,,,,,,,,,,,,,,,,,,,,,,,,,,,,,,,,,,,,,,267.1409390939989,None,space,0.10765133899985813,267.1409390939989,None,267.32636706300036,None,f,1,0.6343203050018928,267.32636706300036,None,267.9909974730999,None,None,267.9909974730999,None,,12,001,2021_Oct_06_1053,searchDisc4,2021.2.3,59.303605704379684,
images/exp2b_trial_81_colour1_distractors9_l.png,l,f,2b,81,1,9,,,,,0,79,79,702,,,,,,,,,,,,,,,,,,,,,,,,,,,,,,,,,,,,,,,,,,,,,,,,,,,,,,,,,,,,,,,,,,,,,,,,,,,,267.9914707399985,None,space,0.07318463699994027,267.9914707399985,None,268.124171984,None,f,1,0.6285613500003819,268.124171984,None,268.7740621180983,None,None,268.7740621180983,None,,12,001,2021_Oct_06_1053,searchDisc4,2021.2.3,59.303605704379684,
images/exp2b_trial_98_colour1_distractors9_r.png,r,j,2b,98,1,9,,,,,0,80,80,719,,,,,,,,,,,,,,,,,,,,,,,,,,,,,,,,,,,,,,,,,,,,,,,,,,,,,,,,,,,,,,,,,,,,,,,,,,,,268.7740686979996,None,space,0.08262269500119146,268.7740686979996,None,268.92648491,None,j,1,0.6102754570019897,268.92648491,None,269.55807533909865,None,None,269.55807533909865,None,,12,001,2021_Oct_06_1053,searchDisc4,2021.2.3,59.303605704379684,
images/exp1b_trial_101_colour2_distractors1_r.png,r,j,1b,101,2,1,,,,,0,81,81,338,,,,,,,,,,,,,,,,,,,,,,,,,,,,,,,,,,,,,,,,,,,,,,,,,,,,,,,,,,,,,,,,,,,,,,,,,,,,269.5580387459995,None,space,0.042671606002841145,269.5580387459995,None,269.66553154199937,None,j,1,0.8071612769999774,269.66553154199937,None,270.4904915891002,None,None,270.4904915891002,None,,12,001,2021_Oct_06_1053,searchDisc4,2021.2.3,59.303605704379684,
images/exp1a_trial_26_colour3_distractors4_l.png,l,f,1a,26,3,4,,,,,0,82,82,71,,,,,,,,,,,,,,,,,,,,,,,,,,,,,,,,,,,,,,,,,,,,,,,,,,,,,,,,,,,,,,,,,,,,,,,,,,,,270.4905515939972,None,space,0.07012236899754498,270.4905515939972,None,270.6433381059978,None,f,1,0.7095142359976307,270.6433381059978,None,271.3742657411003,None,None,271.3742657411003,None,,12,001,2021_Oct_06_1053,searchDisc4,2021.2.3,59.303605704379684,
images/exp2b_trial_175_colour1_distractors1_l.png,l,f,2b,175,1,1,,,,,0,83,83,796,,,,,,,,,,,,,,,,,,,,,,,,,,,,,,,,,,,,,,,,,,,,,,,,,,,,,,,,,,,,,,,,,,,,,,,,,,,,271.3743470169975,None,space,0.09052581899959478,271.3743470169975,None,271.53101866900033,None,f,1,0.7018835159979062,271.53101866900033,None,272.2575993410992,None,None,272.2575993410992,None,,12,001,2021_Oct_06_1053,searchDisc4,2021.2.3,59.303605704379684,
images/exp2c_trial_26_colour3_distractors4_l.png,l,f,2c,26,3,4,,,,,0,84,84,839,,,,,,,,,,,,,,,,,,,,,,,,,,,,,,,,,,,,,,,,,,,,,,,,,,,,,,,,,,,,,,,,,,,,,,,,,,,,272.25776495899845,None,space,0.09507511799893109,272.25776495899845,None,272.4263226969997,None,f,1,0.7106043249987124,272.4263226969997,None,273.15712635809723,None,None,273.15712635809723,None,,12,001,2021_Oct_06_1053,searchDisc4,2021.2.3,59.303605704379684,
images/exp2c_trial_83_colour1_distractors31_l.png,l,f,2c,83,1,31,,,,,0,85,85,896,,,,,,,,,,,,,,,,,,,,,,,,,,,,,,,,,,,,,,,,,,,,,,,,,,,,,,,,,,,,,,,,,,,,,,,,,,,,273.15787422799986,None,space,0.09101394499884918,273.15787422799986,None,273.3266905119999,None,f,1,0.6182677700016939,273.3266905119999,None,273.97448400809844,None,None,273.97448400809844,None,,12,001,2021_Oct_06_1053,searchDisc4,2021.2.3,59.303605704379684,
images/exp2b_trial_187_colour3_distractors9_l.png,l,f,2b,187,3,9,,,,,0,86,86,808,,,,,,,,,,,,,,,,,,,,,,,,,,,,,,,,,,,,,,,,,,,,,,,,,,,,,,,,,,,,,,,,,,,,,,,,,,,,273.9748149379993,None,space,0.08207095000034315,273.9748149379993,None,274.12665295699844,None,f,1,0.6103232349996688,274.12665295699844,None,274.75718517809764,None,None,274.75718517809764,None,,12,001,2021_Oct_06_1053,searchDisc4,2021.2.3,59.303605704379684,
images/exp2c_trial_164_colour1_distractors31_r.png,r,j,2c,164,1,31,,,,,0,87,87,17,,,,,,,,,,,,,,,,,,,,,,,,,,,,,,,,,,,,,,,,,,,,,,,,,,,,,,,,,,,,,,,,,,,,,,,,,,,,274.7572126649975,None,space,0.0917013649996079,274.7572126649975,None,274.9266857399998,None,j,1,0.6583276890014531,274.9266857399998,None,275.60765191209975,None,None,275.60765191209975,None,,12,001,2021_Oct_06_1053,searchDisc4,2021.2.3,59.303605704379684,
images/exp1b_trial_43_colour3_distractors4_r.png,r,j,1b,43,3,4,,,,,0,88,88,280,,,,,,,,,,,,,,,,,,,,,,,,,,,,,,,,,,,,,,,,,,,,,,,,,,,,,,,,,,,,,,,,,,,,,,,,,,,,275.6077601349971,None,space,0.05720763099816395,275.6077601349971,None,275.7434982099985,None,j,1,0.8015602079976816,275.7434982099985,None,276.5745563760993,None,None,276.5745563760993,None,,12,001,2021_Oct_06_1053,searchDisc4,2021.2.3,59.303605704379684,
images/exp2b_trial_158_colour0_distractors0_r.png,r,j,2b,158,0,0,,,,,0,89,89,779,,,,,,,,,,,,,,,,,,,,,,,,,,,,,,,,,,,,,,,,,,,,,,,,,,,,,,,,,,,,,,,,,,,,,,,,,,,,276.57472251299987,None,space,0.010275844997522654,276.57472251299987,None,276.6462229459976,None,j,1,0.6108286130001943,276.6462229459976,None,277.2746004290984,None,None,277.2746004290984,None,,12,001,2021_Oct_06_1053,searchDisc4,2021.2.3,59.303605704379684,
images/exp2b_trial_23_colour2_distractors19_l.png,l,f,2b,23,2,19,,,,,0,90,90,644,,,,,,,,,,,,,,,,,,,,,,,,,,,,,,,,,,,,,,,,,,,,,,,,,,,,,,,,,,,,,,,,,,,,,,,,,,,,277.27465776999816,None,space,0.7023967560016899,277.27465776999816,None,278.0472504799982,None,f,1,1.0339685789986106,278.0472504799982,None,279.1082834270983,None,None,279.1082834270983,None,,12,001,2021_Oct_06_1053,searchDisc4,2021.2.3,59.303605704379684,
images/exp2a_trial_35_colour1_distractors19_r.png,r,j,2a,35,1,19,,,,,0,91,91,464,,,,,,,,,,,,,,,,,,,,,,,,,,,,,,,,,,,,,,,,,,,,,,,,,,,,,,,,,,,,,,,,,,,,,,,,,,,,279.10732426699906,None,space,0.06179184299980989,279.10732426699906,None,279.24375056699864,None,j,1,0.6375125420017866,279.24375056699864,None,279.9081314110972,None,None,279.9081314110972,None,,12,001,2021_Oct_06_1053,searchDisc4,2021.2.3,59.303605704379684,
images/exp2a_trial_29_colour3_distractors31_l.png,l,f,2a,29,3,31,,,,,0,92,92,458,,,,,,,,,,,,,,,,,,,,,,,,,,,,,,,,,,,,,,,,,,,,,,,,,,,,,,,,,,,,,,,,,,,,,,,,,,,,279.9077748749987,None,space,0.02940792300069006,279.9077748749987,None,280.01005720600006,None,f,1,0.8392316150020633,280.01005720600006,None,280.874829093098,None,None,280.874829093098,None,,12,001,2021_Oct_06_1053,searchDisc4,2021.2.3,59.303605704379684,
images/exp1b_trial_167_colour2_distractors9_r.png,r,j,1b,167,2,9,,,,,0,93,93,404,,,,,,,,,,,,,,,,,,,,,,,,,,,,,,,,,,,,,,,,,,,,,,,,,,,,,,,,,,,,,,,,,,,,,,,,,,,,280.8751563959995,None,space,0.06206966399986413,280.8751563959995,None,280.99795886799984,None,j,1,0.7233646940003382,280.99795886799984,None,281.74170535609846,None,None,281.74170535609846,None,,12,001,2021_Oct_06_1053,searchDisc4,2021.2.3,59.303605704379684,
images/exp2a_trial_144_colour1_distractors4_l.png,l,f,2a,144,1,4,,,,,0,94,94,573,,,,,,,,,,,,,,,,,,,,,,,,,,,,,,,,,,,,,,,,,,,,,,,,,,,,,,,,,,,,,,,,,,,,,,,,,,,,281.7417066849994,None,space,0.05159877400001278,281.7417066849994,None,281.8492780339984,None,f,1,0.5200763520006149,281.8492780339984,None,282.3906676750976,None,None,282.3906676750976,None,,12,001,2021_Oct_06_1053,searchDisc4,2021.2.3,59.303605704379684,
images/exp2c_trial_90_colour3_distractors4_l.png,l,f,2c,90,3,4,,,,,0,95,95,903,,,,,,,,,,,,,,,,,,,,,,,,,,,,,,,,,,,,,,,,,,,,,,,,,,,,,,,,,,,,,,,,,,,,,,,,,,,,282.39146364099724,None,space,0.09780930299893953,282.39146364099724,None,282.54871872500007,None,f,1,0.7165886439979658,282.54871872500007,None,283.29147176609877,None,None,283.29147176609877,None,,12,001,2021_Oct_06_1053,searchDisc4,2021.2.3,59.303605704379684,
images/exp2a_trial_155_colour3_distractors9_l.png,l,f,2a,155,3,9,,,,,0,96,96,584,,,,,,,,,,,,,,,,,,,,,,,,,,,,,,,,,,,,,,,,,,,,,,,,,,,,,,,,,,,,,,,,,,,,,,,,,,,,283.29152593300023,None,space,0.0938105560016993,283.29152593300023,None,283.4602936529991,None,f,1,0.7091426320002938,283.4602936529991,None,284.19184649309864,None,None,284.19184649309864,None,,12,001,2021_Oct_06_1053,searchDisc4,2021.2.3,59.303605704379684,
images/exp2a_trial_36_colour1_distractors31_r.png,r,j,2a,36,1,31,,,,,0,97,97,465,,,,,,,,,,,,,,,,,,,,,,,,,,,,,,,,,,,,,,,,,,,,,,,,,,,,,,,,,,,,,,,,,,,,,,,,,,,,284.19176874500045,None,space,0.0495735299991793,284.19176874500045,None,284.2995154959972,None,j,1,0.6139481700010947,284.2995154959972,None,284.9416060310996,None,None,284.9416060310996,None,,12,001,2021_Oct_06_1053,searchDisc4,2021.2.3,59.303605704379684,
images/exp1b_trial_92_colour3_distractors19_l.png,l,f,1b,92,3,19,,,,,0,98,98,329,,,,,,,,,,,,,,,,,,,,,,,,,,,,,,,,,,,,,,,,,,,,,,,,,,,,,,,,,,,,,,,,,,,,,,,,,,,,284.94156311199913,None,space,0.05175761900318321,284.94156311199913,None,285.0603963149988,None,f,1,0.8531128270005865,285.0603963149988,None,285.94163585709794,None,None,285.94163585709794,None,,12,001,2021_Oct_06_1053,searchDisc4,2021.2.3,59.303605704379684,
images/exp2a_trial_161_colour1_distractors4_r.png,r,j,2a,161,1,4,,,,,0,99,99,590,,,,,,,,,,,,,,,,,,,,,,,,,,,,,,,,,,,,,,,,,,,,,,,,,,,,,,,,,,,,,,,,,,,,,,,,,,,,285.941678510997,None,space,0.05177923700102838,285.941678510997,None,286.0773059429994,None,j,1,0.5242462739988696,286.0773059429994,None,286.6244474080977,None,None,286.6244474080977,None,,12,001,2021_Oct_06_1053,searchDisc4,2021.2.3,59.303605704379684,
images/exp1a_trial_100_colour1_distractors31_r.png,r,j,1a,100,1,31,,,,,0,100,100,145,,,,,,,,,,,,,,,,,,,,,,,,,,,,,,,,,,,,,,,,,,,,,,,,,,,,,,,,,,,,,,,,,,,,,,,,,,,,286.6247595649984,None,space,0.03264976500213379,286.6247595649984,None,286.7270752959994,None,j,1,0.6744998809990648,286.7270752959994,None,287.4248378440989,None,None,287.4248378440989,None,,12,001,2021_Oct_06_1053,searchDisc4,2021.2.3,59.303605704379684,
images/exp2a_trial_103_colour2_distractors9_r.png,r,j,2a,103,2,9,,,,,0,101,101,532,,,,,,,,,,,,,,,,,,,,,,,,,,,,,,,,,,,,,,,,,,,,,,,,,,,,,,,,,,,,,,,,,,,,,,,,,,,,287.4247984249996,None,space,0.12873230799959856,287.4247984249996,None,287.6269277829997,None,j,1,0.5746954830028699,287.6269277829997,None,288.2248800280995,None,None,288.2248800280995,None,,12,001,2021_Oct_06_1053,searchDisc4,2021.2.3,59.303605704379684,
images/exp2b_trial_167_colour2_distractors9_r.png,r,j,2b,167,2,9,,,,,0,102,102,788,,,,,,,,,,,,,,,,,,,,,,,,,,,,,,,,,,,,,,,,,,,,,,,,,,,,,,,,,,,,,,,,,,,,,,,,,,,,288.22492058999705,None,space,0.056659655001567444,288.22492058999705,None,288.34676624499843,None,j,1,0.47087617800207227,288.34676624499843,None,288.8412722080993,None,None,288.8412722080993,None,,12,001,2021_Oct_06_1053,searchDisc4,2021.2.3,59.303605704379684,
images/exp2b_trial_121_colour3_distractors1_l.png,l,f,2b,121,3,1,,,,,0,103,103,742,,,,,,,,,,,,,,,,,,,,,,,,,,,,,,,,,,,,,,,,,,,,,,,,,,,,,,,,,,,,,,,,,,,,,,,,,,,,288.8415068369977,None,space,0.01602226699833409,288.8415068369977,None,288.91279692199896,None,j,0,0.46489195200047106,288.91279692199896,None,289.40823693309903,None,None,289.40823693309903,None,,12,001,2021_Oct_06_1053,searchDisc4,2021.2.3,59.303605704379684,
images/exp2a_trial_115_colour1_distractors31_l.png,l,f,2a,115,1,31,,,,,0,104,104,544,,,,,,,,,,,,,,,,,,,,,,,,,,,,,,,,,,,,,,,,,,,,,,,,,,,,,,,,,,,,,,,,,,,,,,,,,,,,289.4082689749994,None,space,0.6733826619965839,289.4082689749994,None,290.1605389039978,None,f,1,0.6012234049994731,290.1605389039978,None,290.7916243171003,None,None,290.7916243171003,None,,12,001,2021_Oct_06_1053,searchDisc4,2021.2.3,59.303605704379684,
images/exp2a_trial_47_colour1_distractors1_l.png,l,f,2a,47,1,1,,,,,0,105,105,476,,,,,,,,,,,,,,,,,,,,,,,,,,,,,,,,,,,,,,,,,,,,,,,,,,,,,,,,,,,,,,,,,,,,,,,,,,,,290.7917072019991,None,space,0.04988321899872972,290.7917072019991,None,290.897409150999,None,f,1,0.5682398399985686,290.897409150999,None,291.49185242709973,None,None,291.49185242709973,None,,12,001,2021_Oct_06_1053,searchDisc4,2021.2.3,59.303605704379684,
images/exp2b_trial_103_colour2_distractors9_r.png,r,j,2b,103,2,9,,,,,0,106,106,724,,,,,,,,,,,,,,,,,,,,,,,,,,,,,,,,,,,,,,,,,,,,,,,,,,,,,,,,,,,,,,,,,,,,,,,,,,,,291.49192960899745,None,space,0.06179411899938714,291.49192960899745,None,291.61526223299734,None,j,1,0.7465699319982377,291.61526223299734,None,292.3909608940976,None,None,292.3909608940976,None,,12,001,2021_Oct_06_1053,searchDisc4,2021.2.3,59.303605704379684,
images/exp1b_trial_106_colour3_distractors1_r.png,r,j,1b,106,3,1,,,,,0,107,107,343,,,,,,,,,,,,,,,,,,,,,,,,,,,,,,,,,,,,,,,,,,,,,,,,,,,,,,,,,,,,,,,,,,,,,,,,,,,,292.3911127459978,None,space,0.03456447099961224,292.3911127459978,None,292.495771185997,None,j,1,1.3781306609998865,292.495771185997,None,293.8916732840971,None,None,293.8916732840971,None,,12,001,2021_Oct_06_1053,searchDisc4,2021.2.3,59.303605704379684,
images/exp1a_trial_131_colour1_distractors19_r.png,r,j,1a,131,1,19,,,,,0,108,108,176,,,,,,,,,,,,,,,,,,,,,,,,,,,,,,,,,,,,,,,,,,,,,,,,,,,,,,,,,,,,,,,,,,,,,,,,,,,,293.89179465199777,None,space,0.05402972600131761,293.89179465199777,None,294.02731589999894,None,j,1,0.5825856129995373,294.02731589999894,None,294.6418539110982,None,None,294.6418539110982,None,,12,001,2021_Oct_06_1053,searchDisc4,2021.2.3,59.303605704379684,
images/exp2c_trial_87_colour2_distractors19_l.png,l,f,2c,87,2,19,,,,,0,109,109,900,,,,,,,,,,,,,,,,,,,,,,,,,,,,,,,,,,,,,,,,,,,,,,,,,,,,,,,,,,,,,,,,,,,,,,,,,,,,294.6417734709976,None,space,0.0479976330025238,294.6417734709976,None,294.7605983069989,None,f,1,0.5853625430027023,294.7605983069989,None,295.37518986609757,None,None,295.37518986609757,None,,12,001,2021_Oct_06_1053,searchDisc4,2021.2.3,59.303605704379684,
images/exp2a_trial_110_colour3_distractors31_r.png,r,j,2a,110,3,31,,,,,0,110,110,539,,,,,,,,,,,,,,,,,,,,,,,,,,,,,,,,,,,,,,,,,,,,,,,,,,,,,,,,,,,,,,,,,,,,,,,,,,,,295.3749937229986,None,space,0.0988938539994706,295.3749937229986,None,295.5440315849992,None,f,0,0.5699493459978839,295.5440315849992,None,296.1412690210982,None,None,296.1412690210982,None,,12,001,2021_Oct_06_1053,searchDisc4,2021.2.3,59.303605704379684,
images/exp2a_trial_18_colour1_distractors19_l.png,l,f,2a,18,1,19,,,,,0,111,111,447,,,,,,,,,,,,,,,,,,,,,,,,,,,,,,,,,,,,,,,,,,,,,,,,,,,,,,,,,,,,,,,,,,,,,,,,,,,,296.1413553659986,None,space,0.1565889049998077,296.1413553659986,None,296.37682506799683,None,f,1,0.8172285559994634,296.37682506799683,None,297.22527036509746,None,None,297.22527036509746,None,,12,001,2021_Oct_06_1053,searchDisc4,2021.2.3,59.303605704379684,
images/exp2b_trial_156_colour3_distractors19_l.png,l,f,2b,156,3,19,,,,,0,112,112,777,,,,,,,,,,,,,,,,,,,,,,,,,,,,,,,,,,,,,,,,,,,,,,,,,,,,,,,,,,,,,,,,,,,,,,,,,,,,297.2245701510001,None,space,0.09741783900244627,297.2245701510001,None,297.3939474289982,None,f,1,0.6401207279996015,297.3939474289982,None,298.05776557509853,None,None,298.05776557509853,None,,12,001,2021_Oct_06_1053,searchDisc4,2021.2.3,59.303605704379684,
images/exp2c_trial_65_colour1_distractors4_r.png,r,j,2c,65,1,4,,,,,0,113,113,878,,,,,,,,,,,,,,,,,,,,,,,,,,,,,,,,,,,,,,,,,,,,,,,,,,,,,,,,,,,,,,,,,,,,,,,,,,,,298.05783229199733,None,space,0.10419936499965843,298.05783229199733,None,298.22513461999915,None,j,1,0.49696382700130926,298.22513461999915,None,298.74115332409747,None,None,298.74115332409747,None,,12,001,2021_Oct_06_1053,searchDisc4,2021.2.3,59.303605704379684,
images/exp2b_trial_72_colour2_distractors19_r.png,r,j,2b,72,2,19,,,,,0,114,114,693,,,,,,,,,,,,,,,,,,,,,,,,,,,,,,,,,,,,,,,,,,,,,,,,,,,,,,,,,,,,,,,,,,,,,,,,,,,,298.7413532729988,None,space,0.0525955189987144,298.7413532729988,None,298.86424094099857,None,j,1,0.7938124410029559,298.86424094099857,None,299.6753634141005,None,None,299.6753634141005,None,,12,001,2021_Oct_06_1053,searchDisc4,2021.2.3,59.303605704379684,
images/exp2b_trial_5_colour2_distractors1_r.png,r,j,2b,5,2,1,,,,,0,115,115,626,,,,,,,,,,,,,,,,,,,,,,,,,,,,,,,,,,,,,,,,,,,,,,,,,,,,,,,,,,,,,,,,,,,,,,,,,,,,299.6745876949972,None,space,0.04741572499915492,299.6745876949972,None,299.7833707239988,None,j,1,0.5148236870008986,299.7833707239988,None,300.32526924209924,None,None,300.32526924209924,None,,12,001,2021_Oct_06_1053,searchDisc4,2021.2.3,59.303605704379684,
images/exp2c_trial_147_colour1_distractors31_l.png,l,f,2c,147,1,31,,,,,0,116,116,0,,,,,,,,,,,,,,,,,,,,,,,,,,,,,,,,,,,,,,,,,,,,,,,,,,,,,,,,,,,,,,,,,,,,,,,,,,,,300.3251033919987,None,space,0.04500329200163833,300.3251033919987,None,300.43249566899976,None,f,1,0.6417049019983097,300.43249566899976,None,301.09183401309747,None,None,301.09183401309747,None,,12,001,2021_Oct_06_1053,searchDisc4,2021.2.3,59.303605704379684,
images/exp2c_trial_84_colour2_distractors1_l.png,l,f,2c,84,2,1,,,,,0,117,117,897,,,,,,,,,,,,,,,,,,,,,,,,,,,,,,,,,,,,,,,,,,,,,,,,,,,,,,,,,,,,,,,,,,,,,,,,,,,,301.09188744999847,None,space,0.07023330300216912,301.09188744999847,None,301.24344285799816,None,f,1,0.742795952999586,301.24344285799816,None,302.0088913210984,None,None,302.0088913210984,None,,12,001,2021_Oct_06_1053,searchDisc4,2021.2.3,59.303605704379684,
images/exp1a_trial_141_colour3_distractors19_r.png,r,j,1a,141,3,19,,,,,0,118,118,186,,,,,,,,,,,,,,,,,,,,,,,,,,,,,,,,,,,,,,,,,,,,,,,,,,,,,,,,,,,,,,,,,,,,,,,,,,,,302.00801627799956,None,space,0.058155314000032376,302.00801627799956,None,302.1441996209978,None,j,1,0.9620771090012568,302.1441996209978,None,303.12528810910044,None,None,303.12528810910044,None,,12,001,2021_Oct_06_1053,searchDisc4,2021.2.3,59.303605704379684,
images/exp2b_trial_124_colour3_distractors19_l.png,l,f,2b,124,3,19,,,,,0,119,119,745,,,,,,,,,,,,,,,,,,,,,,,,,,,,,,,,,,,,,,,,,,,,,,,,,,,,,,,,,,,,,,,,,,,,,,,,,,,,303.12465884599806,None,space,0.06948487000045134,303.12465884599806,None,303.27760699899954,None,f,1,0.6447737000016787,303.27760699899954,None,303.9420280279992,None,space,303.9420280279992,None,0.06829981200280599,12,001,2021_Oct_06_1053,searchDisc4,2021.2.3,59.303605704379684,
images/exp1a_trial_172_colour3_distractors9_r.png,r,j,1a,172,3,9,,,,,0,120,120,217,,,,,,,,,,,,,,,,,,,,,,,,,,,,,,,,,,,,,,,,,,,,,,,,,,,,,,,,,,,,,,,,,,,,,,,,,,,,304.0274415269996,None,space,2.4870095570004196,304.0274415269996,None,306.5945202639996,None,j,1,0.5519584299981943,306.5945202639996,None,307.17550744209984,None,None,307.17550744209984,None,,12,001,2021_Oct_06_1053,searchDisc4,2021.2.3,59.303605704379684,
images/exp2c_trial_85_colour2_distractors4_l.png,l,f,2c,85,2,4,,,,,0,121,121,898,,,,,,,,,,,,,,,,,,,,,,,,,,,,,,,,,,,,,,,,,,,,,,,,,,,,,,,,,,,,,,,,,,,,,,,,,,,,307.1754151610003,None,space,0.0429926639990299,307.1754151610003,None,307.29418365499805,None,f,1,0.5883438169985311,307.29418365499805,None,307.9088790111,None,None,307.9088790111,None,,12,001,2021_Oct_06_1053,searchDisc4,2021.2.3,59.303605704379684,
images/exp2a_trial_88_colour2_distractors31_l.png,l,f,2a,88,2,31,,,,,0,122,122,517,,,,,,,,,,,,,,,,,,,,,,,,,,,,,,,,,,,,,,,,,,,,,,,,,,,,,,,,,,,,,,,,,,,,,,,,,,,,307.90881265699863,None,space,0.08547626300060074,307.90881265699863,None,308.0775763569982,None,f,1,0.6209909880017221,308.0775763569982,None,308.7256136591004,None,None,308.7256136591004,None,,12,001,2021_Oct_06_1053,searchDisc4,2021.2.3,59.303605704379684,
images/exp1b_trial_151_colour2_distractors19_l.png,l,f,1b,151,2,19,,,,,0,123,123,388,,,,,,,,,,,,,,,,,,,,,,,,,,,,,,,,,,,,,,,,,,,,,,,,,,,,,,,,,,,,,,,,,,,,,,,,,,,,308.72508484900027,None,space,0.10142403899953933,308.72508484900027,None,308.89431516499826,None,f,1,0.9642340030004561,308.89431516499826,None,309.875691468098,None,None,309.875691468098,None,,12,001,2021_Oct_06_1053,searchDisc4,2021.2.3,59.303605704379684,
images/exp2a_trial_191_colour0_distractors0_l.png,l,f,2a,191,0,0,,,,,0,124,124,620,,,,,,,,,,,,,,,,,,,,,,,,,,,,,,,,,,,,,,,,,,,,,,,,,,,,,,,,,,,,,,,,,,,,,,,,,,,,309.8747987280003,None,space,0.08767690699824016,309.8747987280003,None,310.0327065879974,None,f,1,0.4739767929968366,310.0327065879974,None,310.5248030390994,None,None,310.5248030390994,None,,12,001,2021_Oct_06_1053,searchDisc4,2021.2.3,59.303605704379684,
images/exp1b_trial_70_colour2_distractors4_r.png,r,j,1b,70,2,4,,,,,0,125,125,307,,,,,,,,,,,,,,,,,,,,,,,,,,,,,,,,,,,,,,,,,,,,,,,,,,,,,,,,,,,,,,,,,,,,,,,,,,,,310.52486796899757,None,space,0.06965720199877978,310.52486796899757,None,310.664798212998,None,j,1,0.8579433230006543,310.664798212998,None,311.5417915900998,None,None,311.5417915900998,None,,12,001,2021_Oct_06_1053,searchDisc4,2021.2.3,59.303605704379684,
images/exp2c_trial_8_colour2_distractors19_r.png,r,j,2c,8,2,19,,,,,0,126,126,821,,,,,,,,,,,,,,,,,,,,,,,,,,,,,,,,,,,,,,,,,,,,,,,,,,,,,,,,,,,,,,,,,,,,,,,,,,,,311.54226930299774,None,space,0.3403510489988548,311.54226930299774,None,311.9612574769999,None,j,1,0.8334927770010836,311.9612574769999,None,312.8256065140977,None,None,312.8256065140977,None,,12,001,2021_Oct_06_1053,searchDisc4,2021.2.3,59.303605704379684,
images/exp1a_trial_142_colour3_distractors31_r.png,r,j,1a,142,3,31,,,,,0,127,127,187,,,,,,,,,,,,,,,,,,,,,,,,,,,,,,,,,,,,,,,,,,,,,,,,,,,,,,,,,,,,,,,,,,,,,,,,,,,,312.8254264749994,None,space,0.03318381200006115,312.8254264749994,None,312.92802055399807,None,j,1,0.6747553490022256,312.92802055399807,None,313.6252268330991,None,None,313.6252268330991,None,,12,001,2021_Oct_06_1053,searchDisc4,2021.2.3,59.303605704379684,
images/exp1a_trial_106_colour3_distractors1_r.png,r,j,1a,106,3,1,,,,,0,128,128,151,,,,,,,,,,,,,,,,,,,,,,,,,,,,,,,,,,,,,,,,,,,,,,,,,,,,,,,,,,,,,,,,,,,,,,,,,,,,313.6252935079974,None,space,0.06544178299736814,313.6252935079974,None,313.7611303199992,None,j,1,1.641740937000577,313.7611303199992,None,315.42561065009977,None,None,315.42561065009977,None,,12,001,2021_Oct_06_1053,searchDisc4,2021.2.3,59.303605704379684,
images/exp1b_trial_15_colour1_distractors1_l.png,l,f,1b,15,1,1,,,,,0,129,129,252,,,,,,,,,,,,,,,,,,,,,,,,,,,,,,,,,,,,,,,,,,,,,,,,,,,,,,,,,,,,,,,,,,,,,,,,,,,,315.42499829900044,None,space,0.057769791997998254,315.42499829900044,None,315.5614256089975,None,f,1,0.6494876379983907,315.5614256089975,None,316.242272199097,None,None,316.242272199097,None,,12,001,2021_Oct_06_1053,searchDisc4,2021.2.3,59.303605704379684,
images/exp2a_trial_58_colour3_distractors4_l.png,l,f,2a,58,3,4,,,,,0,130,130,487,,,,,,,,,,,,,,,,,,,,,,,,,,,,,,,,,,,,,,,,,,,,,,,,,,,,,,,,,,,,,,,,,,,,,,,,,,,,316.2423718329992,None,space,0.048487056003068574,316.2423718329992,None,316.3611818339996,None,f,1,0.5857433110031707,316.3611818339996,None,316.97566062609803,None,None,316.97566062609803,None,,12,001,2021_Oct_06_1053,searchDisc4,2021.2.3,59.303605704379684,
images/exp2a_trial_184_colour2_distractors31_l.png,l,f,2a,184,2,31,,,,,0,131,131,613,,,,,,,,,,,,,,,,,,,,,,,,,,,,,,,,,,,,,,,,,,,,,,,,,,,,,,,,,,,,,,,,,,,,,,,,,,,,316.9748839629974,None,space,0.09199419599826797,316.9748839629974,None,317.14375201799703,None,f,1,0.6591161020005529,317.14375201799703,None,317.82538785609904,None,None,317.82538785609904,None,,12,001,2021_Oct_06_1053,searchDisc4,2021.2.3,59.303605704379684,
images/exp1a_trial_190_colour0_distractors0_r.png,r,j,1a,190,0,0,,,,,0,132,132,235,,,,,,,,,,,,,,,,,,,,,,,,,,,,,,,,,,,,,,,,,,,,,,,,,,,,,,,,,,,,,,,,,,,,,,,,,,,,317.82489642299697,None,space,0.07409238000036567,317.82489642299697,None,317.9670443599971,None,j,1,0.5399442699999781,317.9670443599971,None,318.52487932009717,None,None,318.52487932009717,None,,12,001,2021_Oct_06_1053,searchDisc4,2021.2.3,59.303605704379684,
images/exp2c_trial_94_colour0_distractors0_r.png,r,j,2c,94,0,0,,,,,0,133,133,907,,,,,,,,,,,,,,,,,,,,,,,,,,,,,,,,,,,,,,,,,,,,,,,,,,,,,,,,,,,,,,,,,,,,,,,,,,,,318.52591890199983,None,space,0.052907753000909,318.52591890199983,None,318.64981743599856,None,j,1,0.4652159359975485,318.64981743599856,None,319.14231382509934,None,None,319.14231382509934,None,,12,001,2021_Oct_06_1053,searchDisc4,2021.2.3,59.303605704379684,
images/exp2a_trial_168_colour2_distractors19_r.png,r,j,2a,168,2,19,,,,,0,134,134,597,,,,,,,,,,,,,,,,,,,,,,,,,,,,,,,,,,,,,,,,,,,,,,,,,,,,,,,,,,,,,,,,,,,,,,,,,,,,319.1417138910001,None,space,0.029269458002090687,319.1417138910001,None,319.24425237299874,None,j,1,0.6147330519997922,319.24425237299874,None,319.87577402609713,None,None,319.87577402609713,None,,12,001,2021_Oct_06_1053,searchDisc4,2021.2.3,59.303605704379684,
images/exp2a_trial_124_colour3_distractors19_l.png,l,f,2a,124,3,19,,,,,0,135,135,553,,,,,,,,,,,,,,,,,,,,,,,,,,,,,,,,,,,,,,,,,,,,,,,,,,,,,,,,,,,,,,,,,,,,,,,,,,,,319.87500328999886,None,space,0.07203508699967642,319.87500328999886,None,320.02739494399793,None,j,0,0.4717291579981975,320.02739494399793,None,320.5253315620994,None,None,320.5253315620994,None,,12,001,2021_Oct_06_1053,searchDisc4,2021.2.3,59.303605704379684,
images/exp1a_trial_125_colour3_distractors31_l.png,l,f,1a,125,3,31,,,,,0,136,136,170,,,,,,,,,,,,,,,,,,,,,,,,,,,,,,,,,,,,,,,,,,,,,,,,,,,,,,,,,,,,,,,,,,,,,,,,,,,,320.52606677400036,None,space,0.11691163499926915,320.52606677400036,None,320.7113851219983,None,f,1,0.6277548680009204,320.7113851219983,None,321.3583831390988,None,None,321.3583831390988,None,,12,001,2021_Oct_06_1053,searchDisc4,2021.2.3,59.303605704379684,
images/exp1b_trial_2_colour1_distractors9_r.png,r,j,1b,2,1,9,,,,,0,137,137,239,,,,,,,,,,,,,,,,,,,,,,,,,,,,,,,,,,,,,,,,,,,,,,,,,,,,,,,,,,,,,,,,,,,,,,,,,,,,321.35925717499777,None,space,0.04382452099889633,321.35925717499777,None,321.47797103999983,None,j,1,0.9811399370009894,321.47797103999983,None,322.47589562809844,None,None,322.47589562809844,None,,12,001,2021_Oct_06_1053,searchDisc4,2021.2.3,59.303605704379684,
images/exp2a_trial_128_colour1_distractors1_r.png,r,j,2a,128,1,1,,,,,0,138,138,557,,,,,,,,,,,,,,,,,,,,,,,,,,,,,,,,,,,,,,,,,,,,,,,,,,,,,,,,,,,,,,,,,,,,,,,,,,,,322.47522507199756,None,space,0.03991162700185669,322.47522507199756,None,322.583802500998,None,j,1,0.7554256160001387,322.583802500998,None,323.3583096930979,None,None,323.3583096930979,None,,12,001,2021_Oct_06_1053,searchDisc4,2021.2.3,59.303605704379684,
images/exp1b_trial_91_colour3_distractors9_l.png,l,f,1b,91,3,9,,,,,0,139,139,328,,,,,,,,,,,,,,,,,,,,,,,,,,,,,,,,,,,,,,,,,,,,,,,,,,,,,,,,,,,,,,,,,,,,,,,,,,,,323.35891020599956,None,space,0.7643190909984696,323.35891020599956,None,324.18256458500036,None,f,1,0.6527308119984809,324.18256458500036,None,324.85909985709986,None,None,324.85909985709986,None,,12,001,2021_Oct_06_1053,searchDisc4,2021.2.3,59.303605704379684,
images/exp1b_trial_56_colour2_distractors31_l.png,l,f,1b,56,2,31,,,,,0,140,140,293,,,,,,,,,,,,,,,,,,,,,,,,,,,,,,,,,,,,,,,,,,,,,,,,,,,,,,,,,,,,,,,,,,,,,,,,,,,,324.8584935309991,None,space,0.08077980599773582,324.8584935309991,None,325.0116009279991,None,f,1,1.1117391109983146,325.0116009279991,None,326.1429659710975,None,None,326.1429659710975,None,,12,001,2021_Oct_06_1053,searchDisc4,2021.2.3,59.303605704379684,
images/exp1b_trial_96_colour1_distractors1_r.png,r,j,1b,96,1,1,,,,,0,141,141,333,,,,,,,,,,,,,,,,,,,,,,,,,,,,,,,,,,,,,,,,,,,,,,,,,,,,,,,,,,,,,,,,,,,,,,,,,,,,326.14208728499943,None,space,0.2292027549992781,326.14208728499943,None,326.44491824099896,None,j,1,1.1505225629989582,326.44491824099896,None,327.6260405170997,None,None,327.6260405170997,None,,12,001,2021_Oct_06_1053,searchDisc4,2021.2.3,59.303605704379684,
images/exp1b_trial_77_colour3_distractors19_r.png,r,j,1b,77,3,19,,,,,0,142,142,314,,,,,,,,,,,,,,,,,,,,,,,,,,,,,,,,,,,,,,,,,,,,,,,,,,,,,,,,,,,,,,,,,,,,,,,,,,,,327.62520400299763,None,space,0.05816296100238105,327.62520400299763,None,327.7616804729987,None,j,1,1.0657962059995043,327.7616804729987,None,328.85948108109915,None,None,328.85948108109915,None,,12,001,2021_Oct_06_1053,searchDisc4,2021.2.3,59.303605704379684,
images/exp1b_trial_137_colour2_distractors31_r.png,r,j,1b,137,2,31,,,,,0,143,143,374,,,,,,,,,,,,,,,,,,,,,,,,,,,,,,,,,,,,,,,,,,,,,,,,,,,,,,,,,,,,,,,,,,,,,,,,,,,,328.8587246729985,None,space,0.04075963600189425,328.8587246729985,None,328.9784793209983,None,j,1,0.689017980999779,328.9784793209983,None,329.692781735097,None,None,329.692781735097,None,,12,001,2021_Oct_06_1053,searchDisc4,2021.2.3,59.303605704379684,
images/exp2c_trial_178_colour1_distractors19_l.png,l,f,2c,178,1,19,,,,,0,144,144,31,,,,,,,,,,,,,,,,,,,,,,,,,,,,,,,,,,,,,,,,,,,,,,,,,,,,,,,,,,,,,,,,,,,,,,,,,,,,329.69216779899944,None,space,0.08721575899835443,329.69216779899944,None,329.8614716159973,None,f,1,0.774060460000328,329.8614716159973,None,330.6594133280978,None,None,330.6594133280978,None,,12,001,2021_Oct_06_1053,searchDisc4,2021.2.3,59.303605704379684,
images/exp2b_trial_105_colour2_distractors31_r.png,r,j,2b,105,2,31,,,,,0,145,145,726,,,,,,,,,,,,,,,,,,,,,,,,,,,,,,,,,,,,,,,,,,,,,,,,,,,,,,,,,,,,,,,,,,,,,,,,,,,,330.6596247669986,None,space,0.11186334000012721,330.6596247669986,None,330.8335032759969,None,j,1,0.6980734819990175,330.8335032759969,None,331.55967309509833,None,None,331.55967309509833,None,,12,001,2021_Oct_06_1053,searchDisc4,2021.2.3,59.303605704379684,
images/exp2c_trial_51_colour1_distractors31_l.png,l,f,2c,51,1,31,,,,,0,146,146,864,,,,,,,,,,,,,,,,,,,,,,,,,,,,,,,,,,,,,,,,,,,,,,,,,,,,,,,,,,,,,,,,,,,,,,,,,,,,331.5590070750004,None,space,0.12453354600074817,331.5590070750004,None,331.7615517129998,None,f,1,0.6660033369989833,331.7615517129998,None,332.45957557609836,None,None,332.45957557609836,None,,12,001,2021_Oct_06_1053,searchDisc4,2021.2.3,59.303605704379684,
images/exp2b_trial_115_colour1_distractors31_l.png,l,f,2b,115,1,31,,,,,0,147,147,736,,,,,,,,,,,,,,,,,,,,,,,,,,,,,,,,,,,,,,,,,,,,,,,,,,,,,,,,,,,,,,,,,,,,,,,,,,,,332.45913089999885,None,space,0.08043665600052918,332.45913089999885,None,332.61165406799773,None,f,1,0.7600040729994362,332.61165406799773,None,333.3928859120988,None,None,333.3928859120988,None,,12,001,2021_Oct_06_1053,searchDisc4,2021.2.3,59.303605704379684,
images/exp2b_trial_182_colour2_distractors9_l.png,l,f,2b,182,2,9,,,,,0,148,148,803,,,,,,,,,,,,,,,,,,,,,,,,,,,,,,,,,,,,,,,,,,,,,,,,,,,,,,,,,,,,,,,,,,,,,,,,,,,,333.3929427559997,None,space,0.0986938440000813,333.3929427559997,None,333.5506014849998,None,f,1,0.5011169589997735,333.5506014849998,None,334.0761900171001,None,None,334.0761900171001,None,,12,001,2021_Oct_06_1053,searchDisc4,2021.2.3,59.303605704379684,
images/exp1a_trial_188_colour3_distractors19_l.png,l,f,1a,188,3,19,,,,,0,149,149,233,,,,,,,,,,,,,,,,,,,,,,,,,,,,,,,,,,,,,,,,,,,,,,,,,,,,,,,,,,,,,,,,,,,,,,,,,,,,334.07550473899755,None,space,0.08013304300038726,334.07550473899755,None,334.22850133799875,None,f,1,0.4471355259993288,334.22850133799875,None,334.692938386097,None,None,334.692938386097,None,,12,001,2021_Oct_06_1053,searchDisc4,2021.2.3,59.303605704379684,
images/exp2b_trial_143_colour1_distractors1_l.png,l,f,2b,143,1,1,,,,,0,150,150,764,,,,,,,,,,,,,,,,,,,,,,,,,,,,,,,,,,,,,,,,,,,,,,,,,,,,,,,,,,,,,,,,,,,,,,,,,,,,334.6929696769985,None,space,0.12672619600198232,334.6929696769985,None,334.895334154,None,f,1,0.4524447969997709,334.895334154,None,335.3762141710995,None,None,335.3762141710995,None,,12,001,2021_Oct_06_1053,searchDisc4,2021.2.3,59.303605704379684,
images/exp1a_trial_88_colour2_distractors31_l.png,l,f,1a,88,2,31,,,,,0,151,151,133,,,,,,,,,,,,,,,,,,,,,,,,,,,,,,,,,,,,,,,,,,,,,,,,,,,,,,,,,,,,,,,,,,,,,,,,,,,,335.37618797100004,None,space,0.0755154769976798,335.37618797100004,None,335.52855544299746,None,f,1,0.8032726650017139,335.52855544299746,None,336.3596472800982,None,None,336.3596472800982,None,,12,001,2021_Oct_06_1053,searchDisc4,2021.2.3,59.303605704379684,
images/exp2b_trial_134_colour2_distractors4_r.png,r,j,2b,134,2,4,,,,,0,152,152,755,,,,,,,,,,,,,,,,,,,,,,,,,,,,,,,,,,,,,,,,,,,,,,,,,,,,,,,,,,,,,,,,,,,,,,,,,,,,336.35966337399805,None,space,0.07611571600136813,336.35966337399805,None,336.51203157899727,None,f,0,0.5798428249981953,336.51203157899727,None,337.1095053320987,None,None,337.1095053320987,None,,12,001,2021_Oct_06_1053,searchDisc4,2021.2.3,59.303605704379684,
images/exp2a_trial_112_colour1_distractors4_l.png,l,f,2a,112,1,4,,,,,0,153,153,541,,,,,,,,,,,,,,,,,,,,,,,,,,,,,,,,,,,,,,,,,,,,,,,,,,,,,,,,,,,,,,,,,,,,,,,,,,,,337.10966773799737,None,space,0.27009796900165384,337.10966773799737,None,337.45074004900016,None,f,1,0.8651721369969891,337.45074004900016,None,338.3429758041002,None,None,338.3429758041002,None,,12,001,2021_Oct_06_1053,searchDisc4,2021.2.3,59.303605704379684,
images/exp2b_trial_68_colour1_distractors31_r.png,r,j,2b,68,1,31,,,,,0,154,154,689,,,,,,,,,,,,,,,,,,,,,,,,,,,,,,,,,,,,,,,,,,,,,,,,,,,,,,,,,,,,,,,,,,,,,,,,,,,,338.34220695899785,None,space,0.04564420599854202,338.34220695899785,None,338.4614468,None,j,1,0.6945086650011945,338.4614468,None,339.17638378009906,None,None,339.17638378009906,None,,12,001,2021_Oct_06_1053,searchDisc4,2021.2.3,59.303605704379684,
images/exp2c_trial_72_colour2_distractors19_r.png,r,j,2c,72,2,19,,,,,0,155,155,885,,,,,,,,,,,,,,,,,,,,,,,,,,,,,,,,,,,,,,,,,,,,,,,,,,,,,,,,,,,,,,,,,,,,,,,,,,,,339.1756982079969,None,space,0.028218316001584753,339.1756982079969,None,339.2783671010002,None,j,1,0.5336096760001965,339.2783671010002,None,339.8430792290983,None,None,339.8430792290983,None,,12,001,2021_Oct_06_1053,searchDisc4,2021.2.3,59.303605704379684,
images/exp1a_trial_181_colour2_distractors4_l.png,l,f,1a,181,2,4,,,,,0,156,156,226,,,,,,,,,,,,,,,,,,,,,,,,,,,,,,,,,,,,,,,,,,,,,,,,,,,,,,,,,,,,,,,,,,,,,,,,,,,,339.84300709499803,None,space,0.04091863400026341,339.84300709499803,None,339.96190825699887,None,f,1,0.6181313010019949,339.96190825699887,None,340.6097981150979,None,None,340.6097981150979,None,,12,001,2021_Oct_06_1053,searchDisc4,2021.2.3,59.303605704379684,
images/exp2a_trial_159_colour0_distractors0_l.png,l,f,2a,159,0,0,,,,,0,157,157,588,,,,,,,,,,,,,,,,,,,,,,,,,,,,,,,,,,,,,,,,,,,,,,,,,,,,,,,,,,,,,,,,,,,,,,,,,,,,340.609815132997,None,space,0.09015328399982536,340.609815132997,None,340.7670556589983,None,f,1,0.5490048419997038,340.7670556589983,None,341.3431864631002,None,None,341.3431864631002,None,,12,001,2021_Oct_06_1053,searchDisc4,2021.2.3,59.303605704379684,
images/exp1a_trial_9_colour2_distractors31_r.png,r,j,1a,9,2,31,,,,,0,158,158,54,,,,,,,,,,,,,,,,,,,,,,,,,,,,,,,,,,,,,,,,,,,,,,,,,,,,,,,,,,,,,,,,,,,,,,,,,,,,341.34307339299994,None,space,0.0849480049982958,341.34307339299994,None,341.4953490259977,None,j,1,0.748641881000367,341.4953490259977,None,342.2764150210987,None,None,342.2764150210987,None,,12,001,2021_Oct_06_1053,searchDisc4,2021.2.3,59.303605704379684,
images/exp1b_trial_71_colour2_distractors9_r.png,r,j,1b,71,2,9,,,,,0,159,159,308,,,,,,,,,,,,,,,,,,,,,,,,,,,,,,,,,,,,,,,,,,,,,,,,,,,,,,,,,,,,,,,,,,,,,,,,,,,,342.27574005699717,None,space,0.06429929599835305,342.27574005699717,None,342.3996230149969,None,j,1,0.8764513570022245,342.3996230149969,None,343.2930715450984,None,None,343.2930715450984,None,,12,001,2021_Oct_06_1053,searchDisc4,2021.2.3,59.303605704379684,
images/exp2a_trial_67_colour1_distractors19_r.png,r,j,2a,67,1,19,,,,,0,160,160,496,,,,,,,,,,,,,,,,,,,,,,,,,,,,,,,,,,,,,,,,,,,,,,,,,,,,,,,,,,,,,,,,,,,,,,,,,,,,343.2931244749998,None,space,0.08688984499895014,343.2931244749998,None,343.46207625199895,None,j,1,0.597995528998581,343.46207625199895,None,344.0767164530971,None,None,344.0767164530971,None,,12,001,2021_Oct_06_1053,searchDisc4,2021.2.3,59.303605704379684,
images/exp2c_trial_130_colour1_distractors9_r.png,r,j,2c,130,1,9,,,,,0,161,161,943,,,,,,,,,,,,,,,,,,,,,,,,,,,,,,,,,,,,,,,,,,,,,,,,,,,,,,,,,,,,,,,,,,,,,,,,,,,,344.07592244199986,None,space,0.04021991999979946,344.07592244199986,None,344.18249247600033,None,j,1,0.5976987299982284,344.18249247600033,None,344.80977566509864,None,None,344.80977566509864,None,,12,001,2021_Oct_06_1053,searchDisc4,2021.2.3,59.303605704379684,
images/exp2b_trial_157_colour3_distractors31_l.png,l,f,2b,157,3,31,,,,,0,162,162,778,,,,,,,,,,,,,,,,,,,,,,,,,,,,,,,,,,,,,,,,,,,,,,,,,,,,,,,,,,,,,,,,,,,,,,,,,,,,344.8091080869999,None,space,0.043053982000856195,344.8091080869999,None,344.9286263899994,None,j,0,0.6916145530012727,344.9286263899994,None,345.6428476200981,None,None,345.6428476200981,None,,12,001,2021_Oct_06_1053,searchDisc4,2021.2.3,59.303605704379684,
images/exp2b_trial_83_colour1_distractors31_l.png,l,f,2b,83,1,31,,,,,0,163,163,704,,,,,,,,,,,,,,,,,,,,,,,,,,,,,,,,,,,,,,,,,,,,,,,,,,,,,,,,,,,,,,,,,,,,,,,,,,,,345.6431894359994,None,space,0.6170496740014642,345.6431894359994,None,346.3288099909987,None,f,1,0.6675103669986129,346.3288099909987,None,347.0265121150969,None,None,347.0265121150969,None,,12,001,2021_Oct_06_1053,searchDisc4,2021.2.3,59.303605704379684,
images/exp1b_trial_39_colour2_distractors9_r.png,r,j,1b,39,2,9,,,,,0,164,164,276,,,,,,,,,,,,,,,,,,,,,,,,,,,,,,,,,,,,,,,,,,,,,,,,,,,,,,,,,,,,,,,,,,,,,,,,,,,,347.02649606299747,None,space,0.10577986399948713,347.02649606299747,None,347.2119752079998,None,j,1,0.8963920060014061,347.2119752079998,None,348.12620059209985,None,None,348.12620059209985,None,,12,001,2021_Oct_06_1053,searchDisc4,2021.2.3,59.303605704379684,
images/exp2c_trial_119_colour2_distractors19_l.png,l,f,2c,119,2,19,,,,,0,165,165,932,,,,,,,,,,,,,,,,,,,,,,,,,,,,,,,,,,,,,,,,,,,,,,,,,,,,,,,,,,,,,,,,,,,,,,,,,,,,348.12647908299914,None,space,0.10985437899944372,348.12647908299914,None,348.3124347399971,None,f,1,0.7399706929973036,348.3124347399971,None,349.07630955409877,None,None,349.07630955409877,None,,12,001,2021_Oct_06_1053,searchDisc4,2021.2.3,59.303605704379684,
images/exp2a_trial_16_colour1_distractors4_l.png,l,f,2a,16,1,4,,,,,0,166,166,445,,,,,,,,,,,,,,,,,,,,,,,,,,,,,,,,,,,,,,,,,,,,,,,,,,,,,,,,,,,,,,,,,,,,,,,,,,,,349.076830910999,None,space,0.07151377999980468,349.076830910999,None,349.22835730899897,None,f,1,0.6319906080025248,349.22835730899897,None,349.89328448409833,None,None,349.89328448409833,None,,12,001,2021_Oct_06_1053,searchDisc4,2021.2.3,59.303605704379684,
images/exp2c_trial_134_colour2_distractors4_r.png,r,j,2c,134,2,4,,,,,0,167,167,947,,,,,,,,,,,,,,,,,,,,,,,,,,,,,,,,,,,,,,,,,,,,,,,,,,,,,,,,,,,,,,,,,,,,,,,,,,,,349.89303895699777,None,space,0.09536272599871154,349.89303895699777,None,350.0616332699974,None,j,1,0.5908428460024879,350.0616332699974,None,350.67607548109845,None,None,350.67607548109845,None,,12,001,2021_Oct_06_1053,searchDisc4,2021.2.3,59.303605704379684,
images/exp1a_trial_158_colour0_distractors0_r.png,r,j,1a,158,0,0,,,,,0,168,168,203,,,,,,,,,,,,,,,,,,,,,,,,,,,,,,,,,,,,,,,,,,,,,,,,,,,,,,,,,,,,,,,,,,,,,,,,,,,,350.6768864909973,None,space,0.06353822399978526,350.6768864909973,None,350.7986311299974,None,j,1,0.461774063998746,350.7986311299974,None,351.2934503280976,None,None,351.2934503280976,None,,12,001,2021_Oct_06_1053,searchDisc4,2021.2.3,59.303605704379684,
images/exp2c_trial_188_colour3_distractors19_l.png,l,f,2c,188,3,19,,,,,0,169,169,41,,,,,,,,,,,,,,,,,,,,,,,,,,,,,,,,,,,,,,,,,,,,,,,,,,,,,,,,,,,,,,,,,,,,,,,,,,,,351.2933262259976,None,space,0.07920454100167262,351.2933262259976,None,351.4456295130003,None,j,0,0.7269939449979574,351.4456295130003,None,352.1926726030997,None,None,352.1926726030997,None,,12,001,2021_Oct_06_1053,searchDisc4,2021.2.3,59.303605704379684,
images/exp2b_trial_19_colour1_distractors31_l.png,l,f,2b,19,1,31,,,,,0,170,170,640,,,,,,,,,,,,,,,,,,,,,,,,,,,,,,,,,,,,,,,,,,,,,,,,,,,,,,,,,,,,,,,,,,,,,,,,,,,,352.19293289899724,None,space,0.07557949300098699,352.19293289899724,None,352.34566487999837,None,f,1,0.7629240599999321,352.34566487999837,None,353.12645039109884,None,None,353.12645039109884,None,,12,001,2021_Oct_06_1053,searchDisc4,2021.2.3,59.303605704379684,
images/exp2c_trial_80_colour1_distractors4_l.png,l,f,2c,80,1,4,,,,,0,171,171,893,,,,,,,,,,,,,,,,,,,,,,,,,,,,,,,,,,,,,,,,,,,,,,,,,,,,,,,,,,,,,,,,,,,,,,,,,,,,353.1260761119993,None,space,0.08638221300134319,353.1260761119993,None,353.2834269089981,None,f,1,0.6491987980007252,353.2834269089981,None,353.9600768110995,None,None,353.9600768110995,None,,12,001,2021_Oct_06_1053,searchDisc4,2021.2.3,59.303605704379684,
images/exp2a_trial_120_colour2_distractors31_l.png,l,f,2a,120,2,31,,,,,0,172,172,549,,,,,,,,,,,,,,,,,,,,,,,,,,,,,,,,,,,,,,,,,,,,,,,,,,,,,,,,,,,,,,,,,,,,,,,,,,,,353.96018394499697,None,space,0.10840327799814986,353.96018394499697,None,354.14570753599764,None,f,1,0.538963867998973,354.14570753599764,None,354.71031869709805,None,None,354.71031869709805,None,,12,001,2021_Oct_06_1053,searchDisc4,2021.2.3,59.303605704379684,
images/exp2a_trial_157_colour3_distractors31_l.png,l,f,2a,157,3,31,,,,,0,173,173,586,,,,,,,,,,,,,,,,,,,,,,,,,,,,,,,,,,,,,,,,,,,,,,,,,,,,,,,,,,,,,,,,,,,,,,,,,,,,354.71017347499946,None,space,0.07041019699681783,354.71017347499946,None,354.86233715999697,None,f,1,0.5023753420027788,354.86233715999697,None,355.39347667909715,None,None,355.39347667909715,None,,12,001,2021_Oct_06_1053,searchDisc4,2021.2.3,59.303605704379684,
images/exp1a_trial_123_colour3_distractors9_l.png,l,f,1a,123,3,9,,,,,0,174,174,168,,,,,,,,,,,,,,,,,,,,,,,,,,,,,,,,,,,,,,,,,,,,,,,,,,,,,,,,,,,,,,,,,,,,,,,,,,,,355.39268915499997,None,space,0.0919750329994713,355.39268915499997,None,355.56216931999734,None,f,1,0.4265545160014881,355.56216931999734,None,356.01009977309695,None,None,356.01009977309695,None,,12,001,2021_Oct_06_1053,searchDisc4,2021.2.3,59.303605704379684,
images/exp2b_trial_116_colour2_distractors1_l.png,l,f,2b,116,2,1,,,,,0,175,175,737,,,,,,,,,,,,,,,,,,,,,,,,,,,,,,,,,,,,,,,,,,,,,,,,,,,,,,,,,,,,,,,,,,,,,,,,,,,,356.0105001359989,None,space,0.09010933099852991,356.0105001359989,None,356.1668492239987,None,f,1,0.389889731999574,356.1668492239987,None,356.5770357540987,None,None,356.5770357540987,None,,12,001,2021_Oct_06_1053,searchDisc4,2021.2.3,59.303605704379684,
images/exp1b_trial_139_colour3_distractors4_r.png,r,j,1b,139,3,4,,,,,0,176,176,376,,,,,,,,,,,,,,,,,,,,,,,,,,,,,,,,,,,,,,,,,,,,,,,,,,,,,,,,,,,,,,,,,,,,,,,,,,,,356.577003047998,None,space,0.1156149810012721,356.577003047998,None,356.76241302499693,None,f,0,0.6743504639998719,356.76241302499693,None,357.4602825460988,None,None,357.4602825460988,None,,12,001,2021_Oct_06_1053,searchDisc4,2021.2.3,59.303605704379684,
images/exp2c_trial_64_colour1_distractors1_r.png,r,j,2c,64,1,1,,,,,0,177,177,877,,,,,,,,,,,,,,,,,,,,,,,,,,,,,,,,,,,,,,,,,,,,,,,,,,,,,,,,,,,,,,,,,,,,,,,,,,,,357.4601484449995,None,space,0.6166013619986188,357.4601484449995,None,358.14579252699696,None,j,1,0.5710470169979089,358.14579252699696,None,358.7435428700974,None,None,358.7435428700974,None,,12,001,2021_Oct_06_1053,searchDisc4,2021.2.3,59.303605704379684,
images/exp1a_trial_91_colour3_distractors9_l.png,l,f,1a,91,3,9,,,,,0,178,178,136,,,,,,,,,,,,,,,,,,,,,,,,,,,,,,,,,,,,,,,,,,,,,,,,,,,,,,,,,,,,,,,,,,,,,,,,,,,,358.74384638099946,None,space,0.060917820999748074,358.74384638099946,None,358.8791584110004,None,f,1,0.7176323919993592,358.8791584110004,None,359.62693151110034,None,None,359.62693151110034,None,,12,001,2021_Oct_06_1053,searchDisc4,2021.2.3,59.303605704379684,
images/exp1a_trial_69_colour2_distractors1_r.png,r,j,1a,69,2,1,,,,,0,179,179,114,,,,,,,,,,,,,,,,,,,,,,,,,,,,,,,,,,,,,,,,,,,,,,,,,,,,,,,,,,,,,,,,,,,,,,,,,,,,359.62689129799764,None,space,0.05791899299947545,359.62689129799764,None,359.7512577569978,None,j,1,0.6456411540020781,359.7512577569978,None,360.42695868010014,None,None,360.42695868010014,None,,12,001,2021_Oct_06_1053,searchDisc4,2021.2.3,59.303605704379684,
images/exp2c_trial_97_colour1_distractors4_r.png,r,j,2c,97,1,4,,,,,0,180,180,910,,,,,,,,,,,,,,,,,,,,,,,,,,,,,,,,,,,,,,,,,,,,,,,,,,,,,,,,,,,,,,,,,,,,,,,,,,,,360.42624446399714,None,space,0.07454472599783912,360.42624446399714,None,360.5663763909979,None,j,1,0.5505805110005895,360.5663763909979,None,361.1439572791005,None,None,361.1439572791005,None,,12,001,2021_Oct_06_1053,searchDisc4,2021.2.3,59.303605704379684,
images/exp2c_trial_183_colour2_distractors19_l.png,l,f,2c,183,2,19,,,,,0,181,181,36,,,,,,,,,,,,,,,,,,,,,,,,,,,,,,,,,,,,,,,,,,,,,,,,,,,,,,,,,,,,,,,,,,,,,,,,,,,,361.1434882829999,None,space,0.06935499900282593,361.1434882829999,None,361.2958369279986,None,f,1,0.8611780190003628,361.2958369279986,None,362.1762426380974,None,None,362.1762426380974,None,,12,001,2021_Oct_06_1053,searchDisc4,2021.2.3,59.303605704379684,
images/exp2a_trial_34_colour1_distractors9_r.png,r,j,2a,34,1,9,,,,,0,182,182,463,,,,,,,,,,,,,,,,,,,,,,,,,,,,,,,,,,,,,,,,,,,,,,,,,,,,,,,,,,,,,,,,,,,,,,,,,,,,362.17702066999846,None,space,0.08392471399929491,362.17702066999846,None,362.3292873089995,None,j,1,0.7717497699995874,362.3292873089995,None,363.12684172509944,None,None,363.12684172509944,None,,12,001,2021_Oct_06_1053,searchDisc4,2021.2.3,59.303605704379684,
images/exp1a_trial_161_colour1_distractors4_r.png,r,j,1a,161,1,4,,,,,0,183,183,206,,,,,,,,,,,,,,,,,,,,,,,,,,,,,,,,,,,,,,,,,,,,,,,,,,,,,,,,,,,,,,,,,,,,,,,,,,,,363.1263877559977,None,space,0.046656110000185436,363.1263877559977,None,363.24588592500004,None,j,1,0.5431718250001722,363.24588592500004,None,363.8104348700999,None,None,363.8104348700999,None,,12,001,2021_Oct_06_1053,searchDisc4,2021.2.3,59.303605704379684,
images/exp1a_trial_96_colour1_distractors1_r.png,r,j,1a,96,1,1,,,,,0,184,184,141,,,,,,,,,,,,,,,,,,,,,,,,,,,,,,,,,,,,,,,,,,,,,,,,,,,,,,,,,,,,,,,,,,,,,,,,,,,,363.8104081780002,None,space,0.0665906249996624,363.8104081780002,None,363.9348022619997,None,j,1,0.5902119650017994,363.9348022619997,None,364.5440106890983,None,None,364.5440106890983,None,,12,001,2021_Oct_06_1053,searchDisc4,2021.2.3,59.303605704379684,
images/exp1b_trial_52_colour2_distractors1_l.png,l,f,1b,52,2,1,,,,,0,185,185,289,,,,,,,,,,,,,,,,,,,,,,,,,,,,,,,,,,,,,,,,,,,,,,,,,,,,,,,,,,,,,,,,,,,,,,,,,,,,364.5440623769973,None,space,0.044999488000030397,364.5440623769973,None,364.65001585400023,None,f,1,0.5871215669976664,364.65001585400023,None,365.26030167409954,None,None,365.26030167409954,None,,12,001,2021_Oct_06_1053,searchDisc4,2021.2.3,59.303605704379684,
images/exp2c_trial_127_colour0_distractors0_l.png,l,f,2c,127,0,0,,,,,0,186,186,940,,,,,,,,,,,,,,,,,,,,,,,,,,,,,,,,,,,,,,,,,,,,,,,,,,,,,,,,,,,,,,,,,,,,,,,,,,,,365.26048082299894,None,space,0.08861500700004399,365.26048082299894,None,365.41813537099733,None,f,1,0.7790558109991252,365.41813537099733,None,366.2272199520976,None,None,366.2272199520976,None,,12,001,2021_Oct_06_1053,searchDisc4,2021.2.3,59.303605704379684,
images/exp2c_trial_113_colour1_distractors9_l.png,l,f,2c,113,1,9,,,,,0,187,187,926,,,,,,,,,,,,,,,,,,,,,,,,,,,,,,,,,,,,,,,,,,,,,,,,,,,,,,,,,,,,,,,,,,,,,,,,,,,,366.2271273439983,None,space,0.18595542299954104,366.2271273439983,None,366.48443022100037,None,j,0,0.7448231769994891,366.48443022100037,None,367.26058749209733,None,None,367.26058749209733,None,,12,001,2021_Oct_06_1053,searchDisc4,2021.2.3,59.303605704379684,
images/exp1a_trial_126_colour0_distractors0_r.png,r,j,1a,126,0,0,,,,,0,188,188,171,,,,,,,,,,,,,,,,,,,,,,,,,,,,,,,,,,,,,,,,,,,,,,,,,,,,,,,,,,,,,,,,,,,,,,,,,,,,367.2603618409994,None,space,0.32085314199866843,367.2603618409994,None,367.65127960099926,None,j,1,0.6980156650024583,367.65127960099926,None,368.3771279850971,None,None,368.3771279850971,None,,12,001,2021_Oct_06_1053,searchDisc4,2021.2.3,59.303605704379684,
images/exp1a_trial_76_colour3_distractors9_r.png,r,j,1a,76,3,9,,,,,0,189,189,121,,,,,,,,,,,,,,,,,,,,,,,,,,,,,,,,,,,,,,,,,,,,,,,,,,,,,,,,,,,,,,,,,,,,,,,,,,,,368.376385708998,None,space,0.052770210000744555,368.376385708998,None,368.49610181499884,None,j,1,0.5892246319999686,368.49610181499884,None,369.1101422351003,None,None,369.1101422351003,None,,12,001,2021_Oct_06_1053,searchDisc4,2021.2.3,59.303605704379684,
images/exp2a_trial_145_colour1_distractors9_l.png,l,f,2a,145,1,9,,,,,0,190,190,574,,,,,,,,,,,,,,,,,,,,,,,,,,,,,,,,,,,,,,,,,,,,,,,,,,,,,,,,,,,,,,,,,,,,,,,,,,,,369.1103601939976,None,space,0.038913251999474596,369.1103601939976,None,369.217629589999,None,f,1,0.6677388909993169,369.217629589999,None,369.91066121010044,None,None,369.91066121010044,None,,12,001,2021_Oct_06_1053,searchDisc4,2021.2.3,59.303605704379684,
images/exp2b_trial_128_colour1_distractors1_r.png,r,j,2b,128,1,1,,,,,0,191,191,749,,,,,,,,,,,,,,,,,,,,,,,,,,,,,,,,,,,,,,,,,,,,,,,,,,,,,,,,,,,,,,,,,,,,,,,,,,,,369.91056570900037,None,space,0.0707623579983192,369.91056570900037,None,370.06272277399694,None,j,1,0.5586783360013214,370.06272277399694,None,370.64390059909965,None,None,370.64390059909965,None,,12,001,2021_Oct_06_1053,searchDisc4,2021.2.3,59.303605704379684,
images/exp1a_trial_180_colour2_distractors1_l.png,l,f,1a,180,2,1,,,,,0,192,192,225,,,,,,,,,,,,,,,,,,,,,,,,,,,,,,,,,,,,,,,,,,,,,,,,,,,,,,,,,,,,,,,,,,,,,,,,,,,,370.6431682129987,None,space,0.050158684000052745,370.6431682129987,None,370.76269831099853,None,f,1,0.5387517630006187,370.76269831099853,None,371.3272989560992,None,None,371.3272989560992,None,,12,001,2021_Oct_06_1053,searchDisc4,2021.2.3,59.303605704379684,
images/exp2c_trial_102_colour2_distractors4_r.png,r,j,2c,102,2,4,,,,,0,193,193,915,,,,,,,,,,,,,,,,,,,,,,,,,,,,,,,,,,,,,,,,,,,,,,,,,,,,,,,,,,,,,,,,,,,,,,,,,,,,371.32726311700026,None,space,0.07810914299989236,371.32726311700026,None,371.47942200899706,None,j,1,0.6540645880013471,371.47942200899706,None,372.1604756211,None,None,372.1604756211,None,,12,001,2021_Oct_06_1053,searchDisc4,2021.2.3,59.303605704379684,
images/exp1a_trial_73_colour2_distractors31_r.png,r,j,1a,73,2,31,,,,,0,194,194,118,,,,,,,,,,,,,,,,,,,,,,,,,,,,,,,,,,,,,,,,,,,,,,,,,,,,,,,,,,,,,,,,,,,,,,,,,,,,372.159730354997,None,space,0.053603817003022414,372.159730354997,None,372.29621262599903,None,j,1,0.6772105540003395,372.29621262599903,None,372.9937574501,None,None,372.9937574501,None,,12,001,2021_Oct_06_1053,searchDisc4,2021.2.3,59.303605704379684,
images/exp1a_trial_90_colour3_distractors4_l.png,l,f,1a,90,3,4,,,,,0,195,195,135,,,,,,,,,,,,,,,,,,,,,,,,,,,,,,,,,,,,,,,,,,,,,,,,,,,,,,,,,,,,,,,,,,,,,,,,,,,,372.9930946129971,None,space,0.044352953002089635,372.9930946129971,None,373.10000348599715,None,f,1,1.201555671999813,373.10000348599715,None,374.32728891109764,None,None,374.32728891109764,None,,12,001,2021_Oct_06_1053,searchDisc4,2021.2.3,59.303605704379684,
images/exp1b_trial_183_colour2_distractors19_l.png,l,f,1b,183,2,19,,,,,0,196,196,420,,,,,,,,,,,,,,,,,,,,,,,,,,,,,,,,,,,,,,,,,,,,,,,,,,,,,,,,,,,,,,,,,,,,,,,,,,,,374.32729537299747,None,space,0.08615268799985643,374.32729537299747,None,374.48477475899927,None,f,1,1.0168422250026197,374.48477475899927,None,375.5275244571003,None,None,375.5275244571003,None,,12,001,2021_Oct_06_1053,searchDisc4,2021.2.3,59.303605704379684,
images/exp1a_trial_58_colour3_distractors4_l.png,l,f,1a,58,3,4,,,,,0,197,197,103,,,,,,,,,,,,,,,,,,,,,,,,,,,,,,,,,,,,,,,,,,,,,,,,,,,,,,,,,,,,,,,,,,,,,,,,,,,,375.52676587599854,None,space,0.09482467099951464,375.52676587599854,None,375.6963008799976,None,f,1,0.6533534519985551,375.6963008799976,None,376.37683521209874,None,None,376.37683521209874,None,,12,001,2021_Oct_06_1053,searchDisc4,2021.2.3,59.303605704379684,
images/exp2b_trial_82_colour1_distractors19_l.png,l,f,2b,82,1,19,,,,,0,198,198,703,,,,,,,,,,,,,,,,,,,,,,,,,,,,,,,,,,,,,,,,,,,,,,,,,,,,,,,,,,,,,,,,,,,,,,,,,,,,376.37691788200027,None,space,0.04468243199880817,376.37691788200027,None,376.49637544699726,None,f,1,0.5173259589973895,376.49637544699726,None,377.04406260909855,None,None,377.04406260909855,None,,12,001,2021_Oct_06_1053,searchDisc4,2021.2.3,59.303605704379684,
images/exp1a_trial_119_colour2_distractors19_l.png,l,f,1a,119,2,19,,,,,0,199,199,164,,,,,,,,,,,,,,,,,,,,,,,,,,,,,,,,,,,,,,,,,,,,,,,,,,,,,,,,,,,,,,,,,,,,,,,,,,,,377.04405798399966,None,space,0.05758246600089478,377.04405798399966,None,377.17944746099965,None,j,0,0.5782872440031497,377.17944746099965,None,377.7768103711005,None,None,377.7768103711005,None,,12,001,2021_Oct_06_1053,searchDisc4,2021.2.3,59.303605704379684,
images/exp2c_trial_54_colour2_distractors9_l.png,l,f,2c,54,2,9,,,,,0,200,200,867,,,,,,,,,,,,,,,,,,,,,,,,,,,,,,,,,,,,,,,,,,,,,,,,,,,,,,,,,,,,,,,,,,,,,,,,,,,,377.7770048929997,None,space,0.10072264400150743,377.7770048929997,None,377.9463153180004,None,f,1,0.6034488740006054,377.9463153180004,None,378.5775458281005,None,None,378.5775458281005,None,,12,001,2021_Oct_06_1053,searchDisc4,2021.2.3,59.303605704379684,
images/exp1b_trial_83_colour1_distractors31_l.png,l,f,1b,83,1,31,,,,,0,201,201,320,,,,,,,,,,,,,,,,,,,,,,,,,,,,,,,,,,,,,,,,,,,,,,,,,,,,,,,,,,,,,,,,,,,,,,,,,,,,378.576779428,None,space,0.10079192299963324,378.576779428,None,378.74648116499884,None,f,1,1.0753490070019325,378.74648116499884,None,379.8444720481002,None,None,379.8444720481002,None,,12,001,2021_Oct_06_1053,searchDisc4,2021.2.3,59.303605704379684,
images/exp2a_trial_160_colour1_distractors1_r.png,r,j,2a,160,1,1,,,,,0,202,202,589,,,,,,,,,,,,,,,,,,,,,,,,,,,,,,,,,,,,,,,,,,,,,,,,,,,,,,,,,,,,,,,,,,,,,,,,,,,,379.84442314699845,None,space,0.07335749499907251,379.84442314699845,None,379.98300532499707,None,j,1,0.7107382969988976,379.98300532499707,None,380.71079468809876,None,None,380.71079468809876,None,,12,001,2021_Oct_06_1053,searchDisc4,2021.2.3,59.303605704379684,
images/exp2b_trial_24_colour2_distractors31_l.png,l,f,2b,24,2,31,,,,,0,203,203,645,,,,,,,,,,,,,,,,,,,,,,,,,,,,,,,,,,,,,,,,,,,,,,,,,,,,,,,,,,,,,,,,,,,,,,,,,,,,380.7108963259998,None,space,0.09491291700032889,380.7108963259998,None,380.86878936299763,None,f,1,0.5930363959996612,380.86878936299763,None,381.4941806490988,None,None,381.4941806490988,None,,12,001,2021_Oct_06_1053,searchDisc4,2021.2.3,59.303605704379684,
images/exp2c_trial_152_colour2_distractors31_l.png,l,f,2c,152,2,31,,,,,0,204,204,5,,,,,,,,,,,,,,,,,,,,,,,,,,,,,,,,,,,,,,,,,,,,,,,,,,,,,,,,,,,,,,,,,,,,,,,,,,,,381.49435374399764,None,space,0.05548568400263321,381.49435374399764,None,381.6297627919994,None,f,1,0.7440883579984074,381.6297627919994,None,382.3939858490976,None,None,382.3939858490976,None,,12,001,2021_Oct_06_1053,searchDisc4,2021.2.3,59.303605704379684,
images/exp2c_trial_24_colour2_distractors31_l.png,l,f,2c,24,2,31,,,,,0,205,205,837,,,,,,,,,,,,,,,,,,,,,,,,,,,,,,,,,,,,,,,,,,,,,,,,,,,,,,,,,,,,,,,,,,,,,,,,,,,,382.3940103729983,None,space,0.06780150199847412,382.3940103729983,None,382.52952447699863,None,f,1,0.5643592189990159,382.52952447699863,None,383.1109742840981,None,None,383.1109742840981,None,,12,001,2021_Oct_06_1053,searchDisc4,2021.2.3,59.303605704379684,
images/exp2a_trial_111_colour1_distractors1_l.png,l,f,2a,111,1,1,,,,,0,206,206,540,,,,,,,,,,,,,,,,,,,,,,,,,,,,,,,,,,,,,,,,,,,,,,,,,,,,,,,,,,,,,,,,,,,,,,,,,,,,383.11099180999736,None,space,0.054922560000704834,383.11099180999736,None,383.23432701099955,None,f,1,0.4516722850021324,383.23432701099955,None,383.710889112097,None,None,383.710889112097,None,,12,001,2021_Oct_06_1053,searchDisc4,2021.2.3,59.303605704379684,
images/exp2b_trial_92_colour3_distractors19_l.png,l,f,2b,92,3,19,,,,,0,207,207,713,,,,,,,,,,,,,,,,,,,,,,,,,,,,,,,,,,,,,,,,,,,,,,,,,,,,,,,,,,,,,,,,,,,,,,,,,,,,383.7109276379997,None,space,0.08692715300276177,383.7109276379997,None,383.87968303699745,None,f,1,0.5423974280020047,383.87968303699745,None,384.44447006509836,None,None,384.44447006509836,None,,12,001,2021_Oct_06_1053,searchDisc4,2021.2.3,59.303605704379684,
images/exp2a_trial_42_colour3_distractors1_r.png,r,j,2a,42,3,1,,,,,0,208,208,471,,,,,,,,,,,,,,,,,,,,,,,,,,,,,,,,,,,,,,,,,,,,,,,,,,,,,,,,,,,,,,,,,,,,,,,,,,,,384.44359318199713,None,space,0.058382365001307335,384.44359318199713,None,384.579739564997,None,j,1,0.5863119860005099,384.579739564997,None,385.1944902430969,None,None,385.1944902430969,None,,12,001,2021_Oct_06_1053,searchDisc4,2021.2.3,59.303605704379684,
images/exp2c_trial_186_colour3_distractors4_l.png,l,f,2c,186,3,4,,,,,0,209,209,39,,,,,,,,,,,,,,,,,,,,,,,,,,,,,,,,,,,,,,,,,,,,,,,,,,,,,,,,,,,,,,,,,,,,,,,,,,,,385.19361765699796,None,space,0.052362880000146106,385.19361765699796,None,385.31307495500005,None,j,0,0.6929969740012893,385.31307495500005,None,386.027512111099,None,None,386.027512111099,None,,12,001,2021_Oct_06_1053,searchDisc4,2021.2.3,59.303605704379684,
images/exp2a_trial_53_colour2_distractors4_l.png,l,f,2a,53,2,4,,,,,0,210,210,482,,,,,,,,,,,,,,,,,,,,,,,,,,,,,,,,,,,,,,,,,,,,,,,,,,,,,,,,,,,,,,,,,,,,,,,,,,,,386.02807433199996,None,space,0.06590425499962294,386.02807433199996,None,386.1631635220001,None,f,1,0.754935986999044,386.1631635220001,None,386.94446422709916,None,None,386.94446422709916,None,,12,001,2021_Oct_06_1053,searchDisc4,2021.2.3,59.303605704379684,
images/exp2a_trial_23_colour2_distractors19_l.png,l,f,2a,23,2,19,,,,,0,211,211,452,,,,,,,,,,,,,,,,,,,,,,,,,,,,,,,,,,,,,,,,,,,,,,,,,,,,,,,,,,,,,,,,,,,,,,,,,,,,386.9443530199969,None,space,0.03769611000097939,386.9443530199969,None,387.0632379879971,None,f,1,0.62291049200212,387.0632379879971,None,387.71097467009713,None,None,387.71097467009713,None,,12,001,2021_Oct_06_1053,searchDisc4,2021.2.3,59.303605704379684,
images/exp1a_trial_187_colour3_distractors9_l.png,l,f,1a,187,3,9,,,,,0,212,212,232,,,,,,,,,,,,,,,,,,,,,,,,,,,,,,,,,,,,,,,,,,,,,,,,,,,,,,,,,,,,,,,,,,,,,,,,,,,,387.71097172699956,None,space,0.08713984900168725,387.71097172699956,None,387.8798281749987,None,f,1,0.6703555329986557,387.8798281749987,None,388.5771926360994,None,None,388.5771926360994,None,,12,001,2021_Oct_06_1053,searchDisc4,2021.2.3,59.303605704379684,
images/exp1a_trial_27_colour3_distractors9_l.png,l,f,1a,27,3,9,,,,,0,213,213,72,,,,,,,,,,,,,,,,,,,,,,,,,,,,,,,,,,,,,,,,,,,,,,,,,,,,,,,,,,,,,,,,,,,,,,,,,,,,388.57714189899707,None,space,0.06100455699925078,388.57714189899707,None,388.7132049879983,None,f,1,0.6050684609981545,388.7132049879983,None,389.344410391097,None,None,389.344410391097,None,,12,001,2021_Oct_06_1053,searchDisc4,2021.2.3,59.303605704379684,
images/exp1a_trial_37_colour2_distractors1_r.png,r,j,1a,37,2,1,,,,,0,214,214,82,,,,,,,,,,,,,,,,,,,,,,,,,,,,,,,,,,,,,,,,,,,,,,,,,,,,,,,,,,,,,,,,,,,,,,,,,,,,389.34458211200035,None,space,0.05360323599961703,389.34458211200035,None,389.46625491599843,None,j,1,0.548018501001934,389.46625491599843,None,390.04438786009814,None,None,390.04438786009814,None,,12,001,2021_Oct_06_1053,searchDisc4,2021.2.3,59.303605704379684,
