ImageFile,targ_side,correctAnswer,exp,trial,colour,distNo,trials_2.thisRepN,trials_2.thisTrialN,trials_2.thisN,trials_2.thisIndex,trials.thisRepN,trials.thisTrialN,trials.thisN,trials.thisIndex,X Scale,Y Scale,text_top.started,text_top.stopped,text_bottom.started,text_bottom.stopped,ccimage.started,ccimage.stopped,text_6.started,text_6.stopped,key_resp_10.keys,key_resp_10.rt,key_resp_10.started,key_resp_10.stopped,text_7.started,text_7.stopped,key_resp_11.keys,key_resp_11.rt,key_resp_11.started,key_resp_11.stopped,text_8.started,text_8.stopped,key_resp_12.keys,key_resp_12.rt,key_resp_12.started,key_resp_12.stopped,text_9.started,text_9.stopped,key_resp_13.keys,key_resp_13.rt,key_resp_13.started,key_resp_13.stopped,text_2.started,text_2.stopped,key_resp_5.keys,key_resp_5.rt,key_resp_5.started,key_resp_5.stopped,text_5.started,text_5.stopped,key_resp_8.keys,key_resp_8.rt,key_resp_8.started,key_resp_8.stopped,image_2.started,image_2.stopped,key_resp_6.keys,key_resp_6.rt,key_resp_6.started,key_resp_6.stopped,text_3.started,text_3.stopped,image_3.started,image_3.stopped,fix.started,fix.stopped,key_resp_7.keys,key_resp_7.rt,key_resp_7.started,key_resp_7.stopped,image.started,image.stopped,key_resp_4.keys,key_resp_4.corr,key_resp_4.rt,key_resp_4.started,key_resp_4.stopped,text_4.started,text_4.stopped,text.started,text.stopped,key_resp_3.keys,key_resp_3.rt,key_resp_3.started,key_resp_3.stopped,fix2experiment.started,fix2experiment.stopped,key_resp_9.keys,key_resp_9.rt,key_resp_9.started,key_resp_9.stopped,dispStimuli.started,dispStimuli.stopped,key_resp_2.keys,key_resp_2.corr,key_resp_2.rt,key_resp_2.started,key_resp_2.stopped,breakMessage.started,breakMessage.stopped,key_resp.keys,key_resp.started,key_resp.stopped,key_resp.rt,participant,session,date,expName,psychopyVersion,frameRate,
,,,,,,,,,,,,,,,37.9,34.9,18.78133838500071,None,18.78133838500071,None,18.78133838500071,None,58.36334924000039,None,space,2.0338937870001246,58.36334924000039,None,,,,,,,,,,,,,,,,,,,,,,,,,,,,,,,,,,,,,,,,,,,,,,,,,,,,,,,,,,,,,,,,,,,,,,,,,,,,,,,,,13,001,2021_Oct_06_1234,searchDisc4,2021.2.3,60.02422649728014,
,,,,,,,,,,,,,,,,,,,,,,,,,,,,,60.41573940200033,None,space,4.125642117000098,60.41573940200033,None,,,,,,,,,,,,,,,,,,,,,,,,,,,,,,,,,,,,,,,,,,,,,,,,,,,,,,,,,,,,,,,,,,,,,,,,,,,13,001,2021_Oct_06_1234,searchDisc4,2021.2.3,60.02422649728014,
,,,,,,,,,,,,,,,,,,,,,,,,,,,,,,,,,,,64.56584414399913,None,space,2.7436831230006646,64.56584414399913,None,,,,,,,,,,,,,,,,,,,,,,,,,,,,,,,,,,,,,,,,,,,,,,,,,,,,,,,,,,,,,,,,,,,,,13,001,2021_Oct_06_1234,searchDisc4,2021.2.3,60.02422649728014,
,,,,,,,,,,,,,,,,,,,,,,,,,,,,,,,,,,,,,,,,,67.33245761999933,None,space,1.9850455240011797,67.33245761999933,None,,,,,,,,,,,,,,,,,,,,,,,,,,,,,,,,,,,,,,,,,,,,,,,,,,,,,,,,,,,,,,,13,001,2021_Oct_06_1234,searchDisc4,2021.2.3,60.02422649728014,
,,,,,,,,,,,,,,,,,,,,,,,,,,,,,,,,,,,,,,,,,,,,,,,69.34911034899778,None,space,62.42860048800139,70.31594043400037,None,,,,,,,,,,,,,,,,,,,,,,,,,,,,,,,,,,,,,,,,,,,,,,,,,,,,,,,,,13,001,2021_Oct_06_1234,searchDisc4,2021.2.3,60.02422649728014,
,,,,,,,,,,,,,,,,,,,,,,,,,,,,,,,,,,,,,,,,,,,,,,,,,,,,,132.76746018999984,None,space,6.809362784002587,132.76746018999984,None,,,,,,,,,,,,,,,,,,,,,,,,,,,,,,,,,,,,,,,,,,,,,,,,,,,13,001,2021_Oct_06_1234,searchDisc4,2021.2.3,60.02422649728014,
,,,,,,,,,,,,,,,,,,,,,,,,,,,,,,,,,,,,,,,,,,,,,,,,,,,,,,,,,,,139.60110342500047,None,space,1.921335260001797,140.56765525000083,None,,,,,,,,,,,,,,,,,,,,,,,,,,,,,,,,,,,,,,,,,,,,,13,001,2021_Oct_06_1234,searchDisc4,2021.2.3,60.02422649728014,
Practice arrays/exp1a_trial_7_colour2_distractors9_r.png,r,j,,,,,0,0,0,2,,,,,,,,,,,,,,,,,,,,,,,,,,,,,,,,,,,,,,,,,,,,,,,,,,,,,,,139.60110342500047,None,139.60110342500047,None,142.53443605199936,None,space,6.714866970000003,142.53443605199936,None,149.3349231680004,None,j,1,0.9704095189990767,149.3349231680004,None,150.33264325100026,None,,,,,,,,,,,,,,,,,,,,,,,,,,13,001,2021_Oct_06_1234,searchDisc4,2021.2.3,60.02422649728014,
Practice arrays/exp1a_trial_17_colour1_distractors9_l.png,l,f,,,,,0,1,1,7,,,,,,,,,,,,,,,,,,,,,,,,,,,,,,,,,,,,,,,,,,,,,,,,,,,,,,,,,,,151.33473760099878,None,space,1.3067107030001353,151.33473760099878,None,152.71820944799765,None,f,1,0.6672565850021783,152.71820944799765,None,153.4161040149993,None,,,,,,,,,,,,,,,,,,,,,,,,,,13,001,2021_Oct_06_1234,searchDisc4,2021.2.3,60.02422649728014,
Practice arrays/exp1a_trial_16_colour1_distractors4_l.png,l,f,,,,,0,2,2,13,,,,,,,,,,,,,,,,,,,,,,,,,,,,,,,,,,,,,,,,,,,,,,,,,,,,,,,,,,,154.41812069300067,None,space,1.0473546510002052,154.41812069300067,None,155.53495158299847,None,f,1,0.5386534290009877,155.53495158299847,None,156.09944220599937,None,,,,,,,,,,,,,,,,,,,,,,,,,,13,001,2021_Oct_06_1234,searchDisc4,2021.2.3,60.02422649728014,
Practice arrays/exp1a_trial_1_colour1_distractors4_r.png,r,j,,,,,0,3,3,1,,,,,,,,,,,,,,,,,,,,,,,,,,,,,,,,,,,,,,,,,,,,,,,,,,,,,,,,,,,157.10138956199808,None,space,0.19622291300038341,157.10138956199808,None,157.3684224739991,None,j,1,0.721281572998123,157.3684224739991,None,158.11620212300113,None,,,,,,,,,,,,,,,,,,,,,,,,,,13,001,2021_Oct_06_1234,searchDisc4,2021.2.3,60.02422649728014,
Practice arrays/exp1a_trial_31_colour0_distractors0_l.png,l,f,,,,,0,4,4,15,,,,,,,,,,,,,,,,,,,,,,,,,,,,,,,,,,,,,,,,,,,,,,,,,,,,,,,,,,,159.11812952000037,None,space,0.547519404997729,159.11812952000037,None,159.73513559099956,None,f,1,0.5305689279994112,159.73513559099956,None,160.28276669800107,None,,,,,,,,,,,,,,,,,,,,,,,,,,13,001,2021_Oct_06_1234,searchDisc4,2021.2.3,60.02422649728014,
Practice arrays/exp1a_trial_8_colour2_distractors19_r.png,r,j,,,,,0,5,5,3,,,,,,,,,,,,,,,,,,,,,,,,,,,,,,,,,,,,,,,,,,,,,,,,,,,,,,,,,,,161.28502555600062,None,space,0.012805407000996638,161.28502555600062,None,161.3683323160003,None,j,1,0.6495316869986709,161.3683323160003,None,162.04966884299938,None,,,,,,,,,,,,,,,,,,,,,,,,,,13,001,2021_Oct_06_1234,searchDisc4,2021.2.3,60.02422649728014,
Practice arrays/exp1a_trial_25_colour3_distractors1_l.png,l,f,,,,,0,6,6,11,,,,,,,,,,,,,,,,,,,,,,,,,,,,,,,,,,,,,,,,,,,,,,,,,,,,,,,,,,,163.05166178199943,None,space,0.03025372399861226,163.05166178199943,None,163.1518323729979,None,j,0,0.6741002870003285,163.1518323729979,None,163.84891935400083,None,,,,,,,,,,,,,,,,,,,,,,,,,,13,001,2021_Oct_06_1234,searchDisc4,2021.2.3,60.02422649728014,
Practice arrays/exp1a_trial_14_colour3_distractors31_r.png,r,j,,,,,0,7,7,6,,,,,,,,,,,,,,,,,,,,,,,,,,,,,,,,,,,,,,,,,,,,,,,,,,,,,,,,,,,164.84992542499822,None,space,0.12001813599999878,164.84992542499822,None,165.05178483599957,None,j,1,0.5422120639996137,165.05178483599957,None,165.61636227800045,None,,,,,,,,,,,,,,,,,,,,,,,,,,13,001,2021_Oct_06_1234,searchDisc4,2021.2.3,60.02422649728014,
Practice arrays/exp1a_trial_10_colour3_distractors1_r.png,r,j,,,,,0,8,8,4,,,,,,,,,,,,,,,,,,,,,,,,,,,,,,,,,,,,,,,,,,,,,,,,,,,,,,,,,,,166.61840897000002,None,space,0.2236676009997609,166.61840897000002,None,166.91883886199867,None,j,1,0.6512879799993243,166.91883886199867,None,167.59962926599837,None,,,,,,,,,,,,,,,,,,,,,,,,,,13,001,2021_Oct_06_1234,searchDisc4,2021.2.3,60.02422649728014,
Practice arrays/exp1a_trial_30_colour0_distractors0_r.png,r,j,,,,,0,9,9,14,,,,,,,,,,,,,,,,,,,,,,,,,,,,,,,,,,,,,,,,,,,,,,,,,,,,,,,,,,,168.60179189799965,None,space,0.1363713960017776,168.60179189799965,None,168.81857226699867,None,j,1,0.5916277319993242,168.81857226699867,None,169.43312565499946,None,,,,,,,,,,,,,,,,,,,,,,,,,,13,001,2021_Oct_06_1234,searchDisc4,2021.2.3,60.02422649728014,
Practice arrays/exp1a_trial_27_colour3_distractors9_l.png,l,f,,,,,0,10,10,12,,,,,,,,,,,,,,,,,,,,,,,,,,,,,,,,,,,,,,,,,,,,,,,,,,,,,,,,,,,170.43517177899776,None,space,1.8630729299984523,170.43517177899776,None,172.36870834399815,None,j,0,0.5295966020021297,172.36870834399815,None,172.91646373299955,None,,,,,,,,,,,,,,,,,,,,,,,,,,13,001,2021_Oct_06_1234,searchDisc4,2021.2.3,60.02422649728014,
Practice arrays/exp1a_trial_21_colour2_distractors4_l.png,l,f,,,,,0,11,11,9,,,,,,,,,,,,,,,,,,,,,,,,,,,,,,,,,,,,,,,,,,,,,,,,,,,,,,,,,,,173.91856652899878,None,space,0.5158703029992466,173.91856652899878,None,174.50191161000112,None,f,1,0.5406197459997202,174.50191161000112,None,175.06664300500051,None,,,,,,,,,,,,,,,,,,,,,,,,,,13,001,2021_Oct_06_1234,searchDisc4,2021.2.3,60.02422649728014,
Practice arrays/exp1a_trial_23_colour2_distractors19_l.png,l,f,,,,,0,12,12,10,,,,,,,,,,,,,,,,,,,,,,,,,,,,,,,,,,,,,,,,,,,,,,,,,,,,,,,,,,,176.06867711899758,None,space,0.10183239899924956,176.06867711899758,None,176.25215085200034,None,f,1,0.6864038150015404,176.25215085200034,None,176.96667447299842,None,,,,,,,,,,,,,,,,,,,,,,,,,,13,001,2021_Oct_06_1234,searchDisc4,2021.2.3,60.02422649728014,
Practice arrays/exp1a_trial_0_colour1_distractors1_r.png,r,j,,,,,0,13,13,0,,,,,,,,,,,,,,,,,,,,,,,,,,,,,,,,,,,,,,,,,,,,,,,,,,,,,,,,,,,177.96864969200033,None,space,0.09793284999977914,177.96864969200033,None,178.13503612500062,None,j,1,0.6916074690016103,178.13503612500062,None,178.85006131000046,None,,,,,,,,,,,,,,,,,,,,,,,,,,13,001,2021_Oct_06_1234,searchDisc4,2021.2.3,60.02422649728014,
Practice arrays/exp1a_trial_12_colour3_distractors9_r.png,r,j,,,,,0,14,14,5,,,,,,,,,,,,,,,,,,,,,,,,,,,,,,,,,,,,,,,,,,,,,,,,,,,,,,,,,,,179.85231824899893,None,space,0.590404287999263,179.85231824899893,None,180.51889047000077,None,j,1,0.6678732189975563,180.51889047000077,None,181.21664010200038,None,,,,,,,,,,,,,,,,,,,,,,,,,,13,001,2021_Oct_06_1234,searchDisc4,2021.2.3,60.02422649728014,
Practice arrays/exp1a_trial_18_colour1_distractors19_l.png,l,f,,,,,0,15,15,8,,,,,,,,,,,,,,,,,,,,,,,,,,,,,,,,,,,,,,,,,,,,,,,,,,,,,,,,,,,182.2188464949977,None,space,0.3519429299994954,182.2188464949977,None,182.65250961299898,None,f,1,0.6223396690002119,182.65250961299898,None,183.3000714769987,None,,,,,,,,,,,,,,,,,,,,,,,,,,13,001,2021_Oct_06_1234,searchDisc4,2021.2.3,60.02422649728014,
,,,,,,,,,,,,,,,,,,,,,,,,,,,,,,,,,,,,,,,,,,,,,,,,,,,,,,,,,,,,,,,,,,,,,,,,,,,,,,,,,,,,184.3692319969996,None,space,7.33092924399898,187.3523452269983,None,,,,,,,,,,,,,,,,,,,,13,001,2021_Oct_06_1234,searchDisc4,2021.2.3,60.02422649728014,
images/exp1b_trial_11_colour3_distractors4_r.png,r,j,1b,11,3,4,,,,,0,0,0,248,,,,,,,,,,,,,,,,,,,,,,,,,,,,,,,,,,,,,,,,,,,,,,,,,,,,,,,,,,,,,,,,,,,,,,,,,,,,195.08588831199813,None,space,1.7975672930006112,195.08588831199813,None,196.95470275099797,None,j,1,1.480840492000425,196.95470275099797,None,198.46715788280017,None,None,198.46715788280017,None,,13,001,2021_Oct_06_1234,searchDisc4,2021.2.3,60.02422649728014,
images/exp2c_trial_191_colour0_distractors0_l.png,l,f,2c,191,0,0,,,,,0,1,1,44,,,,,,,,,,,,,,,,,,,,,,,,,,,,,,,,,,,,,,,,,,,,,,,,,,,,,,,,,,,,,,,,,,,,,,,,,,,,198.48589043600077,None,space,0.8456704419986636,198.48589043600077,None,199.39116912199825,None,f,1,0.580447025000467,199.39116912199825,None,200.00048638679982,None,None,200.00048638679982,None,,13,001,2021_Oct_06_1234,searchDisc4,2021.2.3,60.02422649728014,
images/exp2b_trial_132_colour1_distractors31_r.png,r,j,2b,132,1,31,,,,,0,2,2,753,,,,,,,,,,,,,,,,,,,,,,,,,,,,,,,,,,,,,,,,,,,,,,,,,,,,,,,,,,,,,,,,,,,,,,,,,,,,200.00042056099846,None,space,0.6831204490008531,200.00042056099846,None,200.7527930010001,None,j,1,0.6028865430016594,200.7527930010001,None,201.38393693779835,None,None,201.38393693779835,None,,13,001,2021_Oct_06_1234,searchDisc4,2021.2.3,60.02422649728014,
images/exp2c_trial_78_colour3_distractors31_r.png,r,j,2c,78,3,31,,,,,0,3,3,891,,,,,,,,,,,,,,,,,,,,,,,,,,,,,,,,,,,,,,,,,,,,,,,,,,,,,,,,,,,,,,,,,,,,,,,,,,,,201.38373732000036,None,space,1.1479629419991397,201.38373732000036,None,202.60284119100106,None,j,1,0.5128991920028056,202.60284119100106,None,203.133273834801,None,None,203.133273834801,None,,13,001,2021_Oct_06_1234,searchDisc4,2021.2.3,60.02422649728014,
images/exp1a_trial_165_colour2_distractors1_r.png,r,j,1a,165,2,1,,,,,0,4,4,210,,,,,,,,,,,,,,,,,,,,,,,,,,,,,,,,,,,,,,,,,,,,,,,,,,,,,,,,,,,,,,,,,,,,,,,,,,,,203.13382500199805,None,space,0.7338310039995122,203.13382500199805,None,203.92559301499932,None,j,1,0.48622549699939555,203.92559301499932,None,204.43418900580036,None,None,204.43418900580036,None,,13,001,2021_Oct_06_1234,searchDisc4,2021.2.3,60.02422649728014,
images/exp2a_trial_35_colour1_distractors19_r.png,r,j,2a,35,1,19,,,,,0,5,5,464,,,,,,,,,,,,,,,,,,,,,,,,,,,,,,,,,,,,,,,,,,,,,,,,,,,,,,,,,,,,,,,,,,,,,,,,,,,,204.43403730700084,None,space,0.6097532339990721,204.43403730700084,None,205.11757240500083,None,j,1,0.47031344499919214,205.11757240500083,None,205.61726545779857,None,None,205.61726545779857,None,,13,001,2021_Oct_06_1234,searchDisc4,2021.2.3,60.02422649728014,
images/exp2b_trial_133_colour2_distractors1_r.png,r,j,2b,133,2,1,,,,,0,6,6,754,,,,,,,,,,,,,,,,,,,,,,,,,,,,,,,,,,,,,,,,,,,,,,,,,,,,,,,,,,,,,,,,,,,,,,,,,,,,205.61714558300082,None,space,0.5386899479999556,205.61714558300082,None,206.23605141100052,None,j,1,0.5278833369993663,206.23605141100052,None,206.784174858798,None,None,206.784174858798,None,,13,001,2021_Oct_06_1234,searchDisc4,2021.2.3,60.02422649728014,
images/exp1a_trial_59_colour3_distractors9_l.png,l,f,1a,59,3,9,,,,,0,7,7,104,,,,,,,,,,,,,,,,,,,,,,,,,,,,,,,,,,,,,,,,,,,,,,,,,,,,,,,,,,,,,,,,,,,,,,,,,,,,206.78431781000108,None,space,0.5475966590020107,206.78431781000108,None,207.4029509610009,None,f,1,0.464918667999882,207.4029509610009,None,207.90087502979986,None,None,207.90087502979986,None,,13,001,2021_Oct_06_1234,searchDisc4,2021.2.3,60.02422649728014,
images/exp1a_trial_20_colour2_distractors1_l.png,l,f,1a,20,2,1,,,,,0,8,8,65,,,,,,,,,,,,,,,,,,,,,,,,,,,,,,,,,,,,,,,,,,,,,,,,,,,,,,,,,,,,,,,,,,,,,,,,,,,,207.90067292299864,None,space,0.5191905549982039,207.90067292299864,None,208.49133492300098,None,f,1,0.5126866080026957,208.49133492300098,None,209.03419014880092,None,None,209.03419014880092,None,,13,001,2021_Oct_06_1234,searchDisc4,2021.2.3,60.02422649728014,
images/exp2a_trial_11_colour3_distractors4_r.png,r,j,2a,11,3,4,,,,,0,9,9,440,,,,,,,,,,,,,,,,,,,,,,,,,,,,,,,,,,,,,,,,,,,,,,,,,,,,,,,,,,,,,,,,,,,,,,,,,,,,209.03440077599953,None,space,0.5056087819975801,209.03440077599953,None,209.61971560600068,None,j,1,0.4643422150002152,209.61971560600068,None,210.10081459280082,None,None,210.10081459280082,None,,13,001,2021_Oct_06_1234,searchDisc4,2021.2.3,60.02422649728014,
images/exp2a_trial_47_colour1_distractors1_l.png,l,f,2a,47,1,1,,,,,0,10,10,476,,,,,,,,,,,,,,,,,,,,,,,,,,,,,,,,,,,,,,,,,,,,,,,,,,,,,,,,,,,,,,,,,,,,,,,,,,,,210.1002399079989,None,space,0.5278131049999502,210.1002399079989,None,210.69268757999816,None,f,1,0.4714286409980559,210.69268757999816,None,211.1833234017995,None,None,211.1833234017995,None,,13,001,2021_Oct_06_1234,searchDisc4,2021.2.3,60.02422649728014,
images/exp2c_trial_147_colour1_distractors31_l.png,l,f,2c,147,1,31,,,,,0,11,11,0,,,,,,,,,,,,,,,,,,,,,,,,,,,,,,,,,,,,,,,,,,,,,,,,,,,,,,,,,,,,,,,,,,,,,,,,,,,,211.18422916800046,None,space,0.4998686849976366,211.18422916800046,None,211.75299882800027,None,f,1,0.5712116110007628,211.75299882800027,None,212.35102928279775,None,None,212.35102928279775,None,,13,001,2021_Oct_06_1234,searchDisc4,2021.2.3,60.02422649728014,
images/exp1b_trial_10_colour3_distractors1_r.png,r,j,1b,10,3,1,,,,,0,12,12,247,,,,,,,,,,,,,,,,,,,,,,,,,,,,,,,,,,,,,,,,,,,,,,,,,,,,,,,,,,,,,,,,,,,,,,,,,,,,212.3509937609997,None,space,0.4931561849989521,212.3509937609997,None,212.9094849539979,None,j,1,0.6867365159996552,212.9094849539979,None,213.617726391798,None,None,213.617726391798,None,,13,001,2021_Oct_06_1234,searchDisc4,2021.2.3,60.02422649728014,
images/exp2b_trial_169_colour2_distractors31_r.png,r,j,2b,169,2,31,,,,,0,13,13,790,,,,,,,,,,,,,,,,,,,,,,,,,,,,,,,,,,,,,,,,,,,,,,,,,,,,,,,,,,,,,,,,,,,,,,,,,,,,213.6170406889978,None,space,0.5230902319999586,213.6170406889978,None,214.21982852699875,None,j,1,0.4564254010001605,214.21982852699875,None,214.7009402698004,None,None,214.7009402698004,None,,13,001,2021_Oct_06_1234,searchDisc4,2021.2.3,60.02422649728014,
images/exp2c_trial_114_colour1_distractors19_l.png,l,f,2c,114,1,19,,,,,0,14,14,927,,,,,,,,,,,,,,,,,,,,,,,,,,,,,,,,,,,,,,,,,,,,,,,,,,,,,,,,,,,,,,,,,,,,,,,,,,,,214.70085724800083,None,space,0.5593619079991186,214.70085724800083,None,215.32594655600042,None,f,1,0.5103616660016996,215.32594655600042,None,215.8676051038001,None,None,215.8676051038001,None,,13,001,2021_Oct_06_1234,searchDisc4,2021.2.3,60.02422649728014,
images/exp1b_trial_80_colour1_distractors4_l.png,l,f,1b,80,1,4,,,,,0,15,15,317,,,,,,,,,,,,,,,,,,,,,,,,,,,,,,,,,,,,,,,,,,,,,,,,,,,,,,,,,,,,,,,,,,,,,,,,,,,,215.86770163799883,None,space,0.5125735159999749,215.86770163799883,None,216.44231279999804,None,f,1,0.5700398429980851,216.44231279999804,None,217.0337584247991,None,None,217.0337584247991,None,,13,001,2021_Oct_06_1234,searchDisc4,2021.2.3,60.02422649728014,
images/exp2b_trial_56_colour2_distractors31_l.png,l,f,2b,56,2,31,,,,,0,16,16,677,,,,,,,,,,,,,,,,,,,,,,,,,,,,,,,,,,,,,,,,,,,,,,,,,,,,,,,,,,,,,,,,,,,,,,,,,,,,217.03369963799923,None,space,0.48272338699825923,217.03369963799923,None,217.57603698000094,None,f,1,0.5003842270016321,217.57603698000094,None,218.10108619179846,None,None,218.10108619179846,None,,13,001,2021_Oct_06_1234,searchDisc4,2021.2.3,60.02422649728014,
images/exp2b_trial_62_colour0_distractors0_r.png,r,j,2b,62,0,0,,,,,0,17,17,683,,,,,,,,,,,,,,,,,,,,,,,,,,,,,,,,,,,,,,,,,,,,,,,,,,,,,,,,,,,,,,,,,,,,,,,,,,,,218.10111365299963,None,space,0.4952570570021635,218.10111365299963,None,218.6700288280008,None,j,1,0.4544628960029513,218.6700288280008,None,219.1504610887987,None,None,219.1504610887987,None,,13,001,2021_Oct_06_1234,searchDisc4,2021.2.3,60.02422649728014,
images/exp2a_trial_112_colour1_distractors4_l.png,l,f,2a,112,1,4,,,,,0,18,18,541,,,,,,,,,,,,,,,,,,,,,,,,,,,,,,,,,,,,,,,,,,,,,,,,,,,,,,,,,,,,,,,,,,,,,,,,,,,,219.15035376399828,None,space,0.46210626299944124,219.15035376399828,None,219.68664756100043,None,f,1,0.4378944899981434,219.68664756100043,None,220.15113962979922,None,None,220.15113962979922,None,,13,001,2021_Oct_06_1234,searchDisc4,2021.2.3,60.02422649728014,
images/exp2a_trial_109_colour3_distractors19_r.png,r,j,2a,109,3,19,,,,,0,19,19,538,,,,,,,,,,,,,,,,,,,,,,,,,,,,,,,,,,,,,,,,,,,,,,,,,,,,,,,,,,,,,,,,,,,,,,,,,,,,220.15113808599926,None,space,0.45331154199811863,220.15113808599926,None,220.68662024399964,None,j,1,0.4699591110002075,220.68662024399964,None,221.18406521779798,None,None,221.18406521779798,None,,13,001,2021_Oct_06_1234,searchDisc4,2021.2.3,60.02422649728014,
images/exp2c_trial_63_colour0_distractors0_l.png,l,f,2c,63,0,0,,,,,0,20,20,876,,,,,,,,,,,,,,,,,,,,,,,,,,,,,,,,,,,,,,,,,,,,,,,,,,,,,,,,,,,,,,,,,,,,,,,,,,,,221.18415975599783,None,space,0.4283620800015342,221.18415975599783,None,221.6676146030004,None,f,1,0.44905807400209596,221.6676146030004,None,222.1341927548001,None,None,222.1341927548001,None,,13,001,2021_Oct_06_1234,searchDisc4,2021.2.3,60.02422649728014,
images/exp2c_trial_183_colour2_distractors19_l.png,l,f,2c,183,2,19,,,,,0,21,21,36,,,,,,,,,,,,,,,,,,,,,,,,,,,,,,,,,,,,,,,,,,,,,,,,,,,,,,,,,,,,,,,,,,,,,,,,,,,,222.13445260799926,None,space,0.4540313080033229,222.13445260799926,None,222.6702303940001,None,f,1,0.47846047900020494,222.6702303940001,None,223.16787915180066,None,None,223.16787915180066,None,,13,001,2021_Oct_06_1234,searchDisc4,2021.2.3,60.02422649728014,
images/exp2c_trial_163_colour1_distractors19_r.png,r,j,2c,163,1,19,,,,,0,22,22,16,,,,,,,,,,,,,,,,,,,,,,,,,,,,,,,,,,,,,,,,,,,,,,,,,,,,,,,,,,,,,,,,,,,,,,,,,,,,223.16804450500058,None,space,0.5085902020000503,223.16804450500058,None,223.74300616799883,None,j,1,0.5576376089993573,223.74300616799883,None,224.3180060547984,None,None,224.3180060547984,None,,13,001,2021_Oct_06_1234,searchDisc4,2021.2.3,60.02422649728014,
images/exp1a_trial_174_colour3_distractors31_r.png,r,j,1a,174,3,31,,,,,0,23,23,219,,,,,,,,,,,,,,,,,,,,,,,,,,,,,,,,,,,,,,,,,,,,,,,,,,,,,,,,,,,,,,,,,,,,,,,,,,,,224.31789216000107,None,space,0.47076155900140293,224.31789216000107,None,224.87010939899847,None,j,1,0.5506693239985907,224.87010939899847,None,225.45122730079856,None,None,225.45122730079856,None,,13,001,2021_Oct_06_1234,searchDisc4,2021.2.3,60.02422649728014,
images/exp2b_trial_170_colour3_distractors1_r.png,r,j,2b,170,3,1,,,,,0,24,24,791,,,,,,,,,,,,,,,,,,,,,,,,,,,,,,,,,,,,,,,,,,,,,,,,,,,,,,,,,,,,,,,,,,,,,,,,,,,,225.4512761549995,None,space,0.40949743400051375,225.4512761549995,None,225.92569075799838,None,j,1,0.6550759629972163,225.92569075799838,None,226.60106107979846,None,None,226.60106107979846,None,,13,001,2021_Oct_06_1234,searchDisc4,2021.2.3,60.02422649728014,
images/exp1b_trial_32_colour1_distractors1_r.png,r,j,1b,32,1,1,,,,,0,25,25,269,,,,,,,,,,,,,,,,,,,,,,,,,,,,,,,,,,,,,,,,,,,,,,,,,,,,,,,,,,,,,,,,,,,,,,,,,,,,226.60080456300057,None,space,0.40392020500075887,226.60080456300057,None,227.08674160900046,None,j,1,0.542075395998836,227.08674160900046,None,227.651064192798,None,None,227.651064192798,None,,13,001,2021_Oct_06_1234,searchDisc4,2021.2.3,60.02422649728014,
images/exp2a_trial_159_colour0_distractors0_l.png,l,f,2a,159,0,0,,,,,0,26,26,588,,,,,,,,,,,,,,,,,,,,,,,,,,,,,,,,,,,,,,,,,,,,,,,,,,,,,,,,,,,,,,,,,,,,,,,,,,,,227.65101800000048,None,space,0.45785919799891417,227.65101800000048,None,228.17634146199998,None,f,1,0.4205035070008307,228.17634146199998,None,228.61786227979792,None,None,228.61786227979792,None,,13,001,2021_Oct_06_1234,searchDisc4,2021.2.3,60.02422649728014,
images/exp2b_trial_149_colour2_distractors4_l.png,l,f,2b,149,2,4,,,,,0,27,27,770,,,,,,,,,,,,,,,,,,,,,,,,,,,,,,,,,,,,,,,,,,,,,,,,,,,,,,,,,,,,,,,,,,,,,,,,,,,,228.61796766299813,None,space,0.46681617699869093,228.61796766299813,None,229.14363667499856,None,f,1,0.5972795669986226,229.14363667499856,None,229.76765423279903,None,None,229.76765423279903,None,,13,001,2021_Oct_06_1234,searchDisc4,2021.2.3,60.02422649728014,
images/exp1a_trial_113_colour1_distractors9_l.png,l,f,1a,113,1,9,,,,,0,28,28,158,,,,,,,,,,,,,,,,,,,,,,,,,,,,,,,,,,,,,,,,,,,,,,,,,,,,,,,,,,,,,,,,,,,,,,,,,,,,229.7679574419999,None,space,0.4129236709995894,229.7679574419999,None,230.25275782300014,None,f,1,0.5282019239966758,230.25275782300014,None,230.80098098579947,None,None,230.80098098579947,None,,13,001,2021_Oct_06_1234,searchDisc4,2021.2.3,60.02422649728014,
images/exp2b_trial_43_colour3_distractors4_r.png,r,j,2b,43,3,4,,,,,0,29,29,664,,,,,,,,,,,,,,,,,,,,,,,,,,,,,,,,,,,,,,,,,,,,,,,,,,,,,,,,,,,,,,,,,,,,,,,,,,,,230.80147218799902,None,space,0.4993978969978343,230.80147218799902,None,231.37020546499843,None,j,1,0.4747797769996396,231.37020546499843,None,231.8672732358009,None,None,231.8672732358009,None,,13,001,2021_Oct_06_1234,searchDisc4,2021.2.3,60.02422649728014,
images/exp2a_trial_84_colour2_distractors1_l.png,l,f,2a,84,2,1,,,,,0,30,30,513,,,,,,,,,,,,,,,,,,,,,,,,,,,,,,,,,,,,,,,,,,,,,,,,,,,,,,,,,,,,,,,,,,,,,,,,,,,,231.867723845,None,space,0.4492286579989013,231.867723845,None,232.3847599289984,None,f,1,0.5082799869996961,232.3847599289984,None,232.91753154880098,None,None,232.91753154880098,None,,13,001,2021_Oct_06_1234,searchDisc4,2021.2.3,60.02422649728014,
images/exp2b_trial_111_colour1_distractors1_l.png,l,f,2b,111,1,1,,,,,0,31,31,732,,,,,,,,,,,,,,,,,,,,,,,,,,,,,,,,,,,,,,,,,,,,,,,,,,,,,,,,,,,,,,,,,,,,,,,,,,,,232.9176342239989,None,space,0.4793479389991262,232.9176342239989,None,233.46997276699767,None,f,1,0.8071171439987666,233.46997276699767,None,234.30112162780097,None,None,234.30112162780097,None,,13,001,2021_Oct_06_1234,searchDisc4,2021.2.3,60.02422649728014,
images/exp1a_trial_144_colour1_distractors4_l.png,l,f,1a,144,1,4,,,,,0,32,32,189,,,,,,,,,,,,,,,,,,,,,,,,,,,,,,,,,,,,,,,,,,,,,,,,,,,,,,,,,,,,,,,,,,,,,,,,,,,,234.30144312300035,None,space,0.37560785800087615,234.30144312300035,None,234.75318039699778,None,f,1,0.6359756759993616,234.75318039699778,None,235.4180045027988,None,None,235.4180045027988,None,,13,001,2021_Oct_06_1234,searchDisc4,2021.2.3,60.02422649728014,
images/exp2c_trial_19_colour1_distractors31_l.png,l,f,2c,19,1,31,,,,,0,33,33,832,,,,,,,,,,,,,,,,,,,,,,,,,,,,,,,,,,,,,,,,,,,,,,,,,,,,,,,,,,,,,,,,,,,,,,,,,,,,235.41771115099982,None,space,0.2913904220004042,235.41771115099982,None,235.78668113299864,None,f,1,0.6505203890010307,235.78668113299864,None,236.46807030679884,None,None,236.46807030679884,None,,13,001,2021_Oct_06_1234,searchDisc4,2021.2.3,60.02422649728014,
images/exp2b_trial_103_colour2_distractors9_r.png,r,j,2b,103,2,9,,,,,0,34,34,724,,,,,,,,,,,,,,,,,,,,,,,,,,,,,,,,,,,,,,,,,,,,,,,,,,,,,,,,,,,,,,,,,,,,,,,,,,,,236.46751391100042,None,space,0.28963488600129494,236.46751391100042,None,236.83682632599812,None,j,1,0.5524021330020332,236.83682632599812,None,237.41809851179823,None,None,237.41809851179823,None,,13,001,2021_Oct_06_1234,searchDisc4,2021.2.3,60.02422649728014,
images/exp2c_trial_83_colour1_distractors31_l.png,l,f,2c,83,1,31,,,,,0,35,35,896,,,,,,,,,,,,,,,,,,,,,,,,,,,,,,,,,,,,,,,,,,,,,,,,,,,,,,,,,,,,,,,,,,,,,,,,,,,,237.41831921099947,None,space,0.23486687599870493,237.41831921099947,None,237.72007922400007,None,f,1,0.709201726000174,237.72007922400007,None,238.45151679279843,None,None,238.45151679279843,None,,13,001,2021_Oct_06_1234,searchDisc4,2021.2.3,60.02422649728014,
images/exp1b_trial_29_colour3_distractors31_l.png,l,f,1b,29,3,31,,,,,0,36,36,266,,,,,,,,,,,,,,,,,,,,,,,,,,,,,,,,,,,,,,,,,,,,,,,,,,,,,,,,,,,,,,,,,,,,,,,,,,,,238.45081446199765,None,space,0.21840692499972647,238.45081446199765,None,238.7513851779986,None,f,1,0.9419827800011262,238.7513851779986,None,239.71804500079998,None,None,239.71804500079998,None,,13,001,2021_Oct_06_1234,searchDisc4,2021.2.3,60.02422649728014,
images/exp1b_trial_167_colour2_distractors9_r.png,r,j,1b,167,2,9,,,,,0,37,37,404,,,,,,,,,,,,,,,,,,,,,,,,,,,,,,,,,,,,,,,,,,,,,,,,,,,,,,,,,,,,,,,,,,,,,,,,,,,,239.7174942399979,None,space,0.2478000160008378,239.7174942399979,None,240.0372126330003,None,j,1,0.7521975170020596,240.0372126330003,None,240.81796314579879,None,None,240.81796314579879,None,,13,001,2021_Oct_06_1234,searchDisc4,2021.2.3,60.02422649728014,
images/exp2c_trial_64_colour1_distractors1_r.png,r,j,2c,64,1,1,,,,,0,38,38,877,,,,,,,,,,,,,,,,,,,,,,,,,,,,,,,,,,,,,,,,,,,,,,,,,,,,,,,,,,,,,,,,,,,,,,,,,,,,240.817660591998,None,space,0.1956898149983317,240.817660591998,None,241.08698765699955,None,j,1,0.6944766179985891,241.08698765699955,None,241.80155037179975,None,None,241.80155037179975,None,,13,001,2021_Oct_06_1234,searchDisc4,2021.2.3,60.02422649728014,
images/exp2c_trial_66_colour1_distractors9_r.png,r,j,2c,66,1,9,,,,,0,39,39,879,,,,,,,,,,,,,,,,,,,,,,,,,,,,,,,,,,,,,,,,,,,,,,,,,,,,,,,,,,,,,,,,,,,,,,,,,,,,241.8012289069993,None,space,0.2281909010016534,241.8012289069993,None,242.1035117169995,None,j,1,0.7259967120007786,242.1035117169995,None,242.85086157980004,None,None,242.85086157980004,None,,13,001,2021_Oct_06_1234,searchDisc4,2021.2.3,60.02422649728014,
images/exp1b_trial_161_colour1_distractors4_r.png,r,j,1b,161,1,4,,,,,0,40,40,398,,,,,,,,,,,,,,,,,,,,,,,,,,,,,,,,,,,,,,,,,,,,,,,,,,,,,,,,,,,,,,,,,,,,,,,,,,,,242.85140043099818,None,space,0.29804124200018123,242.85140043099818,None,243.22035197399964,None,j,1,0.7051797539970721,243.22035197399964,None,243.95121199479945,None,None,243.95121199479945,None,,13,001,2021_Oct_06_1234,searchDisc4,2021.2.3,60.02422649728014,
images/exp1b_trial_116_colour2_distractors1_l.png,l,f,1b,116,2,1,,,,,0,41,41,353,,,,,,,,,,,,,,,,,,,,,,,,,,,,,,,,,,,,,,,,,,,,,,,,,,,,,,,,,,,,,,,,,,,,,,,,,,,,243.95141426199916,None,space,0.2700560229968687,243.95141426199916,None,244.30352246199982,None,f,1,0.574144049998722,244.30352246199982,None,244.90130671780025,None,None,244.90130671780025,None,,13,001,2021_Oct_06_1234,searchDisc4,2021.2.3,60.02422649728014,
images/exp1a_trial_18_colour1_distractors19_l.png,l,f,1a,18,1,19,,,,,0,42,42,63,,,,,,,,,,,,,,,,,,,,,,,,,,,,,,,,,,,,,,,,,,,,,,,,,,,,,,,,,,,,,,,,,,,,,,,,,,,,244.90145806099827,None,space,0.28017803199691116,244.90145806099827,None,245.25388355799805,None,f,1,0.6157880450009543,245.25388355799805,None,245.90181935779947,None,None,245.90181935779947,None,,13,001,2021_Oct_06_1234,searchDisc4,2021.2.3,60.02422649728014,
images/exp1b_trial_41_colour2_distractors31_r.png,r,j,1b,41,2,31,,,,,0,43,43,278,,,,,,,,,,,,,,,,,,,,,,,,,,,,,,,,,,,,,,,,,,,,,,,,,,,,,,,,,,,,,,,,,,,,,,,,,,,,245.9016149809977,None,space,0.26405346100000315,245.9016149809977,None,246.2271748389976,None,j,1,0.8345834780011501,246.2271748389976,None,247.08511004979846,None,None,247.08511004979846,None,,13,001,2021_Oct_06_1234,searchDisc4,2021.2.3,60.02422649728014,
images/exp1a_trial_175_colour1_distractors1_l.png,l,f,1a,175,1,1,,,,,0,44,44,220,,,,,,,,,,,,,,,,,,,,,,,,,,,,,,,,,,,,,,,,,,,,,,,,,,,,,,,,,,,,,,,,,,,,,,,,,,,,247.08513430499806,None,space,0.21661354699972435,247.08513430499806,None,247.36011156200038,None,f,1,0.6056973820013809,247.36011156200038,None,247.98488436180014,None,None,247.98488436180014,None,,13,001,2021_Oct_06_1234,searchDisc4,2021.2.3,60.02422649728014,
images/exp1a_trial_10_colour3_distractors1_r.png,r,j,1a,10,3,1,,,,,0,45,45,55,,,,,,,,,,,,,,,,,,,,,,,,,,,,,,,,,,,,,,,,,,,,,,,,,,,,,,,,,,,,,,,,,,,,,,,,,,,,247.98479656899872,None,space,0.30089766300079646,247.98479656899872,None,248.3539147449992,None,j,1,0.5318526580012986,248.3539147449992,None,248.91845111580005,None,None,248.91845111580005,None,,13,001,2021_Oct_06_1234,searchDisc4,2021.2.3,60.02422649728014,
images/exp2b_trial_123_colour3_distractors9_l.png,l,f,2b,123,3,9,,,,,0,46,46,744,,,,,,,,,,,,,,,,,,,,,,,,,,,,,,,,,,,,,,,,,,,,,,,,,,,,,,,,,,,,,,,,,,,,,,,,,,,,248.91817468599766,None,space,0.28757630299878656,248.91817468599766,None,249.28750431200024,None,f,1,0.5343940700004168,249.28750431200024,None,249.85181018480034,None,None,249.85181018480034,None,,13,001,2021_Oct_06_1234,searchDisc4,2021.2.3,60.02422649728014,
images/exp2c_trial_116_colour2_distractors1_l.png,l,f,2c,116,2,1,,,,,0,47,47,929,,,,,,,,,,,,,,,,,,,,,,,,,,,,,,,,,,,,,,,,,,,,,,,,,,,,,,,,,,,,,,,,,,,,,,,,,,,,249.85126316999958,None,space,0.2744984709970595,249.85126316999958,None,250.20334671199817,None,f,1,0.506587613002921,250.20334671199817,None,250.73526813580065,None,None,250.73526813580065,None,,13,001,2021_Oct_06_1234,searchDisc4,2021.2.3,60.02422649728014,
images/exp1b_trial_174_colour3_distractors31_r.png,r,j,1b,174,3,31,,,,,0,48,48,411,,,,,,,,,,,,,,,,,,,,,,,,,,,,,,,,,,,,,,,,,,,,,,,,,,,,,,,,,,,,,,,,,,,,,,,,,,,,250.73452393700063,None,space,0.2873076289979508,250.73452393700063,None,251.10397669300073,None,j,1,3.838180165999802,251.10397669300073,None,254.96883705480104,None,None,254.96883705480104,None,,13,001,2021_Oct_06_1234,searchDisc4,2021.2.3,60.02422649728014,
images/exp2a_trial_79_colour1_distractors1_l.png,l,f,2a,79,1,1,,,,,0,49,49,508,,,,,,,,,,,,,,,,,,,,,,,,,,,,,,,,,,,,,,,,,,,,,,,,,,,,,,,,,,,,,,,,,,,,,,,,,,,,254.9681664130003,None,space,0.24582172200098285,254.9681664130003,None,255.28673999199964,None,f,1,0.5514358260006702,255.28673999199964,None,255.8686754038008,None,None,255.8686754038008,None,,13,001,2021_Oct_06_1234,searchDisc4,2021.2.3,60.02422649728014,
images/exp1b_trial_143_colour1_distractors1_l.png,l,f,1b,143,1,1,,,,,0,50,50,380,,,,,,,,,,,,,,,,,,,,,,,,,,,,,,,,,,,,,,,,,,,,,,,,,,,,,,,,,,,,,,,,,,,,,,,,,,,,255.86864626799797,None,space,0.2574064870022994,255.86864626799797,None,256.20418602000063,None,f,1,1.754098247998627,256.20418602000063,None,257.98543055380105,None,None,257.98543055380105,None,,13,001,2021_Oct_06_1234,searchDisc4,2021.2.3,60.02422649728014,
images/exp2a_trial_71_colour2_distractors9_r.png,r,j,2a,71,2,9,,,,,0,51,51,500,,,,,,,,,,,,,,,,,,,,,,,,,,,,,,,,,,,,,,,,,,,,,,,,,,,,,,,,,,,,,,,,,,,,,,,,,,,,257.9853899259979,None,space,0.2048297770015779,257.9853899259979,None,258.2702641600008,None,j,1,0.6799908069988305,258.2702641600008,None,258.9681209598002,None,None,258.9681209598002,None,,13,001,2021_Oct_06_1234,searchDisc4,2021.2.3,60.02422649728014,
images/exp1b_trial_160_colour1_distractors1_r.png,r,j,1b,160,1,1,,,,,0,52,52,397,,,,,,,,,,,,,,,,,,,,,,,,,,,,,,,,,,,,,,,,,,,,,,,,,,,,,,,,,,,,,,,,,,,,,,,,,,,,258.96849568700054,None,space,0.22176865999790607,258.96849568700054,None,259.26023774699934,None,j,1,0.9461284469980455,259.26023774699934,None,260.235503571801,None,None,260.235503571801,None,,13,001,2021_Oct_06_1234,searchDisc4,2021.2.3,60.02422649728014,
images/exp2a_trial_4_colour1_distractors31_r.png,r,j,2a,4,1,31,,,,,0,53,53,433,,,,,,,,,,,,,,,,,,,,,,,,,,,,,,,,,,,,,,,,,,,,,,,,,,,,,,,,,,,,,,,,,,,,,,,,,,,,260.2347850570004,None,space,0.21155279199956567,260.2347850570004,None,260.5212647059998,None,j,1,0.7491649279982084,260.5212647059998,None,261.3020636247984,None,None,261.3020636247984,None,,13,001,2021_Oct_06_1234,searchDisc4,2021.2.3,60.02422649728014,
images/exp2b_trial_105_colour2_distractors31_r.png,r,j,2b,105,2,31,,,,,0,54,54,726,,,,,,,,,,,,,,,,,,,,,,,,,,,,,,,,,,,,,,,,,,,,,,,,,,,,,,,,,,,,,,,,,,,,,,,,,,,,261.30221094999797,None,space,0.2561650620009459,261.30221094999797,None,261.6377317789993,None,j,1,0.7287942299990391,261.6377317789993,None,262.3855586287991,None,None,262.3855586287991,None,,13,001,2021_Oct_06_1234,searchDisc4,2021.2.3,60.02422649728014,
images/exp2b_trial_188_colour3_distractors19_l.png,l,f,2b,188,3,19,,,,,0,55,55,809,,,,,,,,,,,,,,,,,,,,,,,,,,,,,,,,,,,,,,,,,,,,,,,,,,,,,,,,,,,,,,,,,,,,,,,,,,,,262.3854827079995,None,space,0.20496160400216468,262.3854827079995,None,262.67140308799935,None,f,1,0.6231025050001335,262.67140308799935,None,263.3189685267989,None,None,263.3189685267989,None,,13,001,2021_Oct_06_1234,searchDisc4,2021.2.3,60.02422649728014,
images/exp2b_trial_96_colour1_distractors1_r.png,r,j,2b,96,1,1,,,,,0,56,56,717,,,,,,,,,,,,,,,,,,,,,,,,,,,,,,,,,,,,,,,,,,,,,,,,,,,,,,,,,,,,,,,,,,,,,,,,,,,,263.31834870199964,None,space,0.3121466390002752,263.31834870199964,None,263.69384382099815,None,j,1,0.576715865998267,263.69384382099815,None,264.3023199847976,None,None,264.3023199847976,None,,13,001,2021_Oct_06_1234,searchDisc4,2021.2.3,60.02422649728014,
images/exp2b_trial_48_colour1_distractors4_l.png,l,f,2b,48,1,4,,,,,0,57,57,669,,,,,,,,,,,,,,,,,,,,,,,,,,,,,,,,,,,,,,,,,,,,,,,,,,,,,,,,,,,,,,,,,,,,,,,,,,,,264.30245365299925,None,space,0.24008532200241461,264.30245365299925,None,264.62107074899905,None,f,1,0.6495372009994753,264.62107074899905,None,265.3022974247997,None,None,265.3022974247997,None,,13,001,2021_Oct_06_1234,searchDisc4,2021.2.3,60.02422649728014,
images/exp1b_trial_182_colour2_distractors9_l.png,l,f,1b,182,2,9,,,,,0,58,58,419,,,,,,,,,,,,,,,,,,,,,,,,,,,,,,,,,,,,,,,,,,,,,,,,,,,,,,,,,,,,,,,,,,,,,,,,,,,,265.30144485599885,None,space,0.29712832500081277,265.30144485599885,None,265.6591749090003,None,f,1,0.7075155759994232,265.6591749090003,None,266.3857848377975,None,None,266.3857848377975,None,,13,001,2021_Oct_06_1234,searchDisc4,2021.2.3,60.02422649728014,
images/exp2b_trial_26_colour3_distractors4_l.png,l,f,2b,26,3,4,,,,,0,59,59,647,,,,,,,,,,,,,,,,,,,,,,,,,,,,,,,,,,,,,,,,,,,,,,,,,,,,,,,,,,,,,,,,,,,,,,,,,,,,266.385680632,None,space,0.268847500999982,266.385680632,None,266.72611324399986,None,j,0,0.6645558970012644,266.72611324399986,None,267.4189703508,None,None,267.4189703508,None,,13,001,2021_Oct_06_1234,searchDisc4,2021.2.3,60.02422649728014,
images/exp2b_trial_91_colour3_distractors9_l.png,l,f,2b,91,3,9,,,,,0,60,60,712,,,,,,,,,,,,,,,,,,,,,,,,,,,,,,,,,,,,,,,,,,,,,,,,,,,,,,,,,,,,,,,,,,,,,,,,,,,,267.419058012998,None,space,0.4515796989981027,267.419058012998,None,267.9378971519982,None,f,1,0.668829177000589,267.9378971519982,None,268.6357206798002,None,None,268.6357206798002,None,,13,001,2021_Oct_06_1234,searchDisc4,2021.2.3,60.02422649728014,
images/exp1a_trial_183_colour2_distractors19_l.png,l,f,1a,183,2,19,,,,,0,61,61,228,,,,,,,,,,,,,,,,,,,,,,,,,,,,,,,,,,,,,,,,,,,,,,,,,,,,,,,,,,,,,,,,,,,,,,,,,,,,268.63575159099855,None,space,0.3069388180010719,268.63575159099855,None,269.0214595899997,None,f,1,0.6573184660010156,269.0214595899997,None,269.70246821379806,None,None,269.70246821379806,None,,13,001,2021_Oct_06_1234,searchDisc4,2021.2.3,60.02422649728014,
images/exp2b_trial_58_colour3_distractors4_l.png,l,f,2b,58,3,4,,,,,0,62,62,679,,,,,,,,,,,,,,,,,,,,,,,,,,,,,,,,,,,,,,,,,,,,,,,,,,,,,,,,,,,,,,,,,,,,,,,,,,,,269.7023460319979,None,space,0.28840299600051367,269.7023460319979,None,270.07083131699983,None,f,1,0.5520014459980302,270.07083131699983,None,270.65254778780036,None,None,270.65254778780036,None,,13,001,2021_Oct_06_1234,searchDisc4,2021.2.3,60.02422649728014,
images/exp1a_trial_7_colour2_distractors9_r.png,r,j,1a,7,2,9,,,,,0,63,63,52,,,,,,,,,,,,,,,,,,,,,,,,,,,,,,,,,,,,,,,,,,,,,,,,,,,,,,,,,,,,,,,,,,,,,,,,,,,,270.6524565889995,None,space,0.2583396099980746,270.6524565889995,None,270.98786025499794,None,j,1,0.6030019120007637,270.98786025499794,None,271.6191195648007,None,None,271.6191195648007,None,,13,001,2021_Oct_06_1234,searchDisc4,2021.2.3,60.02422649728014,
images/exp2c_trial_155_colour3_distractors9_l.png,l,f,2c,155,3,9,,,,,0,64,64,8,,,,,,,,,,,,,,,,,,,,,,,,,,,,,,,,,,,,,,,,,,,,,,,,,,,,,,,,,,,,,,,,,,,,,,,,,,,,271.6191455139997,None,space,0.24367477799751214,271.6191455139997,None,271.93798413499826,None,f,1,0.7569582789983542,271.93798413499826,None,272.7192524727998,None,None,272.7192524727998,None,,13,001,2021_Oct_06_1234,searchDisc4,2021.2.3,60.02422649728014,
images/exp1a_trial_96_colour1_distractors1_r.png,r,j,1a,96,1,1,,,,,0,65,65,141,,,,,,,,,,,,,,,,,,,,,,,,,,,,,,,,,,,,,,,,,,,,,,,,,,,,,,,,,,,,,,,,,,,,,,,,,,,,272.7192023159987,None,space,0.25569596600325895,272.7192023159987,None,273.0443807779993,None,j,1,0.5946081309994042,273.0443807779993,None,273.66929815180083,None,None,273.66929815180083,None,,13,001,2021_Oct_06_1234,searchDisc4,2021.2.3,60.02422649728014,
images/exp2b_trial_80_colour1_distractors4_l.png,l,f,2b,80,1,4,,,,,0,66,66,701,,,,,,,,,,,,,,,,,,,,,,,,,,,,,,,,,,,,,,,,,,,,,,,,,,,,,,,,,,,,,,,,,,,,,,,,,,,,273.668457011001,None,space,0.25845899500200176,273.668457011001,None,273.9943408100007,None,f,1,0.6206900870020036,273.9943408100007,None,274.63522665279925,None,None,274.63522665279925,None,,13,001,2021_Oct_06_1234,searchDisc4,2021.2.3,60.02422649728014,
images/exp2a_trial_95_colour0_distractors0_l.png,l,f,2a,95,0,0,,,,,0,67,67,524,,,,,,,,,,,,,,,,,,,,,,,,,,,,,,,,,,,,,,,,,,,,,,,,,,,,,,,,,,,,,,,,,,,,,,,,,,,,274.6352913269984,None,space,0.31568106100166915,274.6352913269984,None,275.01028472599864,None,f,1,0.5967902280026465,275.01028472599864,None,275.6359452478009,None,None,275.6359452478009,None,,13,001,2021_Oct_06_1234,searchDisc4,2021.2.3,60.02422649728014,
images/exp2a_trial_56_colour2_distractors31_l.png,l,f,2a,56,2,31,,,,,0,68,68,485,,,,,,,,,,,,,,,,,,,,,,,,,,,,,,,,,,,,,,,,,,,,,,,,,,,,,,,,,,,,,,,,,,,,,,,,,,,,275.63572708799984,None,space,0.2753029579980648,275.63572708799984,None,275.9881019249988,None,f,1,0.6030187879987352,275.9881019249988,None,276.61934724079947,None,None,276.61934724079947,None,,13,001,2021_Oct_06_1234,searchDisc4,2021.2.3,60.02422649728014,
images/exp2b_trial_178_colour1_distractors19_l.png,l,f,2b,178,1,19,,,,,0,69,69,799,,,,,,,,,,,,,,,,,,,,,,,,,,,,,,,,,,,,,,,,,,,,,,,,,,,,,,,,,,,,,,,,,,,,,,,,,,,,276.6191765399999,None,space,0.25990341899887426,276.6191765399999,None,276.9549436109992,None,f,1,0.5801542180015531,276.9549436109992,None,277.55259831479816,None,None,277.55259831479816,None,,13,001,2021_Oct_06_1234,searchDisc4,2021.2.3,60.02422649728014,
images/exp1b_trial_124_colour3_distractors19_l.png,l,f,1b,124,3,19,,,,,0,70,70,361,,,,,,,,,,,,,,,,,,,,,,,,,,,,,,,,,,,,,,,,,,,,,,,,,,,,,,,,,,,,,,,,,,,,,,,,,,,,277.55248890099756,None,space,0.278633218997129,277.55248890099756,None,277.90485678799814,None,f,1,1.0383091110015812,277.90485678799814,None,278.9690378867981,None,None,278.9690378867981,None,,13,001,2021_Oct_06_1234,searchDisc4,2021.2.3,60.02422649728014,
images/exp2c_trial_72_colour2_distractors19_r.png,r,j,2c,72,2,19,,,,,0,71,71,885,,,,,,,,,,,,,,,,,,,,,,,,,,,,,,,,,,,,,,,,,,,,,,,,,,,,,,,,,,,,,,,,,,,,,,,,,,,,278.96911667699896,None,space,0.1739871800018591,278.96911667699896,None,279.221565404001,None,j,1,0.617746679999982,279.221565404001,None,279.86937975579895,None,None,279.86937975579895,None,,13,001,2021_Oct_06_1234,searchDisc4,2021.2.3,60.02422649728014,
images/exp1b_trial_175_colour1_distractors1_l.png,l,f,1b,175,1,1,,,,,0,72,72,412,,,,,,,,,,,,,,,,,,,,,,,,,,,,,,,,,,,,,,,,,,,,,,,,,,,,,,,,,,,,,,,,,,,,,,,,,,,,279.86944309799946,None,space,0.1856992069988337,279.86944309799946,None,280.12509269099974,None,f,1,0.7462210600024264,280.12509269099974,None,280.9026440178004,None,None,280.9026440178004,None,,13,001,2021_Oct_06_1234,searchDisc4,2021.2.3,60.02422649728014,
images/exp1b_trial_140_colour3_distractors9_r.png,r,j,1b,140,3,9,,,,,0,73,73,377,,,,,,,,,,,,,,,,,,,,,,,,,,,,,,,,,,,,,,,,,,,,,,,,,,,,,,,,,,,,,,,,,,,,,,,,,,,,280.90196276799907,None,space,0.17730661200039322,280.90196276799907,None,281.1548030919985,None,j,1,1.3645343099997262,281.1548030919985,None,282.53601731280105,None,None,282.53601731280105,None,,13,001,2021_Oct_06_1234,searchDisc4,2021.2.3,60.02422649728014,
images/exp2a_trial_180_colour2_distractors1_l.png,l,f,2a,180,2,1,,,,,0,74,74,609,,,,,,,,,,,,,,,,,,,,,,,,,,,,,,,,,,,,,,,,,,,,,,,,,,,,,,,,,,,,,,,,,,,,,,,,,,,,282.5360338379978,None,space,0.17528976200264879,282.5360338379978,None,282.7883545779987,None,f,1,0.6110811460021068,282.7883545779987,None,283.4198041328,None,None,283.4198041328,None,,13,001,2021_Oct_06_1234,searchDisc4,2021.2.3,60.02422649728014,
images/exp2c_trial_170_colour3_distractors1_r.png,r,j,2c,170,3,1,,,,,0,75,75,23,,,,,,,,,,,,,,,,,,,,,,,,,,,,,,,,,,,,,,,,,,,,,,,,,,,,,,,,,,,,,,,,,,,,,,,,,,,,283.41881350399854,None,space,0.22857126300004893,283.41881350399854,None,283.71135967699956,None,j,1,0.6481302280008094,283.71135967699956,None,284.38610789479753,None,None,284.38610789479753,None,,13,001,2021_Oct_06_1234,searchDisc4,2021.2.3,60.02422649728014,
images/exp2c_trial_117_colour2_distractors4_l.png,l,f,2c,117,2,4,,,,,0,76,76,930,,,,,,,,,,,,,,,,,,,,,,,,,,,,,,,,,,,,,,,,,,,,,,,,,,,,,,,,,,,,,,,,,,,,,,,,,,,,284.386086464001,None,space,0.16532848900169483,284.386086464001,None,284.62173546600025,None,f,1,0.6417761080010678,284.62173546600025,None,285.2860815078002,None,None,285.2860815078002,None,,13,001,2021_Oct_06_1234,searchDisc4,2021.2.3,60.02422649728014,
images/exp2c_trial_142_colour3_distractors31_r.png,r,j,2c,142,3,31,,,,,0,77,77,955,,,,,,,,,,,,,,,,,,,,,,,,,,,,,,,,,,,,,,,,,,,,,,,,,,,,,,,,,,,,,,,,,,,,,,,,,,,,285.2861951800005,None,space,0.2572859840001911,285.2861951800005,None,285.62166822699874,None,j,1,0.6738997290012776,285.62166822699874,None,286.3191658677988,None,None,286.3191658677988,None,,13,001,2021_Oct_06_1234,searchDisc4,2021.2.3,60.02422649728014,
images/exp2c_trial_58_colour3_distractors4_l.png,l,f,2c,58,3,4,,,,,0,78,78,871,,,,,,,,,,,,,,,,,,,,,,,,,,,,,,,,,,,,,,,,,,,,,,,,,,,,,,,,,,,,,,,,,,,,,,,,,,,,286.3194850709988,None,space,0.1680231160025869,286.3194850709988,None,286.55322901399995,None,f,1,0.6303138100010983,286.55322901399995,None,287.20251164079855,None,None,287.20251164079855,None,,13,001,2021_Oct_06_1234,searchDisc4,2021.2.3,60.02422649728014,
images/exp2b_trial_15_colour1_distractors1_l.png,l,f,2b,15,1,1,,,,,0,79,79,636,,,,,,,,,,,,,,,,,,,,,,,,,,,,,,,,,,,,,,,,,,,,,,,,,,,,,,,,,,,,,,,,,,,,,,,,,,,,287.20295592899856,None,space,0.22052099400025327,287.20295592899856,None,287.5024890269997,None,f,1,0.6170498059982492,287.5024890269997,None,288.15260938379834,None,None,288.15260938379834,None,,13,001,2021_Oct_06_1234,searchDisc4,2021.2.3,60.02422649728014,
images/exp1a_trial_88_colour2_distractors31_l.png,l,f,1a,88,2,31,,,,,0,80,80,133,,,,,,,,,,,,,,,,,,,,,,,,,,,,,,,,,,,,,,,,,,,,,,,,,,,,,,,,,,,,,,,,,,,,,,,,,,,,288.15218122499937,None,space,0.22332319199995254,288.15218122499937,None,288.45588952400067,None,f,1,0.615724183000566,288.45588952400067,None,289.102669556798,None,None,289.102669556798,None,,13,001,2021_Oct_06_1234,searchDisc4,2021.2.3,60.02422649728014,
images/exp2c_trial_139_colour3_distractors4_r.png,r,j,2c,139,3,4,,,,,0,81,81,952,,,,,,,,,,,,,,,,,,,,,,,,,,,,,,,,,,,,,,,,,,,,,,,,,,,,,,,,,,,,,,,,,,,,,,,,,,,,289.1027501389981,None,space,0.24077786300040316,289.1027501389981,None,289.42097006900076,None,j,1,0.5627059689977614,289.42097006900076,None,290.00257113979933,None,None,290.00257113979933,None,,13,001,2021_Oct_06_1234,searchDisc4,2021.2.3,60.02422649728014,
images/exp1b_trial_179_colour1_distractors31_l.png,l,f,1b,179,1,31,,,,,0,82,82,416,,,,,,,,,,,,,,,,,,,,,,,,,,,,,,,,,,,,,,,,,,,,,,,,,,,,,,,,,,,,,,,,,,,,,,,,,,,,290.00277334099883,None,space,0.24483910799972364,290.00277334099883,None,290.321703556001,None,f,1,0.7500966099978541,290.321703556001,None,291.1030005247976,None,None,291.1030005247976,None,,13,001,2021_Oct_06_1234,searchDisc4,2021.2.3,60.02422649728014,
images/exp1a_trial_73_colour2_distractors31_r.png,r,j,1a,73,2,31,,,,,0,83,83,118,,,,,,,,,,,,,,,,,,,,,,,,,,,,,,,,,,,,,,,,,,,,,,,,,,,,,,,,,,,,,,,,,,,,,,,,,,,,291.102188533001,None,space,0.19356174300264684,291.102188533001,None,291.37198749899835,None,j,1,0.651869486002397,291.37198749899835,None,292.05287437379775,None,None,292.05287437379775,None,,13,001,2021_Oct_06_1234,searchDisc4,2021.2.3,60.02422649728014,
images/exp2a_trial_161_colour1_distractors4_r.png,r,j,2a,161,1,4,,,,,0,84,84,590,,,,,,,,,,,,,,,,,,,,,,,,,,,,,,,,,,,,,,,,,,,,,,,,,,,,,,,,,,,,,,,,,,,,,,,,,,,,292.05298199699973,None,space,0.18671855200227583,292.05298199699973,None,292.3216867480005,None,j,1,0.630190911997488,292.3216867480005,None,292.96949284979746,None,None,292.96949284979746,None,,13,001,2021_Oct_06_1234,searchDisc4,2021.2.3,60.02422649728014,
images/exp1b_trial_158_colour0_distractors0_r.png,r,j,1b,158,0,0,,,,,0,85,85,395,,,,,,,,,,,,,,,,,,,,,,,,,,,,,,,,,,,,,,,,,,,,,,,,,,,,,,,,,,,,,,,,,,,,,,,,,,,,292.96937448300014,None,space,0.20644438499948592,292.96937448300014,None,293.2551481999981,None,j,1,0.584740229001909,293.2551481999981,None,293.8698829547993,None,None,293.8698829547993,None,,13,001,2021_Oct_06_1234,searchDisc4,2021.2.3,60.02422649728014,
images/exp1a_trial_132_colour1_distractors31_r.png,r,j,1a,132,1,31,,,,,0,86,86,177,,,,,,,,,,,,,,,,,,,,,,,,,,,,,,,,,,,,,,,,,,,,,,,,,,,,,,,,,,,,,,,,,,,,,,,,,,,,293.86971288899804,None,space,0.22612454100089963,293.86971288899804,None,294.1716370110007,None,j,1,0.5962322689993016,294.1716370110007,None,294.78546041680056,None,None,294.78546041680056,None,,13,001,2021_Oct_06_1234,searchDisc4,2021.2.3,60.02422649728014,
images/exp2b_trial_102_colour2_distractors4_r.png,r,j,2b,102,2,4,,,,,0,87,87,723,,,,,,,,,,,,,,,,,,,,,,,,,,,,,,,,,,,,,,,,,,,,,,,,,,,,,,,,,,,,,,,,,,,,,,,,,,,,294.78636841700063,None,space,0.18951661699975375,294.78636841700063,None,295.0449983010003,None,j,1,0.6029947149982036,295.0449983010003,None,295.6693172758005,None,None,295.6693172758005,None,,13,001,2021_Oct_06_1234,searchDisc4,2021.2.3,60.02422649728014,
images/exp1a_trial_129_colour1_distractors4_r.png,r,j,1a,129,1,4,,,,,0,88,88,174,,,,,,,,,,,,,,,,,,,,,,,,,,,,,,,,,,,,,,,,,,,,,,,,,,,,,,,,,,,,,,,,,,,,,,,,,,,,295.6693723629978,None,space,0.19454495399986627,295.6693723629978,None,295.9386330289999,None,j,1,0.5733731109976361,295.9386330289999,None,296.536062699799,None,None,296.536062699799,None,,13,001,2021_Oct_06_1234,searchDisc4,2021.2.3,60.02422649728014,
images/exp1a_trial_87_colour2_distractors19_l.png,l,f,1a,87,2,19,,,,,0,89,89,132,,,,,,,,,,,,,,,,,,,,,,,,,,,,,,,,,,,,,,,,,,,,,,,,,,,,,,,,,,,,,,,,,,,,,,,,,,,,296.53620208600114,None,space,0.231712142998731,296.53620208600114,None,296.83870741099963,None,f,1,0.5933482569998887,296.83870741099963,None,297.45342630080086,None,None,297.45342630080086,None,,13,001,2021_Oct_06_1234,searchDisc4,2021.2.3,60.02422649728014,
images/exp1a_trial_99_colour1_distractors19_r.png,r,j,1a,99,1,19,,,,,0,90,90,144,,,,,,,,,,,,,,,,,,,,,,,,,,,,,,,,,,,,,,,,,,,,,,,,,,,,,,,,,,,,,,,,,,,,,,,,,,,,297.4531933699982,None,space,0.27482602699819836,297.4531933699982,None,297.805559714001,None,j,1,0.5065884399991774,297.805559714001,None,298.33614491479784,None,None,298.33614491479784,None,,13,001,2021_Oct_06_1234,searchDisc4,2021.2.3,60.02422649728014,
images/exp2a_trial_58_colour3_distractors4_l.png,l,f,2a,58,3,4,,,,,0,91,91,487,,,,,,,,,,,,,,,,,,,,,,,,,,,,,,,,,,,,,,,,,,,,,,,,,,,,,,,,,,,,,,,,,,,,,,,,,,,,298.33645360099763,None,space,0.2716104869978153,298.33645360099763,None,298.6886176299995,None,f,1,0.5195244820024527,298.6886176299995,None,299.23634872279763,None,None,299.23634872279763,None,,13,001,2021_Oct_06_1234,searchDisc4,2021.2.3,60.02422649728014,
images/exp2a_trial_3_colour1_distractors19_r.png,r,j,2a,3,1,19,,,,,0,92,92,432,,,,,,,,,,,,,,,,,,,,,,,,,,,,,,,,,,,,,,,,,,,,,,,,,,,,,,,,,,,,,,,,,,,,,,,,,,,,299.23634061899793,None,space,0.2837129350009491,299.23634061899793,None,299.5867131749983,None,j,1,0.581413176998467,299.5867131749983,None,300.18582212579895,None,None,300.18582212579895,None,,13,001,2021_Oct_06_1234,searchDisc4,2021.2.3,60.02422649728014,
images/exp2a_trial_189_colour3_distractors31_l.png,l,f,2a,189,3,31,,,,,0,93,93,618,,,,,,,,,,,,,,,,,,,,,,,,,,,,,,,,,,,,,,,,,,,,,,,,,,,,,,,,,,,,,,,,,,,,,,,,,,,,300.18635898700086,None,space,0.22973131199978525,300.18635898700086,None,300.48895016000097,None,f,1,0.7273015389982902,300.48895016000097,None,301.23643695579995,None,None,301.23643695579995,None,,13,001,2021_Oct_06_1234,searchDisc4,2021.2.3,60.02422649728014,
images/exp1b_trial_123_colour3_distractors9_l.png,l,f,1b,123,3,9,,,,,0,94,94,360,,,,,,,,,,,,,,,,,,,,,,,,,,,,,,,,,,,,,,,,,,,,,,,,,,,,,,,,,,,,,,,,,,,,,,,,,,,,301.23622817999785,None,space,0.2519801880007435,301.23622817999785,None,301.5551578150007,None,f,1,1.2771573110003374,301.5551578150007,None,302.8527636298004,None,None,302.8527636298004,None,,13,001,2021_Oct_06_1234,searchDisc4,2021.2.3,60.02422649728014,
images/exp2b_trial_87_colour2_distractors19_l.png,l,f,2b,87,2,19,,,,,0,95,95,708,,,,,,,,,,,,,,,,,,,,,,,,,,,,,,,,,,,,,,,,,,,,,,,,,,,,,,,,,,,,,,,,,,,,,,,,,,,,302.8528023559993,None,space,0.25146622200190905,302.8528023559993,None,303.1720620339984,None,f,1,0.6763090200001898,303.1720620339984,None,303.8696635758006,None,None,303.8696635758006,None,,13,001,2021_Oct_06_1234,searchDisc4,2021.2.3,60.02422649728014,
images/exp2c_trial_79_colour1_distractors1_l.png,l,f,2c,79,1,1,,,,,0,96,96,892,,,,,,,,,,,,,,,,,,,,,,,,,,,,,,,,,,,,,,,,,,,,,,,,,,,,,,,,,,,,,,,,,,,,,,,,,,,,303.86945940499936,None,space,0.29087137000169605,303.86945940499936,None,304.227965621998,None,f,1,0.5804515179988812,304.227965621998,None,304.83665742779885,None,None,304.83665742779885,None,,13,001,2021_Oct_06_1234,searchDisc4,2021.2.3,60.02422649728014,
images/exp1a_trial_66_colour1_distractors9_r.png,r,j,1a,66,1,9,,,,,0,97,97,111,,,,,,,,,,,,,,,,,,,,,,,,,,,,,,,,,,,,,,,,,,,,,,,,,,,,,,,,,,,,,,,,,,,,,,,,,,,,304.8365805129979,None,space,0.2757851650021621,304.8365805129979,None,305.18891928899757,None,j,1,0.5555430360000173,305.18891928899757,None,305.76995026979966,None,None,305.76995026979966,None,,13,001,2021_Oct_06_1234,searchDisc4,2021.2.3,60.02422649728014,
images/exp2c_trial_73_colour2_distractors31_r.png,r,j,2c,73,2,31,,,,,0,98,98,886,,,,,,,,,,,,,,,,,,,,,,,,,,,,,,,,,,,,,,,,,,,,,,,,,,,,,,,,,,,,,,,,,,,,,,,,,,,,305.76941687900035,None,space,0.2229928349988768,305.76941687900035,None,306.07246921800106,None,j,1,0.8080338529980509,306.07246921800106,None,306.90281054279876,None,None,306.90281054279876,None,,13,001,2021_Oct_06_1234,searchDisc4,2021.2.3,60.02422649728014,
images/exp2c_trial_107_colour3_distractors4_r.png,r,j,2c,107,3,4,,,,,0,99,99,920,,,,,,,,,,,,,,,,,,,,,,,,,,,,,,,,,,,,,,,,,,,,,,,,,,,,,,,,,,,,,,,,,,,,,,,,,,,,306.9036323569999,None,space,0.21675011699699098,306.9036323569999,None,307.1868961209984,None,j,1,0.5737110000009125,307.1868961209984,None,307.7865003768002,None,None,307.7865003768002,None,,13,001,2021_Oct_06_1234,searchDisc4,2021.2.3,60.02422649728014,
images/exp1a_trial_71_colour2_distractors9_r.png,r,j,1a,71,2,9,,,,,0,100,100,116,,,,,,,,,,,,,,,,,,,,,,,,,,,,,,,,,,,,,,,,,,,,,,,,,,,,,,,,,,,,,,,,,,,,,,,,,,,,307.7866623689988,None,space,0.21383586099909735,307.7866623689988,None,308.0723308659981,None,j,1,0.5282479510024132,308.0723308659981,None,308.6196644967986,None,None,308.6196644967986,None,,13,001,2021_Oct_06_1234,searchDisc4,2021.2.3,60.02422649728014,
images/exp2b_trial_94_colour0_distractors0_r.png,r,j,2b,94,0,0,,,,,0,101,101,715,,,,,,,,,,,,,,,,,,,,,,,,,,,,,,,,,,,,,,,,,,,,,,,,,,,,,,,,,,,,,,,,,,,,,,,,,,,,308.6197208429985,None,space,0.23672375900059706,308.6197208429985,None,308.92806464000023,None,j,1,0.5924799330023234,308.92806464000023,None,309.55340373279796,None,None,309.55340373279796,None,,13,001,2021_Oct_06_1234,searchDisc4,2021.2.3,60.02422649728014,
images/exp1a_trial_111_colour1_distractors1_l.png,l,f,1a,111,1,1,,,,,0,102,102,156,,,,,,,,,,,,,,,,,,,,,,,,,,,,,,,,,,,,,,,,,,,,,,,,,,,,,,,,,,,,,,,,,,,,,,,,,,,,309.553022469001,None,space,0.22358935800002655,309.553022469001,None,309.84550230699824,None,f,1,0.5551776440006506,309.84550230699824,None,310.4198436597999,None,None,310.4198436597999,None,,13,001,2021_Oct_06_1234,searchDisc4,2021.2.3,60.02422649728014,
images/exp2b_trial_150_colour2_distractors9_l.png,l,f,2b,150,2,9,,,,,0,103,103,771,,,,,,,,,,,,,,,,,,,,,,,,,,,,,,,,,,,,,,,,,,,,,,,,,,,,,,,,,,,,,,,,,,,,,,,,,,,,310.4200175529986,None,space,0.23652594400118687,310.4200175529986,None,310.73869096499766,None,f,1,0.5659588859998621,310.73869096499766,None,311.33677441680084,None,None,311.33677441680084,None,,13,001,2021_Oct_06_1234,searchDisc4,2021.2.3,60.02422649728014,
images/exp2a_trial_92_colour3_distractors19_l.png,l,f,2a,92,3,19,,,,,0,104,104,521,,,,,,,,,,,,,,,,,,,,,,,,,,,,,,,,,,,,,,,,,,,,,,,,,,,,,,,,,,,,,,,,,,,,,,,,,,,,311.3368378899977,None,space,0.23982914899897878,311.3368378899977,None,311.6557540369977,None,f,1,0.5290254300016386,311.6557540369977,None,312.2027542388005,None,None,312.2027542388005,None,,13,001,2021_Oct_06_1234,searchDisc4,2021.2.3,60.02422649728014,
images/exp2c_trial_52_colour2_distractors1_l.png,l,f,2c,52,2,1,,,,,0,105,105,865,,,,,,,,,,,,,,,,,,,,,,,,,,,,,,,,,,,,,,,,,,,,,,,,,,,,,,,,,,,,,,,,,,,,,,,,,,,,312.20355401399866,None,space,0.2771591669988993,312.20355401399866,None,312.54538351799783,None,f,1,0.503414785998757,312.54538351799783,None,313.070047703799,None,None,313.070047703799,None,,13,001,2021_Oct_06_1234,searchDisc4,2021.2.3,60.02422649728014,
images/exp2a_trial_150_colour2_distractors9_l.png,l,f,2a,150,2,9,,,,,0,106,106,579,,,,,,,,,,,,,,,,,,,,,,,,,,,,,,,,,,,,,,,,,,,,,,,,,,,,,,,,,,,,,,,,,,,,,,,,,,,,313.07015537799816,None,space,0.28253436099839746,313.07015537799816,None,313.42243174100076,None,f,1,0.4744071579989395,313.42243174100076,None,313.920199484799,None,None,313.920199484799,None,,13,001,2021_Oct_06_1234,searchDisc4,2021.2.3,60.02422649728014,
images/exp2a_trial_168_colour2_distractors19_r.png,r,j,2a,168,2,19,,,,,0,107,107,597,,,,,,,,,,,,,,,,,,,,,,,,,,,,,,,,,,,,,,,,,,,,,,,,,,,,,,,,,,,,,,,,,,,,,,,,,,,,313.9194534620001,None,space,0.24933534400042845,313.9194534620001,None,314.23922971799766,None,j,1,0.48155358800067916,314.23922971799766,None,314.7535150948006,None,None,314.7535150948006,None,,13,001,2021_Oct_06_1234,searchDisc4,2021.2.3,60.02422649728014,
images/exp2a_trial_132_colour1_distractors31_r.png,r,j,2a,132,1,31,,,,,0,108,108,561,,,,,,,,,,,,,,,,,,,,,,,,,,,,,,,,,,,,,,,,,,,,,,,,,,,,,,,,,,,,,,,,,,,,,,,,,,,,314.7535370459991,None,space,0.1912916530018265,314.7535370459991,None,315.02240755299863,None,j,1,0.6265102550023585,315.02240755299863,None,315.6703668457976,None,None,315.6703668457976,None,,13,001,2021_Oct_06_1234,searchDisc4,2021.2.3,60.02422649728014,
images/exp1a_trial_147_colour1_distractors31_l.png,l,f,1a,147,1,31,,,,,0,109,109,192,,,,,,,,,,,,,,,,,,,,,,,,,,,,,,,,,,,,,,,,,,,,,,,,,,,,,,,,,,,,,,,,,,,,,,,,,,,,315.67055645599976,None,space,0.21030352800153196,315.67055645599976,None,315.9560584659994,None,f,1,0.5009091059982893,315.9560584659994,None,316.4869186367996,None,None,316.4869186367996,None,,13,001,2021_Oct_06_1234,searchDisc4,2021.2.3,60.02422649728014,
images/exp1a_trial_162_colour1_distractors9_r.png,r,j,1a,162,1,9,,,,,0,110,110,207,,,,,,,,,,,,,,,,,,,,,,,,,,,,,,,,,,,,,,,,,,,,,,,,,,,,,,,,,,,,,,,,,,,,,,,,,,,,316.4869037839999,None,space,0.22599725400141324,316.4869037839999,None,316.78922309300106,None,j,1,0.4677555800008122,316.78922309300106,None,317.2868928937987,None,None,317.2868928937987,None,,13,001,2021_Oct_06_1234,searchDisc4,2021.2.3,60.02422649728014,
images/exp1a_trial_42_colour3_distractors1_r.png,r,j,1a,42,3,1,,,,,0,111,111,87,,,,,,,,,,,,,,,,,,,,,,,,,,,,,,,,,,,,,,,,,,,,,,,,,,,,,,,,,,,,,,,,,,,,,,,,,,,,317.28680772000007,None,space,0.2500627250010439,317.28680772000007,None,317.5936391719988,None,j,1,0.543351961998269,317.5936391719988,None,318.15370411779986,None,None,318.15370411779986,None,,13,001,2021_Oct_06_1234,searchDisc4,2021.2.3,60.02422649728014,
images/exp2a_trial_104_colour2_distractors19_r.png,r,j,2a,104,2,19,,,,,0,112,112,533,,,,,,,,,,,,,,,,,,,,,,,,,,,,,,,,,,,,,,,,,,,,,,,,,,,,,,,,,,,,,,,,,,,,,,,,,,,,318.1536557569998,None,space,0.23933400600071764,318.1536557569998,None,318.47250455099856,None,j,1,0.5205785550024302,318.47250455099856,None,319.0205125577977,None,None,319.0205125577977,None,,13,001,2021_Oct_06_1234,searchDisc4,2021.2.3,60.02422649728014,
images/exp1a_trial_176_colour1_distractors4_l.png,l,f,1a,176,1,4,,,,,0,113,113,221,,,,,,,,,,,,,,,,,,,,,,,,,,,,,,,,,,,,,,,,,,,,,,,,,,,,,,,,,,,,,,,,,,,,,,,,,,,,319.0200183659981,None,space,0.20498758599933353,319.0200183659981,None,319.3059048219984,None,j,0,0.567206099996838,319.3059048219984,None,319.90368973780096,None,None,319.90368973780096,None,,13,001,2021_Oct_06_1234,searchDisc4,2021.2.3,60.02422649728014,
images/exp1a_trial_116_colour2_distractors1_l.png,l,f,1a,116,2,1,,,,,0,114,114,161,,,,,,,,,,,,,,,,,,,,,,,,,,,,,,,,,,,,,,,,,,,,,,,,,,,,,,,,,,,,,,,,,,,,,,,,,,,,319.903929696,None,space,0.25695555599668296,319.903929696,None,320.22839505799857,None,f,1,0.5887905470008263,320.22839505799857,None,320.8373612007981,None,None,320.8373612007981,None,,13,001,2021_Oct_06_1234,searchDisc4,2021.2.3,60.02422649728014,
images/exp1b_trial_46_colour3_distractors31_r.png,r,j,1b,46,3,31,,,,,0,115,115,283,,,,,,,,,,,,,,,,,,,,,,,,,,,,,,,,,,,,,,,,,,,,,,,,,,,,,,,,,,,,,,,,,,,,,,,,,,,,320.8363336939983,None,space,0.24474151600225014,320.8363336939983,None,321.1559672660005,None,j,1,2.181231580001622,321.1559672660005,None,323.35390089979956,None,None,323.35390089979956,None,,13,001,2021_Oct_06_1234,searchDisc4,2021.2.3,60.02422649728014,
images/exp2a_trial_140_colour3_distractors9_r.png,r,j,2a,140,3,9,,,,,0,116,116,569,,,,,,,,,,,,,,,,,,,,,,,,,,,,,,,,,,,,,,,,,,,,,,,,,,,,,,,,,,,,,,,,,,,,,,,,,,,,323.35417902599875,None,space,0.1029333329970541,323.35417902599875,None,323.53961595099827,None,j,1,0.6376862240031187,323.53961595099827,None,324.2031269948002,None,None,324.2031269948002,None,,13,001,2021_Oct_06_1234,searchDisc4,2021.2.3,60.02422649728014,
images/exp2c_trial_24_colour2_distractors31_l.png,l,f,2c,24,2,31,,,,,0,117,117,837,,,,,,,,,,,,,,,,,,,,,,,,,,,,,,,,,,,,,,,,,,,,,,,,,,,,,,,,,,,,,,,,,,,,,,,,,,,,324.20344025899976,None,space,0.14178888600145,324.20344025899976,None,324.4228297749978,None,f,1,0.514426308000111,324.4228297749978,None,324.95400870379854,None,None,324.95400870379854,None,,13,001,2021_Oct_06_1234,searchDisc4,2021.2.3,60.02422649728014,
images/exp1a_trial_19_colour1_distractors31_l.png,l,f,1a,19,1,31,,,,,0,118,118,64,,,,,,,,,,,,,,,,,,,,,,,,,,,,,,,,,,,,,,,,,,,,,,,,,,,,,,,,,,,,,,,,,,,,,,,,,,,,324.95310912399873,None,space,0.26424838199818623,324.95310912399873,None,325.28932009599885,None,f,1,0.680057712001144,325.28932009599885,None,325.98711044779884,None,None,325.98711044779884,None,,13,001,2021_Oct_06_1234,searchDisc4,2021.2.3,60.02422649728014,
images/exp2b_trial_39_colour2_distractors9_r.png,r,j,2b,39,2,9,,,,,0,119,119,660,,,,,,,,,,,,,,,,,,,,,,,,,,,,,,,,,,,,,,,,,,,,,,,,,,,,,,,,,,,,,,,,,,,,,,,,,,,,325.98711447000096,None,space,0.19021554100254434,325.98711447000096,None,326.2453256759982,None,j,1,0.6120863840005768,326.2453256759982,None,326.8866275599976,None,space,326.8866275599976,None,0.20278834700002335,13,001,2021_Oct_06_1234,searchDisc4,2021.2.3,60.02422649728014,
images/exp2a_trial_183_colour2_distractors19_l.png,l,f,2a,183,2,19,,,,,0,120,120,612,,,,,,,,,,,,,,,,,,,,,,,,,,,,,,,,,,,,,,,,,,,,,,,,,,,,,,,,,,,,,,,,,,,,,,,,,,,,327.1057619179992,None,space,1.151627784998709,327.1057619179992,None,328.3395156410006,None,f,1,0.5500137990020448,328.3395156410006,None,328.9206704797998,None,None,328.9206704797998,None,,13,001,2021_Oct_06_1234,searchDisc4,2021.2.3,60.02422649728014,
images/exp2a_trial_64_colour1_distractors1_r.png,r,j,2a,64,1,1,,,,,0,121,121,493,,,,,,,,,,,,,,,,,,,,,,,,,,,,,,,,,,,,,,,,,,,,,,,,,,,,,,,,,,,,,,,,,,,,,,,,,,,,328.91995756300093,None,space,0.24951920500097913,328.91995756300093,None,329.2266266439983,None,j,1,0.6068608490022598,329.2266266439983,None,329.85367487479925,None,None,329.85367487479925,None,,13,001,2021_Oct_06_1234,searchDisc4,2021.2.3,60.02422649728014,
images/exp2c_trial_25_colour3_distractors1_l.png,l,f,2c,25,3,1,,,,,0,122,122,838,,,,,,,,,,,,,,,,,,,,,,,,,,,,,,,,,,,,,,,,,,,,,,,,,,,,,,,,,,,,,,,,,,,,,,,,,,,,329.8541230039991,None,space,0.20331295100186253,329.8541230039991,None,330.12844405599753,None,f,1,0.5770927000012307,330.12844405599753,None,330.73778023379964,None,None,330.73778023379964,None,,13,001,2021_Oct_06_1234,searchDisc4,2021.2.3,60.02422649728014,
images/exp1b_trial_170_colour3_distractors1_r.png,r,j,1b,170,3,1,,,,,0,123,123,407,,,,,,,,,,,,,,,,,,,,,,,,,,,,,,,,,,,,,,,,,,,,,,,,,,,,,,,,,,,,,,,,,,,,,,,,,,,,330.7376250119996,None,space,0.21579853600269416,330.7376250119996,None,331.0229139010007,None,j,1,0.7227216899991618,331.0229139010007,None,331.7702978887992,None,None,331.7702978887992,None,,13,001,2021_Oct_06_1234,searchDisc4,2021.2.3,60.02422649728014,
images/exp2a_trial_90_colour3_distractors4_l.png,l,f,2a,90,3,4,,,,,0,124,124,519,,,,,,,,,,,,,,,,,,,,,,,,,,,,,,,,,,,,,,,,,,,,,,,,,,,,,,,,,,,,,,,,,,,,,,,,,,,,331.7703295329993,None,space,0.15128821799953585,331.7703295329993,None,331.9896604690002,None,f,1,0.6279425020002236,331.9896604690002,None,332.63776926279934,None,None,332.63776926279934,None,,13,001,2021_Oct_06_1234,searchDisc4,2021.2.3,60.02422649728014,
images/exp1b_trial_139_colour3_distractors4_r.png,r,j,1b,139,3,4,,,,,0,125,125,376,,,,,,,,,,,,,,,,,,,,,,,,,,,,,,,,,,,,,,,,,,,,,,,,,,,,,,,,,,,,,,,,,,,,,,,,,,,,332.6379932339987,None,space,0.23555398699681973,332.6379932339987,None,332.95654618999833,None,j,1,1.0372131149997585,332.95654618999833,None,334.0207216807994,None,None,334.0207216807994,None,,13,001,2021_Oct_06_1234,searchDisc4,2021.2.3,60.02422649728014,
images/exp1a_trial_187_colour3_distractors9_l.png,l,f,1a,187,3,9,,,,,0,126,126,232,,,,,,,,,,,,,,,,,,,,,,,,,,,,,,,,,,,,,,,,,,,,,,,,,,,,,,,,,,,,,,,,,,,,,,,,,,,,334.02053336099925,None,space,0.16514836799979093,334.02053336099925,None,334.2563651349992,None,f,1,0.5934248280027532,334.2563651349992,None,334.871017838801,None,None,334.871017838801,None,,13,001,2021_Oct_06_1234,searchDisc4,2021.2.3,60.02422649728014,
images/exp2c_trial_29_colour3_distractors31_l.png,l,f,2c,29,3,31,,,,,0,127,127,842,,,,,,,,,,,,,,,,,,,,,,,,,,,,,,,,,,,,,,,,,,,,,,,,,,,,,,,,,,,,,,,,,,,,,,,,,,,,334.87106133199995,None,space,0.2506032300007064,334.87106133199995,None,335.2042913990008,None,f,1,0.6375474309970741,335.2042913990008,None,335.8709747308003,None,None,335.8709747308003,None,,13,001,2021_Oct_06_1234,searchDisc4,2021.2.3,60.02422649728014,
images/exp1a_trial_41_colour2_distractors31_r.png,r,j,1a,41,2,31,,,,,0,128,128,86,,,,,,,,,,,,,,,,,,,,,,,,,,,,,,,,,,,,,,,,,,,,,,,,,,,,,,,,,,,,,,,,,,,,,,,,,,,,335.8709070879995,None,space,0.1548874939981033,335.8709070879995,None,336.1062372359993,None,j,1,0.5356389230000786,336.1062372359993,None,336.6709137777998,None,None,336.6709137777998,None,,13,001,2021_Oct_06_1234,searchDisc4,2021.2.3,60.02422649728014,
images/exp1a_trial_141_colour3_distractors19_r.png,r,j,1a,141,3,19,,,,,0,129,129,186,,,,,,,,,,,,,,,,,,,,,,,,,,,,,,,,,,,,,,,,,,,,,,,,,,,,,,,,,,,,,,,,,,,,,,,,,,,,336.67093554299936,None,space,0.21090404899950954,336.67093554299936,None,336.95656537899777,None,j,1,0.5253494440003124,336.95656537899777,None,337.5042410818005,None,None,337.5042410818005,None,,13,001,2021_Oct_06_1234,searchDisc4,2021.2.3,60.02422649728014,
images/exp2a_trial_52_colour2_distractors1_l.png,l,f,2a,52,2,1,,,,,0,130,130,481,,,,,,,,,,,,,,,,,,,,,,,,,,,,,,,,,,,,,,,,,,,,,,,,,,,,,,,,,,,,,,,,,,,,,,,,,,,,337.504288731001,None,space,0.20956520400068257,337.504288731001,None,337.7898187739993,None,f,1,0.4841426610000781,337.7898187739993,None,338.304318649798,None,None,338.304318649798,None,,13,001,2021_Oct_06_1234,searchDisc4,2021.2.3,60.02422649728014,
images/exp2b_trial_135_colour2_distractors9_r.png,r,j,2b,135,2,9,,,,,0,131,131,756,,,,,,,,,,,,,,,,,,,,,,,,,,,,,,,,,,,,,,,,,,,,,,,,,,,,,,,,,,,,,,,,,,,,,,,,,,,,338.30431210999814,None,space,0.19359923400043044,338.30431210999814,None,338.56232397299755,None,j,1,0.48768087699863827,338.56232397299755,None,339.0702611937977,None,None,339.0702611937977,None,,13,001,2021_Oct_06_1234,searchDisc4,2021.2.3,60.02422649728014,
images/exp2b_trial_157_colour3_distractors31_l.png,l,f,2b,157,3,31,,,,,0,132,132,778,,,,,,,,,,,,,,,,,,,,,,,,,,,,,,,,,,,,,,,,,,,,,,,,,,,,,,,,,,,,,,,,,,,,,,,,,,,,339.0706717770008,None,space,0.21128535499883583,339.0706717770008,None,339.3564015739976,None,f,1,0.5655382500008272,339.3564015739976,None,339.9541923987981,None,None,339.9541923987981,None,,13,001,2021_Oct_06_1234,searchDisc4,2021.2.3,60.02422649728014,
images/exp1a_trial_55_colour2_distractors19_l.png,l,f,1a,55,2,19,,,,,0,133,133,100,,,,,,,,,,,,,,,,,,,,,,,,,,,,,,,,,,,,,,,,,,,,,,,,,,,,,,,,,,,,,,,,,,,,,,,,,,,,339.95429885499834,None,space,0.16769643600127893,339.95429885499834,None,340.19008863499766,None,f,1,0.579959194001276,340.19008863499766,None,340.7876321577987,None,None,340.7876321577987,None,,13,001,2021_Oct_06_1234,searchDisc4,2021.2.3,60.02422649728014,
images/exp2c_trial_126_colour0_distractors0_r.png,r,j,2c,126,0,0,,,,,0,134,134,939,,,,,,,,,,,,,,,,,,,,,,,,,,,,,,,,,,,,,,,,,,,,,,,,,,,,,,,,,,,,,,,,,,,,,,,,,,,,340.7876113700004,None,space,0.1584090849974018,340.7876113700004,None,341.0231527549986,None,j,1,0.5229436760018871,341.0231527549986,None,341.5708589267979,None,None,341.5708589267979,None,,13,001,2021_Oct_06_1234,searchDisc4,2021.2.3,60.02422649728014,
images/exp2a_trial_188_colour3_distractors19_l.png,l,f,2a,188,3,19,,,,,0,135,135,617,,,,,,,,,,,,,,,,,,,,,,,,,,,,,,,,,,,,,,,,,,,,,,,,,,,,,,,,,,,,,,,,,,,,,,,,,,,,341.57100081799945,None,space,0.1910422330001893,341.57100081799945,None,341.8398904349997,None,f,1,0.6022550560010131,341.8398904349997,None,342.47122797279917,None,None,342.47122797279917,None,,13,001,2021_Oct_06_1234,searchDisc4,2021.2.3,60.02422649728014,
images/exp2b_trial_187_colour3_distractors9_l.png,l,f,2b,187,3,9,,,,,0,136,136,808,,,,,,,,,,,,,,,,,,,,,,,,,,,,,,,,,,,,,,,,,,,,,,,,,,,,,,,,,,,,,,,,,,,,,,,,,,,,342.4710806869989,None,space,0.14701990699904854,342.4710806869989,None,342.6899140690002,None,j,0,0.5282636520023516,342.6899140690002,None,343.2373372938,None,None,343.2373372938,None,,13,001,2021_Oct_06_1234,searchDisc4,2021.2.3,60.02422649728014,
images/exp2c_trial_150_colour2_distractors9_l.png,l,f,2c,150,2,9,,,,,0,137,137,3,,,,,,,,,,,,,,,,,,,,,,,,,,,,,,,,,,,,,,,,,,,,,,,,,,,,,,,,,,,,,,,,,,,,,,,,,,,,343.23723387599966,None,space,0.3488992029997462,343.23723387599966,None,343.65647077799804,None,f,1,0.6497642319991428,343.65647077799804,None,344.3377525187989,None,None,344.3377525187989,None,,13,001,2021_Oct_06_1234,searchDisc4,2021.2.3,60.02422649728014,
images/exp2b_trial_191_colour0_distractors0_l.png,l,f,2b,191,0,0,,,,,0,138,138,812,,,,,,,,,,,,,,,,,,,,,,,,,,,,,,,,,,,,,,,,,,,,,,,,,,,,,,,,,,,,,,,,,,,,,,,,,,,,344.3371760959999,None,space,0.16900743299993337,344.3371760959999,None,344.5629834600004,None,f,1,0.5032818090003275,344.5629834600004,None,345.0877377468005,None,None,345.0877377468005,None,,13,001,2021_Oct_06_1234,searchDisc4,2021.2.3,60.02422649728014,
images/exp2a_trial_24_colour2_distractors31_l.png,l,f,2a,24,2,31,,,,,0,139,139,453,,,,,,,,,,,,,,,,,,,,,,,,,,,,,,,,,,,,,,,,,,,,,,,,,,,,,,,,,,,,,,,,,,,,,,,,,,,,345.0879933260003,None,space,0.21021631600160617,345.0879933260003,None,345.3732307379978,None,f,1,0.6370711589988787,345.3732307379978,None,346.03777303080096,None,None,346.03777303080096,None,,13,001,2021_Oct_06_1234,searchDisc4,2021.2.3,60.02422649728014,
images/exp2a_trial_153_colour3_distractors1_l.png,l,f,2a,153,3,1,,,,,0,140,140,582,,,,,,,,,,,,,,,,,,,,,,,,,,,,,,,,,,,,,,,,,,,,,,,,,,,,,,,,,,,,,,,,,,,,,,,,,,,,346.0378256080003,None,space,0.14840594199995394,346.0378256080003,None,346.2379328329989,None,f,1,0.5163479549992189,346.2379328329989,None,346.77101074479833,None,None,346.77101074479833,None,,13,001,2021_Oct_06_1234,searchDisc4,2021.2.3,60.02422649728014,
images/exp2b_trial_177_colour1_distractors9_l.png,l,f,2b,177,1,9,,,,,0,141,141,798,,,,,,,,,,,,,,,,,,,,,,,,,,,,,,,,,,,,,,,,,,,,,,,,,,,,,,,,,,,,,,,,,,,,,,,,,,,,346.77113932299835,None,space,0.1751472450014262,346.77113932299835,None,347.0233864109978,None,f,1,0.8109840040015115,347.0233864109978,None,347.8545610117999,None,None,347.8545610117999,None,,13,001,2021_Oct_06_1234,searchDisc4,2021.2.3,60.02422649728014,
images/exp2b_trial_131_colour1_distractors19_r.png,r,j,2b,131,1,19,,,,,0,142,142,752,,,,,,,,,,,,,,,,,,,,,,,,,,,,,,,,,,,,,,,,,,,,,,,,,,,,,,,,,,,,,,,,,,,,,,,,,,,,347.8538063169981,None,space,0.10046087500086287,347.8538063169981,None,348.02330793999863,None,j,1,0.6910886840014427,348.02330793999863,None,348.73786508379817,None,None,348.73786508379817,None,,13,001,2021_Oct_06_1234,searchDisc4,2021.2.3,60.02422649728014,
images/exp1b_trial_153_colour3_distractors1_l.png,l,f,1b,153,3,1,,,,,0,143,143,390,,,,,,,,,,,,,,,,,,,,,,,,,,,,,,,,,,,,,,,,,,,,,,,,,,,,,,,,,,,,,,,,,,,,,,,,,,,,348.7373870849988,None,space,0.12095197099915822,348.7373870849988,None,348.93993688299815,None,f,1,0.7185059910007112,348.93993688299815,None,349.6878608627976,None,None,349.6878608627976,None,,13,001,2021_Oct_06_1234,searchDisc4,2021.2.3,60.02422649728014,
images/exp2b_trial_146_colour1_distractors19_l.png,l,f,2b,146,1,19,,,,,0,144,144,767,,,,,,,,,,,,,,,,,,,,,,,,,,,,,,,,,,,,,,,,,,,,,,,,,,,,,,,,,,,,,,,,,,,,,,,,,,,,349.6877789889986,None,space,0.14661269600037485,349.6877789889986,None,349.90475343599974,None,f,1,0.6736704440008907,349.90475343599974,None,350.60444144579924,None,None,350.60444144579924,None,,13,001,2021_Oct_06_1234,searchDisc4,2021.2.3,60.02422649728014,
images/exp1b_trial_172_colour3_distractors9_r.png,r,j,1b,172,3,9,,,,,0,145,145,409,,,,,,,,,,,,,,,,,,,,,,,,,,,,,,,,,,,,,,,,,,,,,,,,,,,,,,,,,,,,,,,,,,,,,,,,,,,,350.60432864500035,None,space,0.20610081999984686,350.60432864500035,None,350.8899663810007,None,j,1,0.9605970340016938,350.8899663810007,None,351.8707691457985,None,None,351.8707691457985,None,,13,001,2021_Oct_06_1234,searchDisc4,2021.2.3,60.02422649728014,
images/exp1a_trial_61_colour3_distractors31_l.png,l,f,1a,61,3,31,,,,,0,146,146,106,,,,,,,,,,,,,,,,,,,,,,,,,,,,,,,,,,,,,,,,,,,,,,,,,,,,,,,,,,,,,,,,,,,,,,,,,,,,351.87076049499956,None,space,0.13170354400062934,351.87076049499956,None,352.0736238589998,None,f,1,0.8249730710012955,352.0736238589998,None,352.9210968938005,None,None,352.9210968938005,None,,13,001,2021_Oct_06_1234,searchDisc4,2021.2.3,60.02422649728014,
images/exp2b_trial_81_colour1_distractors9_l.png,l,f,2b,81,1,9,,,,,0,147,147,702,,,,,,,,,,,,,,,,,,,,,,,,,,,,,,,,,,,,,,,,,,,,,,,,,,,,,,,,,,,,,,,,,,,,,,,,,,,,352.9213667639997,None,space,0.21717440400243504,352.9213667639997,None,353.206950011001,None,f,1,0.6036916650009516,353.206950011001,None,353.8379383978008,None,None,353.8379383978008,None,,13,001,2021_Oct_06_1234,searchDisc4,2021.2.3,60.02422649728014,
images/exp1b_trial_90_colour3_distractors4_l.png,l,f,1b,90,3,4,,,,,0,148,148,327,,,,,,,,,,,,,,,,,,,,,,,,,,,,,,,,,,,,,,,,,,,,,,,,,,,,,,,,,,,,,,,,,,,,,,,,,,,,353.83810585099855,None,space,0.2364328289986588,353.83810585099855,None,354.15683662099764,None,f,1,0.8137907140007883,354.15683662099764,None,354.9881457928004,None,None,354.9881457928004,None,,13,001,2021_Oct_06_1234,searchDisc4,2021.2.3,60.02422649728014,
images/exp1a_trial_50_colour1_distractors19_l.png,l,f,1a,50,1,19,,,,,0,149,149,95,,,,,,,,,,,,,,,,,,,,,,,,,,,,,,,,,,,,,,,,,,,,,,,,,,,,,,,,,,,,,,,,,,,,,,,,,,,,354.98810016399875,None,space,0.21446839300188003,354.98810016399875,None,355.27367709600003,None,f,1,0.6170882100013841,355.27367709600003,None,355.9214102017995,None,None,355.9214102017995,None,,13,001,2021_Oct_06_1234,searchDisc4,2021.2.3,60.02422649728014,
images/exp2a_trial_162_colour1_distractors9_r.png,r,j,2a,162,1,9,,,,,0,150,150,591,,,,,,,,,,,,,,,,,,,,,,,,,,,,,,,,,,,,,,,,,,,,,,,,,,,,,,,,,,,,,,,,,,,,,,,,,,,,355.9216978889999,None,space,0.21696179499849677,355.9216978889999,None,356.2069768029978,None,j,1,0.5317277539979841,356.2069768029978,None,356.7714322707998,None,None,356.7714322707998,None,,13,001,2021_Oct_06_1234,searchDisc4,2021.2.3,60.02422649728014,
images/exp2b_trial_174_colour3_distractors31_r.png,r,j,2b,174,3,31,,,,,0,151,151,795,,,,,,,,,,,,,,,,,,,,,,,,,,,,,,,,,,,,,,,,,,,,,,,,,,,,,,,,,,,,,,,,,,,,,,,,,,,,356.77158501300073,None,space,0.1511144450014399,356.77158501300073,None,356.9905301619983,None,j,1,0.6283040460002667,356.9905301619983,None,357.6379078297996,None,None,357.6379078297996,None,,13,001,2021_Oct_06_1234,searchDisc4,2021.2.3,60.02422649728014,
images/exp1b_trial_109_colour3_distractors19_r.png,r,j,1b,109,3,19,,,,,0,152,152,346,,,,,,,,,,,,,,,,,,,,,,,,,,,,,,,,,,,,,,,,,,,,,,,,,,,,,,,,,,,,,,,,,,,,,,,,,,,,357.63787441800014,None,space,0.16483386999971117,357.63787441800014,None,357.87370959799955,None,j,1,1.0811722750004265,357.87370959799955,None,358.9716314917987,None,None,358.9716314917987,None,,13,001,2021_Oct_06_1234,searchDisc4,2021.2.3,60.02422649728014,
images/exp1b_trial_20_colour2_distractors1_l.png,l,f,1b,20,2,1,,,,,0,153,153,257,,,,,,,,,,,,,,,,,,,,,,,,,,,,,,,,,,,,,,,,,,,,,,,,,,,,,,,,,,,,,,,,,,,,,,,,,,,,358.9708388420004,None,space,0.16798735300108092,358.9708388420004,None,359.20704386500074,None,f,1,0.6599588790013513,359.20704386500074,None,359.8883952437991,None,None,359.8883952437991,None,,13,001,2021_Oct_06_1234,searchDisc4,2021.2.3,60.02422649728014,
images/exp2a_trial_174_colour3_distractors31_r.png,r,j,2a,174,3,31,,,,,0,154,154,603,,,,,,,,,,,,,,,,,,,,,,,,,,,,,,,,,,,,,,,,,,,,,,,,,,,,,,,,,,,,,,,,,,,,,,,,,,,,359.887711946998,None,space,0.2831172649966902,359.887711946998,None,360.240532120999,None,j,1,0.6504639089980628,360.240532120999,None,360.9215468858001,None,None,360.9215468858001,None,,13,001,2021_Oct_06_1234,searchDisc4,2021.2.3,60.02422649728014,
images/exp2a_trial_185_colour3_distractors1_l.png,l,f,2a,185,3,1,,,,,0,155,155,614,,,,,,,,,,,,,,,,,,,,,,,,,,,,,,,,,,,,,,,,,,,,,,,,,,,,,,,,,,,,,,,,,,,,,,,,,,,,360.92164891599896,None,space,0.2012910799967358,360.92164891599896,None,361.1904576950001,None,f,1,0.7646011769975303,361.1904576950001,None,361.97174570280004,None,None,361.97174570280004,None,,13,001,2021_Oct_06_1234,searchDisc4,2021.2.3,60.02422649728014,
images/exp1a_trial_97_colour1_distractors4_r.png,r,j,1a,97,1,4,,,,,0,156,156,142,,,,,,,,,,,,,,,,,,,,,,,,,,,,,,,,,,,,,,,,,,,,,,,,,,,,,,,,,,,,,,,,,,,,,,,,,,,,361.97188235499925,None,space,0.23101707099704072,361.97188235499925,None,362.27172963499834,None,j,1,0.5473566469991056,362.27172963499834,None,362.8381319407981,None,None,362.8381319407981,None,,13,001,2021_Oct_06_1234,searchDisc4,2021.2.3,60.02422649728014,
images/exp2a_trial_32_colour1_distractors1_r.png,r,j,2a,32,1,1,,,,,0,157,157,461,,,,,,,,,,,,,,,,,,,,,,,,,,,,,,,,,,,,,,,,,,,,,,,,,,,,,,,,,,,,,,,,,,,,,,,,,,,,362.8382110349994,None,space,0.22886047700012568,362.8382110349994,None,363.1404322039998,None,j,1,0.5346918159993947,363.1404322039998,None,363.7050634768002,None,None,363.7050634768002,None,,13,001,2021_Oct_06_1234,searchDisc4,2021.2.3,60.02422649728014,
images/exp2b_trial_77_colour3_distractors19_r.png,r,j,2b,77,3,19,,,,,0,158,158,698,,,,,,,,,,,,,,,,,,,,,,,,,,,,,,,,,,,,,,,,,,,,,,,,,,,,,,,,,,,,,,,,,,,,,,,,,,,,363.7050215550007,None,space,0.2019474539993098,363.7050215550007,None,363.9738950489991,None,j,1,0.5492351570028404,363.9738950489991,None,364.55517732279804,None,None,364.55517732279804,None,,13,001,2021_Oct_06_1234,searchDisc4,2021.2.3,60.02422649728014,
images/exp2b_trial_163_colour1_distractors19_r.png,r,j,2b,163,1,19,,,,,0,159,159,784,,,,,,,,,,,,,,,,,,,,,,,,,,,,,,,,,,,,,,,,,,,,,,,,,,,,,,,,,,,,,,,,,,,,,,,,,,,,364.55522877800104,None,space,0.19990872500056867,364.55522877800104,None,364.82390611699884,None,j,1,0.5151743590031401,364.82390611699884,None,365.37164292779744,None,None,365.37164292779744,None,,13,001,2021_Oct_06_1234,searchDisc4,2021.2.3,60.02422649728014,
images/exp1a_trial_77_colour3_distractors19_r.png,r,j,1a,77,3,19,,,,,0,160,160,122,,,,,,,,,,,,,,,,,,,,,,,,,,,,,,,,,,,,,,,,,,,,,,,,,,,,,,,,,,,,,,,,,,,,,,,,,,,,365.37091835499814,None,space,0.22424882399718626,365.37091835499814,None,365.67391859299823,None,j,1,0.45729746500001056,365.67391859299823,None,366.15491695779747,None,None,366.15491695779747,None,,13,001,2021_Oct_06_1234,searchDisc4,2021.2.3,60.02422649728014,
images/exp2c_trial_133_colour2_distractors1_r.png,r,j,2c,133,2,1,,,,,0,161,161,946,,,,,,,,,,,,,,,,,,,,,,,,,,,,,,,,,,,,,,,,,,,,,,,,,,,,,,,,,,,,,,,,,,,,,,,,,,,,366.15513458200076,None,space,0.24007321799945203,366.15513458200076,None,366.4631124619991,None,j,1,0.48414029099876643,366.4631124619991,None,366.9717821537979,None,None,366.9717821537979,None,,13,001,2021_Oct_06_1234,searchDisc4,2021.2.3,60.02422649728014,
images/exp2b_trial_66_colour1_distractors9_r.png,r,j,2b,66,1,9,,,,,0,162,162,687,,,,,,,,,,,,,,,,,,,,,,,,,,,,,,,,,,,,,,,,,,,,,,,,,,,,,,,,,,,,,,,,,,,,,,,,,,,,366.97182240799884,None,space,0.26334197799951653,366.97182240799884,None,367.3071235440002,None,j,1,0.5441694829969492,367.3071235440002,None,367.871587137799,None,None,367.871587137799,None,,13,001,2021_Oct_06_1234,searchDisc4,2021.2.3,60.02422649728014,
images/exp2c_trial_162_colour1_distractors9_r.png,r,j,2c,162,1,9,,,,,0,163,163,15,,,,,,,,,,,,,,,,,,,,,,,,,,,,,,,,,,,,,,,,,,,,,,,,,,,,,,,,,,,,,,,,,,,,,,,,,,,,367.8716192030006,None,space,0.2596262699989893,367.8716192030006,None,368.20717567300017,None,j,1,0.5320813239995914,368.20717567300017,None,368.77183718979904,None,None,368.77183718979904,None,,13,001,2021_Oct_06_1234,searchDisc4,2021.2.3,60.02422649728014,
images/exp1a_trial_130_colour1_distractors9_r.png,r,j,1a,130,1,9,,,,,0,164,164,175,,,,,,,,,,,,,,,,,,,,,,,,,,,,,,,,,,,,,,,,,,,,,,,,,,,,,,,,,,,,,,,,,,,,,,,,,,,,368.77214367299894,None,space,0.25514459399710177,368.77214367299894,None,369.107378435001,None,j,1,0.6560083049989771,369.107378435001,None,369.7880990397989,None,None,369.7880990397989,None,,13,001,2021_Oct_06_1234,searchDisc4,2021.2.3,60.02422649728014,
images/exp1b_trial_149_colour2_distractors4_l.png,l,f,1b,149,2,4,,,,,0,165,165,386,,,,,,,,,,,,,,,,,,,,,,,,,,,,,,,,,,,,,,,,,,,,,,,,,,,,,,,,,,,,,,,,,,,,,,,,,,,,369.7880630599975,None,space,0.19927213299888535,369.7880630599975,None,370.0568676059993,None,f,1,0.5625681920028001,370.0568676059993,None,370.63848745779796,None,None,370.63848745779796,None,,13,001,2021_Oct_06_1234,searchDisc4,2021.2.3,60.02422649728014,
images/exp1b_trial_154_colour3_distractors4_l.png,l,f,1b,154,3,4,,,,,0,166,166,391,,,,,,,,,,,,,,,,,,,,,,,,,,,,,,,,,,,,,,,,,,,,,,,,,,,,,,,,,,,,,,,,,,,,,,,,,,,,370.6384581719976,None,space,0.2609457600010501,370.6384581719976,None,370.9739580610003,None,f,1,0.893467330999556,370.9739580610003,None,371.88773395680073,None,None,371.88773395680073,None,,13,001,2021_Oct_06_1234,searchDisc4,2021.2.3,60.02422649728014,
images/exp1a_trial_95_colour0_distractors0_l.png,l,f,1a,95,0,0,,,,,0,167,167,140,,,,,,,,,,,,,,,,,,,,,,,,,,,,,,,,,,,,,,,,,,,,,,,,,,,,,,,,,,,,,,,,,,,,,,,,,,,,371.8880751609977,None,space,0.2593608490024053,371.8880751609977,None,372.2242849139984,None,f,1,0.5072576140009915,372.2242849139984,None,372.75516402979883,None,None,372.75516402979883,None,,13,001,2021_Oct_06_1234,searchDisc4,2021.2.3,60.02422649728014,
images/exp2c_trial_186_colour3_distractors4_l.png,l,f,2c,186,3,4,,,,,0,168,168,39,,,,,,,,,,,,,,,,,,,,,,,,,,,,,,,,,,,,,,,,,,,,,,,,,,,,,,,,,,,,,,,,,,,,,,,,,,,,372.75503911600026,None,space,0.28044105599838076,372.75503911600026,None,373.10739522899894,None,f,1,0.4481048260022362,373.10739522899894,None,373.57216554579827,None,None,373.57216554579827,None,,13,001,2021_Oct_06_1234,searchDisc4,2021.2.3,60.02422649728014,
images/exp2a_trial_137_colour2_distractors31_r.png,r,j,2a,137,2,31,,,,,0,169,169,566,,,,,,,,,,,,,,,,,,,,,,,,,,,,,,,,,,,,,,,,,,,,,,,,,,,,,,,,,,,,,,,,,,,,,,,,,,,,373.57149719099834,None,space,0.24801692999972147,373.57149719099834,None,373.89096530499955,None,f,0,0.4805147580009361,373.89096530499955,None,374.38849739980105,None,None,374.38849739980105,None,,13,001,2021_Oct_06_1234,searchDisc4,2021.2.3,60.02422649728014,
images/exp2c_trial_153_colour3_distractors1_l.png,l,f,2c,153,3,1,,,,,0,170,170,6,,,,,,,,,,,,,,,,,,,,,,,,,,,,,,,,,,,,,,,,,,,,,,,,,,,,,,,,,,,,,,,,,,,,,,,,,,,,374.38851272899774,None,space,0.35905713199827005,374.38851272899774,None,374.8136760749985,None,f,1,0.557856218998495,374.8136760749985,None,375.3885305897984,None,None,375.3885305897984,None,,13,001,2021_Oct_06_1234,searchDisc4,2021.2.3,60.02422649728014,
images/exp1a_trial_120_colour2_distractors31_l.png,l,f,1a,120,2,31,,,,,0,171,171,165,,,,,,,,,,,,,,,,,,,,,,,,,,,,,,,,,,,,,,,,,,,,,,,,,,,,,,,,,,,,,,,,,,,,,,,,,,,,375.3886777859989,None,space,0.310919127001398,375.3886777859989,None,375.77419866700075,None,j,0,0.49345950600036304,375.77419866700075,None,376.2878145247978,None,None,376.2878145247978,None,,13,001,2021_Oct_06_1234,searchDisc4,2021.2.3,60.02422649728014,
images/exp1a_trial_94_colour0_distractors0_r.png,r,j,1a,94,0,0,,,,,0,172,172,139,,,,,,,,,,,,,,,,,,,,,,,,,,,,,,,,,,,,,,,,,,,,,,,,,,,,,,,,,,,,,,,,,,,,,,,,,,,,376.28884841800027,None,space,0.3387727389999782,376.28884841800027,None,376.69688371699885,None,j,1,0.5948285849990498,376.69688371699885,None,377.3219968987996,None,None,377.3219968987996,None,,13,001,2021_Oct_06_1234,searchDisc4,2021.2.3,60.02422649728014,
images/exp1b_trial_21_colour2_distractors4_l.png,l,f,1b,21,2,4,,,,,0,173,173,258,,,,,,,,,,,,,,,,,,,,,,,,,,,,,,,,,,,,,,,,,,,,,,,,,,,,,,,,,,,,,,,,,,,,,,,,,,,,377.32201780299874,None,space,0.30567440999948303,377.32201780299874,None,377.70754670599854,None,f,1,0.8641447070003778,377.70754670599854,None,378.5888189767993,None,None,378.5888189767993,None,,13,001,2021_Oct_06_1234,searchDisc4,2021.2.3,60.02422649728014,
images/exp2b_trial_42_colour3_distractors1_r.png,r,j,2b,42,3,1,,,,,0,174,174,663,,,,,,,,,,,,,,,,,,,,,,,,,,,,,,,,,,,,,,,,,,,,,,,,,,,,,,,,,,,,,,,,,,,,,,,,,,,,378.58813967699825,None,space,0.26360019000276225,378.58813967699825,None,378.924071311998,None,j,1,0.551767117001873,378.924071311998,None,379.5053409687989,None,None,379.5053409687989,None,,13,001,2021_Oct_06_1234,searchDisc4,2021.2.3,60.02422649728014,
images/exp1a_trial_100_colour1_distractors31_r.png,r,j,1a,100,1,31,,,,,0,175,175,145,,,,,,,,,,,,,,,,,,,,,,,,,,,,,,,,,,,,,,,,,,,,,,,,,,,,,,,,,,,,,,,,,,,,,,,,,,,,379.5053559589978,None,space,0.1784164829987276,379.5053559589978,None,379.75759774299877,None,j,1,0.7342698909997125,379.75759774299877,None,380.52210490179823,None,None,380.52210490179823,None,,13,001,2021_Oct_06_1234,searchDisc4,2021.2.3,60.02422649728014,
images/exp1b_trial_92_colour3_distractors19_l.png,l,f,1b,92,3,19,,,,,0,176,176,329,,,,,,,,,,,,,,,,,,,,,,,,,,,,,,,,,,,,,,,,,,,,,,,,,,,,,,,,,,,,,,,,,,,,,,,,,,,,380.5222077420003,None,space,0.17762640900036786,380.5222077420003,None,380.7743391059994,None,f,1,1.2535995949983771,380.7743391059994,None,382.0555136538005,None,None,382.0555136538005,None,,13,001,2021_Oct_06_1234,searchDisc4,2021.2.3,60.02422649728014,
images/exp2a_trial_164_colour1_distractors31_r.png,r,j,2a,164,1,31,,,,,0,177,177,593,,,,,,,,,,,,,,,,,,,,,,,,,,,,,,,,,,,,,,,,,,,,,,,,,,,,,,,,,,,,,,,,,,,,,,,,,,,,382.05553567699826,None,space,0.23630529000001843,382.05553567699826,None,382.37406113999896,None,j,1,0.6059309699994628,382.37406113999896,None,383.0054948218003,None,None,383.0054948218003,None,,13,001,2021_Oct_06_1234,searchDisc4,2021.2.3,60.02422649728014,
images/exp2b_trial_127_colour0_distractors0_l.png,l,f,2b,127,0,0,,,,,0,178,178,748,,,,,,,,,,,,,,,,,,,,,,,,,,,,,,,,,,,,,,,,,,,,,,,,,,,,,,,,,,,,,,,,,,,,,,,,,,,,383.00557933899836,None,space,0.1983628289999615,383.00557933899836,None,383.2640936379976,None,f,1,0.5239210559993808,383.2640936379976,None,383.8056037967999,None,None,383.8056037967999,None,,13,001,2021_Oct_06_1234,searchDisc4,2021.2.3,60.02422649728014,
images/exp1a_trial_49_colour1_distractors9_l.png,l,f,1a,49,1,9,,,,,0,179,179,94,,,,,,,,,,,,,,,,,,,,,,,,,,,,,,,,,,,,,,,,,,,,,,,,,,,,,,,,,,,,,,,,,,,,,,,,,,,,383.8048527469982,None,space,0.23913726699902327,383.8048527469982,None,384.1241785429993,None,f,1,0.7359142569985124,384.1241785429993,None,384.8888584438009,None,None,384.8888584438009,None,,13,001,2021_Oct_06_1234,searchDisc4,2021.2.3,60.02422649728014,
images/exp1b_trial_57_colour3_distractors1_l.png,l,f,1b,57,3,1,,,,,0,180,180,294,,,,,,,,,,,,,,,,,,,,,,,,,,,,,,,,,,,,,,,,,,,,,,,,,,,,,,,,,,,,,,,,,,,,,,,,,,,,384.888933694001,None,space,0.22708967799917446,384.888933694001,None,385.18037315699985,None,f,1,0.903769230000762,385.18037315699985,None,386.10552158779865,None,None,386.10552158779865,None,,13,001,2021_Oct_06_1234,searchDisc4,2021.2.3,60.02422649728014,
images/exp1b_trial_4_colour1_distractors31_r.png,r,j,1b,4,1,31,,,,,0,181,181,241,,,,,,,,,,,,,,,,,,,,,,,,,,,,,,,,,,,,,,,,,,,,,,,,,,,,,,,,,,,,,,,,,,,,,,,,,,,,386.10565743500047,None,space,0.1863235220007482,386.10565743500047,None,386.3747548909996,None,j,1,0.9574406749998161,386.3747548909996,None,387.35563878279754,None,None,387.35563878279754,None,,13,001,2021_Oct_06_1234,searchDisc4,2021.2.3,60.02422649728014,
images/exp2b_trial_152_colour2_distractors31_l.png,l,f,2b,152,2,31,,,,,0,182,182,773,,,,,,,,,,,,,,,,,,,,,,,,,,,,,,,,,,,,,,,,,,,,,,,,,,,,,,,,,,,,,,,,,,,,,,,,,,,,387.3558832050003,None,space,0.22427919599795132,387.3558832050003,None,387.6578806100006,None,f,1,0.62633934400219,387.6578806100006,None,388.30571604980105,None,None,388.30571604980105,None,,13,001,2021_Oct_06_1234,searchDisc4,2021.2.3,60.02422649728014,
images/exp2b_trial_179_colour1_distractors31_l.png,l,f,2b,179,1,31,,,,,0,183,183,800,,,,,,,,,,,,,,,,,,,,,,,,,,,,,,,,,,,,,,,,,,,,,,,,,,,,,,,,,,,,,,,,,,,,,,,,,,,,388.3049499029985,None,space,0.2752620499995828,388.3049499029985,None,388.6579037970005,None,f,1,0.5224041699984809,388.6579037970005,None,389.2057492367985,None,None,389.2057492367985,None,,13,001,2021_Oct_06_1234,searchDisc4,2021.2.3,60.02422649728014,
images/exp2a_trial_120_colour2_distractors31_l.png,l,f,2a,120,2,31,,,,,0,184,184,549,,,,,,,,,,,,,,,,,,,,,,,,,,,,,,,,,,,,,,,,,,,,,,,,,,,,,,,,,,,,,,,,,,,,,,,,,,,,389.2054529300003,None,space,0.2547869170011836,389.2054529300003,None,389.54141245400024,None,f,1,0.5908998929990048,389.54141245400024,None,390.15575723979964,None,None,390.15575723979964,None,,13,001,2021_Oct_06_1234,searchDisc4,2021.2.3,60.02422649728014,
images/exp2b_trial_13_colour3_distractors19_r.png,r,j,2b,13,3,19,,,,,0,185,185,634,,,,,,,,,,,,,,,,,,,,,,,,,,,,,,,,,,,,,,,,,,,,,,,,,,,,,,,,,,,,,,,,,,,,,,,,,,,,390.1559279840003,None,space,0.17634091500076465,390.1559279840003,None,390.40575725500094,None,j,1,0.5426095519978844,390.40575725500094,None,390.97199800380076,None,None,390.97199800380076,None,,13,001,2021_Oct_06_1234,searchDisc4,2021.2.3,60.02422649728014,
images/exp2b_trial_182_colour2_distractors9_l.png,l,f,2b,182,2,9,,,,,0,186,186,803,,,,,,,,,,,,,,,,,,,,,,,,,,,,,,,,,,,,,,,,,,,,,,,,,,,,,,,,,,,,,,,,,,,,,,,,,,,,390.972049136999,None,space,0.24821664900082396,390.972049136999,None,391.2793749989978,None,f,1,0.589040811999439,391.2793749989978,None,391.88856638479956,None,None,391.88856638479956,None,,13,001,2021_Oct_06_1234,searchDisc4,2021.2.3,60.02422649728014,
images/exp1a_trial_39_colour2_distractors9_r.png,r,j,1a,39,2,9,,,,,0,187,187,84,,,,,,,,,,,,,,,,,,,,,,,,,,,,,,,,,,,,,,,,,,,,,,,,,,,,,,,,,,,,,,,,,,,,,,,,,,,,391.88842353499786,None,space,0.2838578459995915,391.88842353499786,None,392.241557071,None,j,1,0.6988304430014978,392.241557071,None,392.9725858287984,None,None,392.9725858287984,None,,13,001,2021_Oct_06_1234,searchDisc4,2021.2.3,60.02422649728014,
images/exp2c_trial_46_colour3_distractors31_r.png,r,j,2c,46,3,31,,,,,0,188,188,859,,,,,,,,,,,,,,,,,,,,,,,,,,,,,,,,,,,,,,,,,,,,,,,,,,,,,,,,,,,,,,,,,,,,,,,,,,,,392.9725339739998,None,space,0.2318669160013087,392.9725339739998,None,393.2748939669982,None,j,1,0.5536037489982846,393.2748939669982,None,393.8555909318002,None,None,393.8555909318002,None,,13,001,2021_Oct_06_1234,searchDisc4,2021.2.3,60.02422649728014,
images/exp2a_trial_119_colour2_distractors19_l.png,l,f,2a,119,2,19,,,,,0,189,189,548,,,,,,,,,,,,,,,,,,,,,,,,,,,,,,,,,,,,,,,,,,,,,,,,,,,,,,,,,,,,,,,,,,,,,,,,,,,,393.85574388500027,None,space,0.21267725999859977,393.85574388500027,None,394.141368949,None,f,1,0.6951758979994338,394.141368949,None,394.85562368979845,None,None,394.85562368979845,None,,13,001,2021_Oct_06_1234,searchDisc4,2021.2.3,60.02422649728014,
images/exp2b_trial_46_colour3_distractors31_r.png,r,j,2b,46,3,31,,,,,0,190,190,667,,,,,,,,,,,,,,,,,,,,,,,,,,,,,,,,,,,,,,,,,,,,,,,,,,,,,,,,,,,,,,,,,,,,,,,,,,,,394.8555581369983,None,space,0.20494047299871454,394.8555581369983,None,395.14155382199897,None,j,1,0.6309342900021875,395.14155382199897,None,395.78914878679825,None,None,395.78914878679825,None,,13,001,2021_Oct_06_1234,searchDisc4,2021.2.3,60.02422649728014,
images/exp2b_trial_16_colour1_distractors4_l.png,l,f,2b,16,1,4,,,,,0,191,191,637,,,,,,,,,,,,,,,,,,,,,,,,,,,,,,,,,,,,,,,,,,,,,,,,,,,,,,,,,,,,,,,,,,,,,,,,,,,,395.78918535499906,None,space,0.20733420999749796,395.78918535499906,None,396.0632919669988,None,f,1,0.597346844002459,396.0632919669988,None,396.68921999879785,None,None,396.68921999879785,None,,13,001,2021_Oct_06_1234,searchDisc4,2021.2.3,60.02422649728014,
images/exp1b_trial_95_colour0_distractors0_l.png,l,f,1b,95,0,0,,,,,0,192,192,332,,,,,,,,,,,,,,,,,,,,,,,,,,,,,,,,,,,,,,,,,,,,,,,,,,,,,,,,,,,,,,,,,,,,,,,,,,,,396.68927814500057,None,space,0.24332374299774528,396.68927814500057,None,396.9977243969988,None,f,1,0.6629606770002283,396.9977243969988,None,397.6892268997999,None,None,397.6892268997999,None,,13,001,2021_Oct_06_1234,searchDisc4,2021.2.3,60.02422649728014,
images/exp1a_trial_168_colour2_distractors19_r.png,r,j,1a,168,2,19,,,,,0,193,193,213,,,,,,,,,,,,,,,,,,,,,,,,,,,,,,,,,,,,,,,,,,,,,,,,,,,,,,,,,,,,,,,,,,,,,,,,,,,,397.68921499299904,None,space,0.3874079070010339,397.68921499299904,None,398.1582743430008,None,j,1,0.49443251000047894,398.1582743430008,None,398.6719816567984,None,None,398.6719816567984,None,,13,001,2021_Oct_06_1234,searchDisc4,2021.2.3,60.02422649728014,
images/exp1a_trial_24_colour2_distractors31_l.png,l,f,1a,24,2,31,,,,,0,194,194,69,,,,,,,,,,,,,,,,,,,,,,,,,,,,,,,,,,,,,,,,,,,,,,,,,,,,,,,,,,,,,,,,,,,,,,,,,,,,398.6723047279993,None,space,0.32437917000061134,398.6723047279993,None,399.07462891199975,None,f,1,0.4980139910003345,399.07462891199975,None,399.58922306279965,None,None,399.58922306279965,None,,13,001,2021_Oct_06_1234,searchDisc4,2021.2.3,60.02422649728014,
images/exp2b_trial_25_colour3_distractors1_l.png,l,f,2b,25,3,1,,,,,0,195,195,646,,,,,,,,,,,,,,,,,,,,,,,,,,,,,,,,,,,,,,,,,,,,,,,,,,,,,,,,,,,,,,,,,,,,,,,,,,,,399.5894431759989,None,space,0.2952631059997657,399.5894431759989,None,399.95803471699764,None,f,1,0.47877268199954415,399.95803471699764,None,400.4558757627983,None,None,400.4558757627983,None,,13,001,2021_Oct_06_1234,searchDisc4,2021.2.3,60.02422649728014,
images/exp1b_trial_118_colour2_distractors9_l.png,l,f,1b,118,2,9,,,,,0,196,196,355,,,,,,,,,,,,,,,,,,,,,,,,,,,,,,,,,,,,,,,,,,,,,,,,,,,,,,,,,,,,,,,,,,,,,,,,,,,,400.45602994100045,None,space,0.316767106000043,400.45602994100045,None,400.8416113460007,None,f,1,0.5232437900012883,400.8416113460007,None,401.38930889879884,None,None,401.38930889879884,None,,13,001,2021_Oct_06_1234,searchDisc4,2021.2.3,60.02422649728014,
images/exp2c_trial_181_colour2_distractors4_l.png,l,f,2c,181,2,4,,,,,0,197,197,34,,,,,,,,,,,,,,,,,,,,,,,,,,,,,,,,,,,,,,,,,,,,,,,,,,,,,,,,,,,,,,,,,,,,,,,,,,,,401.3893696699997,None,space,0.27944733899857965,401.3893696699997,None,401.7416593050002,None,f,1,0.487232497001969,401.7416593050002,None,402.2560797128008,None,None,402.2560797128008,None,,13,001,2021_Oct_06_1234,searchDisc4,2021.2.3,60.02422649728014,
images/exp2a_trial_154_colour3_distractors4_l.png,l,f,2a,154,3,4,,,,,0,198,198,583,,,,,,,,,,,,,,,,,,,,,,,,,,,,,,,,,,,,,,,,,,,,,,,,,,,,,,,,,,,,,,,,,,,,,,,,,,,,402.25593888000003,None,space,0.30090699400170706,402.25593888000003,None,402.62484430999757,None,f,1,0.5560640939984296,402.62484430999757,None,403.2060957497979,None,None,403.2060957497979,None,,13,001,2021_Oct_06_1234,searchDisc4,2021.2.3,60.02422649728014,
images/exp2a_trial_76_colour3_distractors9_r.png,r,j,2a,76,3,9,,,,,0,199,199,505,,,,,,,,,,,,,,,,,,,,,,,,,,,,,,,,,,,,,,,,,,,,,,,,,,,,,,,,,,,,,,,,,,,,,,,,,,,,403.2063685659996,None,space,0.24647509699934744,403.2063685659996,None,403.5245746670007,None,j,1,0.42435950900107855,403.5245746670007,None,403.9726197807995,None,None,403.9726197807995,None,,13,001,2021_Oct_06_1234,searchDisc4,2021.2.3,60.02422649728014,
images/exp1b_trial_184_colour2_distractors31_l.png,l,f,1b,184,2,31,,,,,0,200,200,421,,,,,,,,,,,,,,,,,,,,,,,,,,,,,,,,,,,,,,,,,,,,,,,,,,,,,,,,,,,,,,,,,,,,,,,,,,,,403.9727120079988,None,space,0.22417355099969427,403.9727120079988,None,404.2750189340004,None,f,1,0.6739496439986397,404.2750189340004,None,404.9725257827977,None,None,404.9725257827977,None,,13,001,2021_Oct_06_1234,searchDisc4,2021.2.3,60.02422649728014,
images/exp1b_trial_103_colour2_distractors9_r.png,r,j,1b,103,2,9,,,,,0,201,201,340,,,,,,,,,,,,,,,,,,,,,,,,,,,,,,,,,,,,,,,,,,,,,,,,,,,,,,,,,,,,,,,,,,,,,,,,,,,,404.9725560980005,None,space,0.2643911590021162,404.9725560980005,None,405.308484191999,None,j,1,0.7765331080008764,405.308484191999,None,406.1064059567998,None,None,406.1064059567998,None,,13,001,2021_Oct_06_1234,searchDisc4,2021.2.3,60.02422649728014,
images/exp2c_trial_187_colour3_distractors9_l.png,l,f,2c,187,3,9,,,,,0,202,202,40,,,,,,,,,,,,,,,,,,,,,,,,,,,,,,,,,,,,,,,,,,,,,,,,,,,,,,,,,,,,,,,,,,,,,,,,,,,,406.1062458569977,None,space,0.15475010899899644,406.1062458569977,None,406.34175251600027,None,f,1,0.5753903090007952,406.34175251600027,None,406.93964332679934,None,None,406.93964332679934,None,,13,001,2021_Oct_06_1234,searchDisc4,2021.2.3,60.02422649728014,
images/exp2c_trial_165_colour2_distractors1_r.png,r,j,2c,165,2,1,,,,,0,203,203,18,,,,,,,,,,,,,,,,,,,,,,,,,,,,,,,,,,,,,,,,,,,,,,,,,,,,,,,,,,,,,,,,,,,,,,,,,,,,406.9395096179978,None,space,0.2895344309981738,406.9395096179978,None,407.3085353569986,None,f,0,0.4725706089993764,407.3085353569986,None,407.80581004079977,None,None,407.80581004079977,None,,13,001,2021_Oct_06_1234,searchDisc4,2021.2.3,60.02422649728014,
images/exp2b_trial_20_colour2_distractors1_l.png,l,f,2b,20,2,1,,,,,0,204,204,641,,,,,,,,,,,,,,,,,,,,,,,,,,,,,,,,,,,,,,,,,,,,,,,,,,,,,,,,,,,,,,,,,,,,,,,,,,,,407.8059092049989,None,space,0.31119022199709434,407.8059092049989,None,408.1917844069976,None,f,1,0.4453792339991196,408.1917844069976,None,408.65631568979916,None,None,408.65631568979916,None,,13,001,2021_Oct_06_1234,searchDisc4,2021.2.3,60.02422649728014,
images/exp1a_trial_131_colour1_distractors19_r.png,r,j,1a,131,1,19,,,,,0,205,205,176,,,,,,,,,,,,,,,,,,,,,,,,,,,,,,,,,,,,,,,,,,,,,,,,,,,,,,,,,,,,,,,,,,,,,,,,,,,,408.65636837000056,None,space,0.3006777510017855,408.65636837000056,None,409.025331154,None,j,1,0.6358903410000494,409.025331154,None,409.6895794127977,None,None,409.6895794127977,None,,13,001,2021_Oct_06_1234,searchDisc4,2021.2.3,60.02422649728014,
images/exp2c_trial_177_colour1_distractors9_l.png,l,f,2c,177,1,9,,,,,0,206,206,30,,,,,,,,,,,,,,,,,,,,,,,,,,,,,,,,,,,,,,,,,,,,,,,,,,,,,,,,,,,,,,,,,,,,,,,,,,,,409.6896002559988,None,space,0.2674912479997147,409.6896002559988,None,410.0145336659989,None,f,1,0.43870180399972014,410.0145336659989,None,410.47228431880103,None,None,410.47228431880103,None,,13,001,2021_Oct_06_1234,searchDisc4,2021.2.3,60.02422649728014,
images/exp2b_trial_10_colour3_distractors1_r.png,r,j,2b,10,3,1,,,,,0,207,207,631,,,,,,,,,,,,,,,,,,,,,,,,,,,,,,,,,,,,,,,,,,,,,,,,,,,,,,,,,,,,,,,,,,,,,,,,,,,,410.47226596399923,None,space,0.2769593500015617,410.47226596399923,None,410.81463018299837,None,f,0,0.4386447419965407,410.81463018299837,None,411.2723383007997,None,None,411.2723383007997,None,,13,001,2021_Oct_06_1234,searchDisc4,2021.2.3,60.02422649728014,
images/exp1b_trial_190_colour0_distractors0_r.png,r,j,1b,190,0,0,,,,,0,208,208,427,,,,,,,,,,,,,,,,,,,,,,,,,,,,,,,,,,,,,,,,,,,,,,,,,,,,,,,,,,,,,,,,,,,,,,,,,,,,411.2723101909978,None,space,0.30094869500317145,411.2723101909978,None,411.6418449390003,None,j,1,0.5234714050020557,411.6418449390003,None,412.18966727780025,None,None,412.18966727780025,None,,13,001,2021_Oct_06_1234,searchDisc4,2021.2.3,60.02422649728014,
images/exp2a_trial_50_colour1_distractors19_l.png,l,f,2a,50,1,19,,,,,0,209,209,479,,,,,,,,,,,,,,,,,,,,,,,,,,,,,,,,,,,,,,,,,,,,,,,,,,,,,,,,,,,,,,,,,,,,,,,,,,,,412.1888599140002,None,space,0.24843111900190706,412.1888599140002,None,412.50877428400054,None,f,1,0.528599238001334,412.50877428400054,None,413.0566417528007,None,None,413.0566417528007,None,,13,001,2021_Oct_06_1234,searchDisc4,2021.2.3,60.02422649728014,
images/exp2a_trial_179_colour1_distractors31_l.png,l,f,2a,179,1,31,,,,,0,210,210,608,,,,,,,,,,,,,,,,,,,,,,,,,,,,,,,,,,,,,,,,,,,,,,,,,,,,,,,,,,,,,,,,,,,,,,,,,,,,413.0557621689986,None,space,0.2855829360014468,413.0557621689986,None,413.40861672499886,None,j,0,0.5407830360018124,413.40861672499886,None,413.9729522207981,None,None,413.9729522207981,None,,13,001,2021_Oct_06_1234,searchDisc4,2021.2.3,60.02422649728014,
images/exp2c_trial_6_colour2_distractors4_r.png,r,j,2c,6,2,4,,,,,0,211,211,819,,,,,,,,,,,,,,,,,,,,,,,,,,,,,,,,,,,,,,,,,,,,,,,,,,,,,,,,,,,,,,,,,,,,,,,,,,,,413.9731561419976,None,space,0.38422484699913184,413.9731561419976,None,414.42527640299886,None,j,1,0.6281755929994688,414.42527640299886,None,415.07247127979826,None,None,415.07247127979826,None,,13,001,2021_Oct_06_1234,searchDisc4,2021.2.3,60.02422649728014,
images/exp1a_trial_172_colour3_distractors9_r.png,r,j,1a,172,3,9,,,,,0,212,212,217,,,,,,,,,,,,,,,,,,,,,,,,,,,,,,,,,,,,,,,,,,,,,,,,,,,,,,,,,,,,,,,,,,,,,,,,,,,,415.07273555699794,None,space,0.19668251999974018,415.07273555699794,None,415.34194456299883,None,j,1,0.5435464570000477,415.34194456299883,None,415.90576550879814,None,None,415.90576550879814,None,,13,001,2021_Oct_06_1234,searchDisc4,2021.2.3,60.02422649728014,
images/exp2b_trial_71_colour2_distractors9_r.png,r,j,2b,71,2,9,,,,,0,213,213,692,,,,,,,,,,,,,,,,,,,,,,,,,,,,,,,,,,,,,,,,,,,,,,,,,,,,,,,,,,,,,,,,,,,,,,,,,,,,415.90580220300035,None,space,0.17165782699885312,415.90580220300035,None,416.1587299040002,None,f,0,0.48679793900009827,416.1587299040002,None,416.6732200567985,None,None,416.6732200567985,None,,13,001,2021_Oct_06_1234,searchDisc4,2021.2.3,60.02422649728014,
images/exp2b_trial_38_colour2_distractors4_r.png,r,j,2b,38,2,4,,,,,0,214,214,659,,,,,,,,,,,,,,,,,,,,,,,,,,,,,,,,,,,,,,,,,,,,,,,,,,,,,,,,,,,,,,,,,,,,,,,,,,,,416.6729239369997,None,space,0.2524868750006135,416.6729239369997,None,416.99635560000024,None,j,1,0.5931887779988756,416.99635560000024,None,417.60643071579943,None,None,417.60643071579943,None,,13,001,2021_Oct_06_1234,searchDisc4,2021.2.3,60.02422649728014,
images/exp2c_trial_36_colour1_distractors31_r.png,r,j,2c,36,1,31,,,,,0,215,215,849,,,,,,,,,,,,,,,,,,,,,,,,,,,,,,,,,,,,,,,,,,,,,,,,,,,,,,,,,,,,,,,,,,,,,,,,,,,,417.60684197999944,None,space,0.22270657600165578,417.60684197999944,None,417.90871001599953,None,j,1,0.6088027820005664,417.90871001599953,None,418.5398447787975,None,None,418.5398447787975,None,,13,001,2021_Oct_06_1234,searchDisc4,2021.2.3,60.02422649728014,
