ImageFile,targ_side,correctAnswer,exp,trial,colour,distNo,trials_2.thisRepN,trials_2.thisTrialN,trials_2.thisN,trials_2.thisIndex,trials.thisRepN,trials.thisTrialN,trials.thisN,trials.thisIndex,X Scale,Y Scale,text_top.started,text_top.stopped,text_bottom.started,text_bottom.stopped,ccimage.started,ccimage.stopped,text_6.started,text_6.stopped,key_resp_10.keys,key_resp_10.rt,key_resp_10.started,key_resp_10.stopped,text_7.started,text_7.stopped,key_resp_11.keys,key_resp_11.rt,key_resp_11.started,key_resp_11.stopped,text_8.started,text_8.stopped,key_resp_12.keys,key_resp_12.rt,key_resp_12.started,key_resp_12.stopped,text_9.started,text_9.stopped,key_resp_13.keys,key_resp_13.rt,key_resp_13.started,key_resp_13.stopped,text_2.started,text_2.stopped,key_resp_5.keys,key_resp_5.rt,key_resp_5.started,key_resp_5.stopped,text_5.started,text_5.stopped,key_resp_8.keys,key_resp_8.rt,key_resp_8.started,key_resp_8.stopped,image_2.started,image_2.stopped,key_resp_6.keys,key_resp_6.rt,key_resp_6.started,key_resp_6.stopped,text_3.started,text_3.stopped,image_3.started,image_3.stopped,fix.started,fix.stopped,key_resp_7.keys,key_resp_7.rt,key_resp_7.started,key_resp_7.stopped,image.started,image.stopped,key_resp_4.keys,key_resp_4.corr,key_resp_4.rt,key_resp_4.started,key_resp_4.stopped,text_4.started,text_4.stopped,text.started,text.stopped,key_resp_3.keys,key_resp_3.rt,key_resp_3.started,key_resp_3.stopped,fix2experiment.started,fix2experiment.stopped,key_resp_9.keys,key_resp_9.rt,key_resp_9.started,key_resp_9.stopped,dispStimuli.started,dispStimuli.stopped,key_resp_2.keys,key_resp_2.corr,key_resp_2.rt,key_resp_2.started,key_resp_2.stopped,breakMessage.started,breakMessage.stopped,key_resp.keys,key_resp.started,key_resp.stopped,key_resp.rt,participant,session,date,expName,psychopyVersion,frameRate,
,,,,,,,,,,,,,,,41.5,38.0,74.79254706099891,None,74.79254706099891,None,74.79254706099891,None,110.5266177989979,None,space,4.195697971998015,110.5266177989979,None,,,,,,,,,,,,,,,,,,,,,,,,,,,,,,,,,,,,,,,,,,,,,,,,,,,,,,,,,,,,,,,,,,,,,,,,,,,,,,,,,14,001,2021_Oct_07_0946,searchDisc4,2021.2.3,59.48143962197479,
,,,,,,,,,,,,,,,,,,,,,,,,,,,,,114.74346507099835,None,space,1.5389924560004147,114.74346507099835,None,,,,,,,,,,,,,,,,,,,,,,,,,,,,,,,,,,,,,,,,,,,,,,,,,,,,,,,,,,,,,,,,,,,,,,,,,,,14,001,2021_Oct_07_0946,searchDisc4,2021.2.3,59.48143962197479,
,,,,,,,,,,,,,,,,,,,,,,,,,,,,,,,,,,,116.31014396499813,None,space,1.3243197470001178,116.31014396499813,None,,,,,,,,,,,,,,,,,,,,,,,,,,,,,,,,,,,,,,,,,,,,,,,,,,,,,,,,,,,,,,,,,,,,,14,001,2021_Oct_07_0946,searchDisc4,2021.2.3,59.48143962197479,
,,,,,,,,,,,,,,,,,,,,,,,,,,,,,,,,,,,,,,,,,117.66028184899915,None,space,0.8062614509981358,117.66028184899915,None,,,,,,,,,,,,,,,,,,,,,,,,,,,,,,,,,,,,,,,,,,,,,,,,,,,,,,,,,,,,,,,14,001,2021_Oct_07_0946,searchDisc4,2021.2.3,59.48143962197479,
,,,,,,,,,,,,,,,,,,,,,,,,,,,,,,,,,,,,,,,,,,,,,,,118.4934906769995,None,space,0.950300595999579,119.46021761699376,None,,,,,,,,,,,,,,,,,,,,,,,,,,,,,,,,,,,,,,,,,,,,,,,,,,,,,,,,,14,001,2021_Oct_07_0946,searchDisc4,2021.2.3,59.48143962197479,
,,,,,,,,,,,,,,,,,,,,,,,,,,,,,,,,,,,,,,,,,,,,,,,,,,,,,120.44354478699825,None,space,5.999343185998441,120.44354478699825,None,,,,,,,,,,,,,,,,,,,,,,,,,,,,,,,,,,,,,,,,,,,,,,,,,,,14,001,2021_Oct_07_0946,searchDisc4,2021.2.3,59.48143962197479,
,,,,,,,,,,,,,,,,,,,,,,,,,,,,,,,,,,,,,,,,,,,,,,,,,,,,,,,,,,,126.460432793996,None,space,4.463476694996643,127.443661968995,None,,,,,,,,,,,,,,,,,,,,,,,,,,,,,,,,,,,,,,,,,,,,,14,001,2021_Oct_07_0946,searchDisc4,2021.2.3,59.48143962197479,
Practice arrays/exp1a_trial_8_colour2_distractors19_r.png,r,j,,,,,0,0,0,3,,,,,,,,,,,,,,,,,,,,,,,,,,,,,,,,,,,,,,,,,,,,,,,,,,,,,,,126.460432793996,None,126.460432793996,None,131.9437915649978,None,space,3.7715431280012126,131.9437915649978,None,135.80869581699517,None,j,1,0.762640865999856,135.80869581699517,None,136.59196992599755,None,,,,,,,,,,,,,,,,,,,,,,,,,,14,001,2021_Oct_07_0946,searchDisc4,2021.2.3,59.48143962197479,
Practice arrays/exp1a_trial_30_colour0_distractors0_r.png,r,j,,,,,0,1,1,14,,,,,,,,,,,,,,,,,,,,,,,,,,,,,,,,,,,,,,,,,,,,,,,,,,,,,,,,,,,137.59400438199373,None,space,0.6814405469995108,137.59400438199373,None,138.3443172529951,None,f,0,0.411152155000309,138.3443172529951,None,138.77485533999425,None,,,,,,,,,,,,,,,,,,,,,,,,,,14,001,2021_Oct_07_0946,searchDisc4,2021.2.3,59.48143962197479,
Practice arrays/exp1a_trial_17_colour1_distractors9_l.png,l,f,,,,,0,2,2,7,,,,,,,,,,,,,,,,,,,,,,,,,,,,,,,,,,,,,,,,,,,,,,,,,,,,,,,,,,,139.77746106099949,None,space,0.6660687409967068,139.77746106099949,None,140.5108374939955,None,f,1,0.47671876800450264,140.5108374939955,None,141.0086775299933,None,,,,,,,,,,,,,,,,,,,,,,,,,,14,001,2021_Oct_07_0946,searchDisc4,2021.2.3,59.48143962197479,
Practice arrays/exp1a_trial_16_colour1_distractors4_l.png,l,f,,,,,0,3,3,13,,,,,,,,,,,,,,,,,,,,,,,,,,,,,,,,,,,,,,,,,,,,,,,,,,,,,,,,,,,142.01073390699457,None,space,0.048860239003261086,142.01073390699457,None,142.127772283995,None,f,1,0.6118845390010392,142.127772283995,None,142.75866439299716,None,,,,,,,,,,,,,,,,,,,,,,,,,,14,001,2021_Oct_07_0946,searchDisc4,2021.2.3,59.48143962197479,
Practice arrays/exp1a_trial_31_colour0_distractors0_l.png,l,f,,,,,0,4,4,15,,,,,,,,,,,,,,,,,,,,,,,,,,,,,,,,,,,,,,,,,,,,,,,,,,,,,,,,,,,143.76077576999523,None,space,0.3308497760008322,143.76077576999523,None,144.1610649649956,None,f,1,0.4826573929967708,144.1610649649956,None,144.67552197399345,None,,,,,,,,,,,,,,,,,,,,,,,,,,14,001,2021_Oct_07_0946,searchDisc4,2021.2.3,59.48143962197479,
Practice arrays/exp1a_trial_25_colour3_distractors1_l.png,l,f,,,,,0,5,5,11,,,,,,,,,,,,,,,,,,,,,,,,,,,,,,,,,,,,,,,,,,,,,,,,,,,,,,,,,,,145.6775505359983,None,space,0.38215904000389855,145.6775505359983,None,146.1276895339979,None,j,0,0.43614374000026146,146.1276895339979,None,146.59226354199927,None,,,,,,,,,,,,,,,,,,,,,,,,,,14,001,2021_Oct_07_0946,searchDisc4,2021.2.3,59.48143962197479,
Practice arrays/exp1a_trial_18_colour1_distractors19_l.png,l,f,,,,,0,6,6,8,,,,,,,,,,,,,,,,,,,,,,,,,,,,,,,,,,,,,,,,,,,,,,,,,,,,,,,,,,,147.59427578099712,None,space,0.17766599699825747,147.59427578099712,None,147.84446982299414,None,j,0,0.6554549929933273,147.84446982299414,None,148.52559801799362,None,,,,,,,,,,,,,,,,,,,,,,,,,,14,001,2021_Oct_07_0946,searchDisc4,2021.2.3,59.48143962197479,
Practice arrays/exp1a_trial_12_colour3_distractors9_r.png,r,j,,,,,0,7,7,5,,,,,,,,,,,,,,,,,,,,,,,,,,,,,,,,,,,,,,,,,,,,,,,,,,,,,,,,,,,149.5276610899964,None,space,0.9483557049970841,149.5276610899964,None,150.5436921779983,None,j,1,0.5403442530005123,150.5436921779983,None,151.10875834399485,None,,,,,,,,,,,,,,,,,,,,,,,,,,14,001,2021_Oct_07_0946,searchDisc4,2021.2.3,59.48143962197479,
Practice arrays/exp1a_trial_1_colour1_distractors4_r.png,r,j,,,,,0,8,8,1,,,,,,,,,,,,,,,,,,,,,,,,,,,,,,,,,,,,,,,,,,,,,,,,,,,,,,,,,,,152.1109423109956,None,space,0.621192507998785,152.1109423109956,None,152.81123853299505,None,j,1,0.7529158600009396,152.81123853299505,None,153.5922288399961,None,,,,,,,,,,,,,,,,,,,,,,,,,,14,001,2021_Oct_07_0946,searchDisc4,2021.2.3,59.48143962197479,
Practice arrays/exp1a_trial_21_colour2_distractors4_l.png,l,f,,,,,0,9,9,9,,,,,,,,,,,,,,,,,,,,,,,,,,,,,,,,,,,,,,,,,,,,,,,,,,,,,,,,,,,154.59435258199665,None,space,3.793981578994135,154.59435258199665,None,158.46137461699982,None,f,1,0.5909982989978744,158.46137461699982,None,159.0757190219956,None,,,,,,,,,,,,,,,,,,,,,,,,,,14,001,2021_Oct_07_0946,searchDisc4,2021.2.3,59.48143962197479,
Practice arrays/exp1a_trial_10_colour3_distractors1_r.png,r,j,,,,,0,10,10,4,,,,,,,,,,,,,,,,,,,,,,,,,,,,,,,,,,,,,,,,,,,,,,,,,,,,,,,,,,,160.0777686789952,None,space,0.3506280850051553,160.0777686789952,None,160.51078594999854,None,j,1,0.8296964390028734,160.51078594999854,None,161.35930614899553,None,,,,,,,,,,,,,,,,,,,,,,,,,,14,001,2021_Oct_07_0946,searchDisc4,2021.2.3,59.48143962197479,
Practice arrays/exp1a_trial_14_colour3_distractors31_r.png,r,j,,,,,0,11,11,6,,,,,,,,,,,,,,,,,,,,,,,,,,,,,,,,,,,,,,,,,,,,,,,,,,,,,,,,,,,162.36151376199996,None,space,0.3390693490000558,162.36151376199996,None,162.7781620349997,None,j,1,0.7143311270046979,162.7781620349997,None,163.5093577259977,None,,,,,,,,,,,,,,,,,,,,,,,,,,14,001,2021_Oct_07_0946,searchDisc4,2021.2.3,59.48143962197479,
Practice arrays/exp1a_trial_7_colour2_distractors9_r.png,r,j,,,,,0,12,12,2,,,,,,,,,,,,,,,,,,,,,,,,,,,,,,,,,,,,,,,,,,,,,,,,,,,,,,,,,,,164.51123011299933,None,space,0.421448157998384,164.51123011299933,None,165.0115883029939,None,j,1,0.6891291809952236,165.0115883029939,None,165.72607422899455,None,,,,,,,,,,,,,,,,,,,,,,,,,,14,001,2021_Oct_07_0946,searchDisc4,2021.2.3,59.48143962197479,
Practice arrays/exp1a_trial_27_colour3_distractors9_l.png,l,f,,,,,0,13,13,12,,,,,,,,,,,,,,,,,,,,,,,,,,,,,,,,,,,,,,,,,,,,,,,,,,,,,,,,,,,166.728085292998,None,space,0.34862982800405007,166.728085292998,None,167.14502631699725,None,f,1,0.5157002889973228,167.14502631699725,None,167.69274010999652,None,,,,,,,,,,,,,,,,,,,,,,,,,,14,001,2021_Oct_07_0946,searchDisc4,2021.2.3,59.48143962197479,
Practice arrays/exp1a_trial_23_colour2_distractors19_l.png,l,f,,,,,0,14,14,10,,,,,,,,,,,,,,,,,,,,,,,,,,,,,,,,,,,,,,,,,,,,,,,,,,,,,,,,,,,168.69492863999767,None,space,0.029937158004031517,168.69492863999767,None,168.79493278599693,None,f,1,0.7059656429992174,168.79493278599693,None,169.52615860799415,None,,,,,,,,,,,,,,,,,,,,,,,,,,14,001,2021_Oct_07_0946,searchDisc4,2021.2.3,59.48143962197479,
Practice arrays/exp1a_trial_0_colour1_distractors1_r.png,r,j,,,,,0,15,15,0,,,,,,,,,,,,,,,,,,,,,,,,,,,,,,,,,,,,,,,,,,,,,,,,,,,,,,,,,,,170.52768320399628,None,space,0.013170531005016528,170.52768320399628,None,170.60093337099534,None,j,1,0.6200167780043557,170.60093337099534,None,171.24290669899347,None,,,,,,,,,,,,,,,,,,,,,,,,,,14,001,2021_Oct_07_0946,searchDisc4,2021.2.3,59.48143962197479,
,,,,,,,,,,,,,,,,,,,,,,,,,,,,,,,,,,,,,,,,,,,,,,,,,,,,,,,,,,,,,,,,,,,,,,,,,,,,,,,,,,,,172.32829532100004,None,space,4.109630234001088,175.3117172669954,None,,,,,,,,,,,,,,,,,,,,14,001,2021_Oct_07_0946,searchDisc4,2021.2.3,59.48143962197479,
images/exp2c_trial_164_colour1_distractors31_r.png,r,j,2c,164,1,31,,,,,0,0,0,17,,,,,,,,,,,,,,,,,,,,,,,,,,,,,,,,,,,,,,,,,,,,,,,,,,,,,,,,,,,,,,,,,,,,,,,,,,,,179.84531933299877,None,space,2.0721056399997906,179.84531933299877,None,181.99966415299423,None,j,1,0.48577885100530693,181.99966415299423,None,182.5093150656947,None,None,182.5093150656947,None,,14,001,2021_Oct_07_0946,searchDisc4,2021.2.3,59.48143962197479,
images/exp1a_trial_148_colour2_distractors1_l.png,l,f,1a,148,2,1,,,,,0,1,1,193,,,,,,,,,,,,,,,,,,,,,,,,,,,,,,,,,,,,,,,,,,,,,,,,,,,,,,,,,,,,,,,,,,,,,,,,,,,,182.52799553899968,None,space,0.869432940002298,182.52799553899968,None,183.47871247299918,None,f,1,0.5348070479958551,183.47871247299918,None,184.04338784969588,None,None,184.04338784969588,None,,14,001,2021_Oct_07_0946,searchDisc4,2021.2.3,59.48143962197479,
images/exp1b_trial_4_colour1_distractors31_r.png,r,j,1b,4,1,31,,,,,0,2,2,241,,,,,,,,,,,,,,,,,,,,,,,,,,,,,,,,,,,,,,,,,,,,,,,,,,,,,,,,,,,,,,,,,,,,,,,,,,,,184.0431969209967,None,space,0.5382500069972593,184.0431969209967,None,184.66204116599692,None,j,1,0.9595576459978474,184.66204116599692,None,185.6431033106972,None,None,185.6431033106972,None,,14,001,2021_Oct_07_0946,searchDisc4,2021.2.3,59.48143962197479,
images/exp2c_trial_170_colour3_distractors1_r.png,r,j,2c,170,3,1,,,,,0,3,3,23,,,,,,,,,,,,,,,,,,,,,,,,,,,,,,,,,,,,,,,,,,,,,,,,,,,,,,,,,,,,,,,,,,,,,,,,,,,,185.64286535599967,None,space,1.3947924680032884,185.64286535599967,None,187.11212083299324,None,j,1,0.41352668500621803,187.11212083299324,None,187.5434596526946,None,None,187.5434596526946,None,,14,001,2021_Oct_07_0946,searchDisc4,2021.2.3,59.48143962197479,
images/exp2c_trial_17_colour1_distractors9_l.png,l,f,2c,17,1,9,,,,,0,4,4,830,,,,,,,,,,,,,,,,,,,,,,,,,,,,,,,,,,,,,,,,,,,,,,,,,,,,,,,,,,,,,,,,,,,,,,,,,,,,187.54236826799752,None,space,0.5912423780027893,187.54236826799752,None,188.19277379899722,None,f,1,0.5569807510037208,188.19277379899722,None,188.77692761669897,None,None,188.77692761669897,None,,14,001,2021_Oct_07_0946,searchDisc4,2021.2.3,59.48143962197479,
images/exp2a_trial_11_colour3_distractors4_r.png,r,j,2a,11,3,4,,,,,0,5,5,440,,,,,,,,,,,,,,,,,,,,,,,,,,,,,,,,,,,,,,,,,,,,,,,,,,,,,,,,,,,,,,,,,,,,,,,,,,,,188.77642645799642,None,space,0.5653089620027458,188.77642645799642,None,189.4121849019939,None,j,1,0.5376381710011628,189.4121849019939,None,189.9770316787006,None,None,189.9770316787006,None,,14,001,2021_Oct_07_0946,searchDisc4,2021.2.3,59.48143962197479,
images/exp2a_trial_107_colour3_distractors4_r.png,r,j,2a,107,3,4,,,,,0,6,6,536,,,,,,,,,,,,,,,,,,,,,,,,,,,,,,,,,,,,,,,,,,,,,,,,,,,,,,,,,,,,,,,,,,,,,,,,,,,,189.97610928099311,None,space,0.46166641500167316,189.97610928099311,None,190.5121879369981,None,j,1,0.6056716259990935,190.5121879369981,None,191.14353491469666,None,None,191.14353491469666,None,,14,001,2021_Oct_07_0946,searchDisc4,2021.2.3,59.48143962197479,
images/exp1b_trial_135_colour2_distractors9_r.png,r,j,1b,135,2,9,,,,,0,7,7,372,,,,,,,,,,,,,,,,,,,,,,,,,,,,,,,,,,,,,,,,,,,,,,,,,,,,,,,,,,,,,,,,,,,,,,,,,,,,191.1425303109936,None,space,0.47931580300064525,191.1425303109936,None,191.695609685994,None,j,1,0.9583252159936819,191.695609685994,None,192.67656029969368,None,None,192.67656029969368,None,,14,001,2021_Oct_07_0946,searchDisc4,2021.2.3,59.48143962197479,
images/exp2c_trial_90_colour3_distractors4_l.png,l,f,2c,90,3,4,,,,,0,8,8,903,,,,,,,,,,,,,,,,,,,,,,,,,,,,,,,,,,,,,,,,,,,,,,,,,,,,,,,,,,,,,,,,,,,,,,,,,,,,192.67626101899805,None,space,0.47358350900321966,192.67626101899805,None,193.22894847599673,None,f,1,0.5610372579976683,193.22894847599673,None,193.8105257976975,None,None,193.8105257976975,None,,14,001,2021_Oct_07_0946,searchDisc4,2021.2.3,59.48143962197479,
images/exp2a_trial_175_colour1_distractors1_l.png,l,f,2a,175,1,1,,,,,0,9,9,604,,,,,,,,,,,,,,,,,,,,,,,,,,,,,,,,,,,,,,,,,,,,,,,,,,,,,,,,,,,,,,,,,,,,,,,,,,,,193.81030008099333,None,space,0.43557132199930493,193.81030008099333,None,194.31830569799786,None,j,0,0.5117429390011239,194.31830569799786,None,194.86035403169518,None,None,194.86035403169518,None,,14,001,2021_Oct_07_0946,searchDisc4,2021.2.3,59.48143962197479,
images/exp1b_trial_110_colour3_distractors31_r.png,r,j,1b,110,3,31,,,,,0,10,10,347,,,,,,,,,,,,,,,,,,,,,,,,,,,,,,,,,,,,,,,,,,,,,,,,,,,,,,,,,,,,,,,,,,,,,,,,,,,,194.8603157119942,None,space,0.6016727450041799,194.8603157119942,None,195.5290234129934,None,j,1,0.8131139730030554,195.5290234129934,None,196.35999874870032,None,None,196.35999874870032,None,,14,001,2021_Oct_07_0946,searchDisc4,2021.2.3,59.48143962197479,
images/exp2c_trial_25_colour3_distractors1_l.png,l,f,2c,25,3,1,,,,,0,11,11,838,,,,,,,,,,,,,,,,,,,,,,,,,,,,,,,,,,,,,,,,,,,,,,,,,,,,,,,,,,,,,,,,,,,,,,,,,,,,196.36018276699906,None,space,0.4858168310020119,196.36018276699906,None,196.9183709899953,None,f,1,0.4877953589966637,196.9183709899953,None,197.4265441456999,None,None,197.4265441456999,None,,14,001,2021_Oct_07_0946,searchDisc4,2021.2.3,59.48143962197479,
images/exp2b_trial_48_colour1_distractors4_l.png,l,f,2b,48,1,4,,,,,0,12,12,669,,,,,,,,,,,,,,,,,,,,,,,,,,,,,,,,,,,,,,,,,,,,,,,,,,,,,,,,,,,,,,,,,,,,,,,,,,,,197.42675878599402,None,space,0.49933335399691714,197.42675878599402,None,197.9959531009954,None,f,1,0.6342672350001521,197.9959531009954,None,198.66049503569667,None,None,198.66049503569667,None,,14,001,2021_Oct_07_0946,searchDisc4,2021.2.3,59.48143962197479,
images/exp2b_trial_96_colour1_distractors1_r.png,r,j,2b,96,1,1,,,,,0,13,13,717,,,,,,,,,,,,,,,,,,,,,,,,,,,,,,,,,,,,,,,,,,,,,,,,,,,,,,,,,,,,,,,,,,,,,,,,,,,,198.6602192969949,None,space,0.40995457399549196,198.6602192969949,None,199.14578029299446,None,j,1,0.5404157459997805,199.14578029299446,None,199.7102546366994,None,None,199.7102546366994,None,,14,001,2021_Oct_07_0946,searchDisc4,2021.2.3,59.48143962197479,
images/exp2b_trial_162_colour1_distractors9_r.png,r,j,2b,162,1,9,,,,,0,14,14,783,,,,,,,,,,,,,,,,,,,,,,,,,,,,,,,,,,,,,,,,,,,,,,,,,,,,,,,,,,,,,,,,,,,,,,,,,,,,199.71052333399712,None,space,0.4557213200023398,199.71052333399712,None,200.2460462099989,None,j,1,0.5762680929983617,200.2460462099989,None,200.84374711869606,None,None,200.84374711869606,None,,14,001,2021_Oct_07_0946,searchDisc4,2021.2.3,59.48143962197479,
images/exp2b_trial_186_colour3_distractors4_l.png,l,f,2b,186,3,4,,,,,0,15,15,807,,,,,,,,,,,,,,,,,,,,,,,,,,,,,,,,,,,,,,,,,,,,,,,,,,,,,,,,,,,,,,,,,,,,,,,,,,,,200.8434333969999,None,space,0.48275751499750186,200.8434333969999,None,201.39606038799684,None,f,1,0.5783308710015262,201.39606038799684,None,201.99383123469744,None,None,201.99383123469744,None,,14,001,2021_Oct_07_0946,searchDisc4,2021.2.3,59.48143962197479,
images/exp2b_trial_113_colour1_distractors9_l.png,l,f,2b,113,1,9,,,,,0,16,16,734,,,,,,,,,,,,,,,,,,,,,,,,,,,,,,,,,,,,,,,,,,,,,,,,,,,,,,,,,,,,,,,,,,,,,,,,,,,,201.99344115499844,None,space,0.44489293199876556,201.99344115499844,None,202.51232750499912,None,f,1,0.59010040499561,202.51232750499912,None,203.12740798469605,None,None,203.12740798469605,None,,14,001,2021_Oct_07_0946,searchDisc4,2021.2.3,59.48143962197479,
images/exp2a_trial_130_colour1_distractors9_r.png,r,j,2a,130,1,9,,,,,0,17,17,559,,,,,,,,,,,,,,,,,,,,,,,,,,,,,,,,,,,,,,,,,,,,,,,,,,,,,,,,,,,,,,,,,,,,,,,,,,,,203.1269625269997,None,space,0.43948412400641246,203.1269625269997,None,203.6453350429947,None,j,1,0.5371398830029648,203.6453350429947,None,204.21046837169416,None,None,204.21046837169416,None,,14,001,2021_Oct_07_0946,searchDisc4,2021.2.3,59.48143962197479,
images/exp2c_trial_22_colour2_distractors9_l.png,l,f,2c,22,2,9,,,,,0,18,18,835,,,,,,,,,,,,,,,,,,,,,,,,,,,,,,,,,,,,,,,,,,,,,,,,,,,,,,,,,,,,,,,,,,,,,,,,,,,,204.21045326699823,None,space,0.4759881470017717,204.21045326699823,None,204.76257666799938,None,f,1,0.5239422539962106,204.76257666799938,None,205.3105274007001,None,None,205.3105274007001,None,,14,001,2021_Oct_07_0946,searchDisc4,2021.2.3,59.48143962197479,
images/exp2c_trial_79_colour1_distractors1_l.png,l,f,2c,79,1,1,,,,,0,19,19,892,,,,,,,,,,,,,,,,,,,,,,,,,,,,,,,,,,,,,,,,,,,,,,,,,,,,,,,,,,,,,,,,,,,,,,,,,,,,205.3105063329931,None,space,0.3839740920011536,205.3105063329931,None,205.76244953599962,None,f,1,0.4841465950012207,205.76244953599962,None,206.2771925206951,None,None,206.2771925206951,None,,14,001,2021_Oct_07_0946,searchDisc4,2021.2.3,59.48143962197479,
images/exp1a_trial_177_colour1_distractors9_l.png,l,f,1a,177,1,9,,,,,0,20,20,222,,,,,,,,,,,,,,,,,,,,,,,,,,,,,,,,,,,,,,,,,,,,,,,,,,,,,,,,,,,,,,,,,,,,,,,,,,,,206.27710382499936,None,space,0.42541675599932205,206.27710382499936,None,206.77942560899828,None,f,1,0.699211530998582,206.77942560899828,None,207.51067814869458,None,None,207.51067814869458,None,,14,001,2021_Oct_07_0946,searchDisc4,2021.2.3,59.48143962197479,
images/exp1a_trial_1_colour1_distractors4_r.png,r,j,1a,1,1,4,,,,,0,21,21,46,,,,,,,,,,,,,,,,,,,,,,,,,,,,,,,,,,,,,,,,,,,,,,,,,,,,,,,,,,,,,,,,,,,,,,,,,,,,207.50970087499445,None,space,0.3928577580009005,207.50970087499445,None,207.97919548699429,None,j,1,0.5473720110021532,207.97919548699429,None,208.5439684626952,None,None,208.5439684626952,None,,14,001,2021_Oct_07_0946,searchDisc4,2021.2.3,59.48143962197479,
images/exp1a_trial_54_colour2_distractors9_l.png,l,f,1a,54,2,9,,,,,0,22,22,99,,,,,,,,,,,,,,,,,,,,,,,,,,,,,,,,,,,,,,,,,,,,,,,,,,,,,,,,,,,,,,,,,,,,,,,,,,,,208.54287654299696,None,space,0.38365656600217335,208.54287654299696,None,208.99604873099452,None,f,1,0.6026677599948016,208.99604873099452,None,209.627321902696,None,None,209.627321902696,None,,14,001,2021_Oct_07_0946,searchDisc4,2021.2.3,59.48143962197479,
images/exp1b_trial_101_colour2_distractors1_r.png,r,j,1b,101,2,1,,,,,0,23,23,338,,,,,,,,,,,,,,,,,,,,,,,,,,,,,,,,,,,,,,,,,,,,,,,,,,,,,,,,,,,,,,,,,,,,,,,,,,,,209.6268408169999,None,space,0.4117487199982861,209.6268408169999,None,210.112516890993,None,j,1,0.742225314003008,210.112516890993,None,210.87731350069663,None,None,210.87731350069663,None,,14,001,2021_Oct_07_0946,searchDisc4,2021.2.3,59.48143962197479,
images/exp1a_trial_170_colour3_distractors1_r.png,r,j,1a,170,3,1,,,,,0,24,24,215,,,,,,,,,,,,,,,,,,,,,,,,,,,,,,,,,,,,,,,,,,,,,,,,,,,,,,,,,,,,,,,,,,,,,,,,,,,,210.8768353879932,None,space,0.3138909409972257,210.8768353879932,None,211.2626918399983,None,j,1,0.7041585229962948,211.2626918399983,None,211.9942445806999,None,None,211.9942445806999,None,,14,001,2021_Oct_07_0946,searchDisc4,2021.2.3,59.48143962197479,
images/exp2b_trial_116_colour2_distractors1_l.png,l,f,2b,116,2,1,,,,,0,25,25,737,,,,,,,,,,,,,,,,,,,,,,,,,,,,,,,,,,,,,,,,,,,,,,,,,,,,,,,,,,,,,,,,,,,,,,,,,,,,211.99414155499835,None,space,0.30865989300218644,211.99414155499835,None,212.37937846799468,None,f,1,0.5153764890055754,212.37937846799468,None,212.92724701169647,None,None,212.92724701169647,None,,14,001,2021_Oct_07_0946,searchDisc4,2021.2.3,59.48143962197479,
images/exp2b_trial_172_colour3_distractors9_r.png,r,j,2b,172,3,9,,,,,0,26,26,793,,,,,,,,,,,,,,,,,,,,,,,,,,,,,,,,,,,,,,,,,,,,,,,,,,,,,,,,,,,,,,,,,,,,,,,,,,,,212.927263450998,None,space,0.3834820990014123,212.927263450998,None,213.37948685499578,None,j,1,0.643434867997712,213.37948685499578,None,214.0444605356941,None,None,214.0444605356941,None,,14,001,2021_Oct_07_0946,searchDisc4,2021.2.3,59.48143962197479,
images/exp2a_trial_74_colour3_distractors1_r.png,r,j,2a,74,3,1,,,,,0,27,27,503,,,,,,,,,,,,,,,,,,,,,,,,,,,,,,,,,,,,,,,,,,,,,,,,,,,,,,,,,,,,,,,,,,,,,,,,,,,,214.04331625199848,None,space,0.3555673669980024,214.04331625199848,None,214.47899908499676,None,j,1,0.6478740899983677,214.47899908499676,None,215.14428617269442,None,None,215.14428617269442,None,,14,001,2021_Oct_07_0946,searchDisc4,2021.2.3,59.48143962197479,
images/exp2a_trial_36_colour1_distractors31_r.png,r,j,2a,36,1,31,,,,,0,28,28,465,,,,,,,,,,,,,,,,,,,,,,,,,,,,,,,,,,,,,,,,,,,,,,,,,,,,,,,,,,,,,,,,,,,,,,,,,,,,215.1438810069958,None,space,0.40707655000005616,215.1438810069958,None,215.62955675799458,None,j,1,0.5134294130039052,215.62955675799458,None,216.16076469969704,None,None,216.16076469969704,None,,14,001,2021_Oct_07_0946,searchDisc4,2021.2.3,59.48143962197479,
images/exp2c_trial_5_colour2_distractors1_r.png,r,j,2c,5,2,1,,,,,0,29,29,818,,,,,,,,,,,,,,,,,,,,,,,,,,,,,,,,,,,,,,,,,,,,,,,,,,,,,,,,,,,,,,,,,,,,,,,,,,,,216.16064796899445,None,space,0.3822882840031525,216.16064796899445,None,216.61304591899534,None,j,1,0.48202904900244903,216.61304591899534,None,217.12766327470018,None,None,217.12766327470018,None,,14,001,2021_Oct_07_0946,searchDisc4,2021.2.3,59.48143962197479,
images/exp2a_trial_10_colour3_distractors1_r.png,r,j,2a,10,3,1,,,,,0,30,30,439,,,,,,,,,,,,,,,,,,,,,,,,,,,,,,,,,,,,,,,,,,,,,,,,,,,,,,,,,,,,,,,,,,,,,,,,,,,,217.12723414699576,None,space,0.4238187359951553,217.12723414699576,None,217.62942729399947,None,j,1,0.553688947999035,217.62942729399947,None,218.21044069369674,None,None,218.21044069369674,None,,14,001,2021_Oct_07_0946,searchDisc4,2021.2.3,59.48143962197479,
images/exp2a_trial_168_colour2_distractors19_r.png,r,j,2a,168,2,19,,,,,0,31,31,597,,,,,,,,,,,,,,,,,,,,,,,,,,,,,,,,,,,,,,,,,,,,,,,,,,,,,,,,,,,,,,,,,,,,,,,,,,,,218.21016122199944,None,space,0.38089506499818526,218.21016122199944,None,218.662507189998,None,j,1,0.4966739039955428,218.662507189998,None,219.1770015176997,None,None,219.1770015176997,None,,14,001,2021_Oct_07_0946,searchDisc4,2021.2.3,59.48143962197479,
images/exp1a_trial_63_colour0_distractors0_l.png,l,f,1a,63,0,0,,,,,0,32,32,108,,,,,,,,,,,,,,,,,,,,,,,,,,,,,,,,,,,,,,,,,,,,,,,,,,,,,,,,,,,,,,,,,,,,,,,,,,,,219.17672731699713,None,space,0.4144012600008864,219.17672731699713,None,219.66299618299672,None,f,1,0.5042091170034837,219.66299618299672,None,220.19386334169832,None,None,220.19386334169832,None,,14,001,2021_Oct_07_0946,searchDisc4,2021.2.3,59.48143962197479,
images/exp2a_trial_142_colour3_distractors31_r.png,r,j,2a,142,3,31,,,,,0,33,33,571,,,,,,,,,,,,,,,,,,,,,,,,,,,,,,,,,,,,,,,,,,,,,,,,,,,,,,,,,,,,,,,,,,,,,,,,,,,,220.19344689699938,None,space,0.30972414999996545,220.19344689699938,None,220.57899306799663,None,j,1,0.5402576810010942,220.57899306799663,None,221.14369205469558,None,None,221.14369205469558,None,,14,001,2021_Oct_07_0946,searchDisc4,2021.2.3,59.48143962197479,
images/exp1b_trial_91_colour3_distractors9_l.png,l,f,1b,91,3,9,,,,,0,34,34,328,,,,,,,,,,,,,,,,,,,,,,,,,,,,,,,,,,,,,,,,,,,,,,,,,,,,,,,,,,,,,,,,,,,,,,,,,,,,221.14379103099782,None,space,0.3354248309988179,221.14379103099782,None,221.54622993499652,None,f,1,0.6690823749959236,221.54622993499652,None,222.2442734106997,None,None,222.2442734106997,None,,14,001,2021_Oct_07_0946,searchDisc4,2021.2.3,59.48143962197479,
images/exp1b_trial_17_colour1_distractors9_l.png,l,f,1b,17,1,9,,,,,0,35,35,254,,,,,,,,,,,,,,,,,,,,,,,,,,,,,,,,,,,,,,,,,,,,,,,,,,,,,,,,,,,,,,,,,,,,,,,,,,,,222.24389134199737,None,space,0.33935253100207774,222.24389134199737,None,222.66304224599298,None,f,1,0.5841894429977401,222.66304224599298,None,223.2777362396999,None,None,223.2777362396999,None,,14,001,2021_Oct_07_0946,searchDisc4,2021.2.3,59.48143962197479,
images/exp1a_trial_6_colour2_distractors4_r.png,r,j,1a,6,2,4,,,,,0,36,36,51,,,,,,,,,,,,,,,,,,,,,,,,,,,,,,,,,,,,,,,,,,,,,,,,,,,,,,,,,,,,,,,,,,,,,,,,,,,,223.27741560199502,None,space,0.3938778099982301,223.27741560199502,None,223.74646013599704,None,j,1,0.4769388290005736,223.74646013599704,None,224.24394622169785,None,None,224.24394622169785,None,,14,001,2021_Oct_07_0946,searchDisc4,2021.2.3,59.48143962197479,
images/exp2b_trial_18_colour1_distractors19_l.png,l,f,2b,18,1,19,,,,,0,37,37,639,,,,,,,,,,,,,,,,,,,,,,,,,,,,,,,,,,,,,,,,,,,,,,,,,,,,,,,,,,,,,,,,,,,,,,,,,,,,224.24356866000016,None,space,0.41971510399889667,224.24356866000016,None,224.74641325799894,None,f,1,0.5170296969954506,224.74641325799894,None,225.2946574946953,None,None,225.2946574946953,None,,14,001,2021_Oct_07_0946,searchDisc4,2021.2.3,59.48143962197479,
images/exp2c_trial_132_colour1_distractors31_r.png,r,j,2c,132,1,31,,,,,0,38,38,945,,,,,,,,,,,,,,,,,,,,,,,,,,,,,,,,,,,,,,,,,,,,,,,,,,,,,,,,,,,,,,,,,,,,,,,,,,,,225.29347401899577,None,space,0.34592532500391826,225.29347401899577,None,225.71292948199698,None,j,1,0.606582108004659,225.71292948199698,None,226.34446068669496,None,None,226.34446068669496,None,,14,001,2021_Oct_07_0946,searchDisc4,2021.2.3,59.48143962197479,
images/exp2c_trial_167_colour2_distractors9_r.png,r,j,2c,167,2,9,,,,,0,39,39,20,,,,,,,,,,,,,,,,,,,,,,,,,,,,,,,,,,,,,,,,,,,,,,,,,,,,,,,,,,,,,,,,,,,,,,,,,,,,226.34403430999373,None,space,0.29540975900454214,226.34403430999373,None,226.7131558109977,None,j,1,0.5264104590023635,226.7131558109977,None,227.2611376906978,None,None,227.2611376906978,None,,14,001,2021_Oct_07_0946,searchDisc4,2021.2.3,59.48143962197479,
images/exp1b_trial_177_colour1_distractors9_l.png,l,f,1b,177,1,9,,,,,0,40,40,414,,,,,,,,,,,,,,,,,,,,,,,,,,,,,,,,,,,,,,,,,,,,,,,,,,,,,,,,,,,,,,,,,,,,,,,,,,,,227.26072507799836,None,space,0.4107753659991431,227.26072507799836,None,227.74669963299675,None,f,1,0.5647742170040146,227.74669963299675,None,228.3444772606934,None,None,228.3444772606934,None,,14,001,2021_Oct_07_0946,searchDisc4,2021.2.3,59.48143962197479,
images/exp2b_trial_174_colour3_distractors31_r.png,r,j,2b,174,3,31,,,,,0,41,41,795,,,,,,,,,,,,,,,,,,,,,,,,,,,,,,,,,,,,,,,,,,,,,,,,,,,,,,,,,,,,,,,,,,,,,,,,,,,,228.3440576149951,None,space,0.40740551899943966,228.3440576149951,None,228.82991554099863,None,j,1,0.5617171070043696,228.82991554099863,None,229.41093676369638,None,None,229.41093676369638,None,,14,001,2021_Oct_07_0946,searchDisc4,2021.2.3,59.48143962197479,
images/exp1b_trial_30_colour0_distractors0_r.png,r,j,1b,30,0,0,,,,,0,42,42,267,,,,,,,,,,,,,,,,,,,,,,,,,,,,,,,,,,,,,,,,,,,,,,,,,,,,,,,,,,,,,,,,,,,,,,,,,,,,229.4109777509948,None,space,0.3726299990012194,229.4109777509948,None,229.86322525599826,None,j,1,0.504460456999368,229.86322525599826,None,230.39453972769553,None,None,230.39453972769553,None,,14,001,2021_Oct_07_0946,searchDisc4,2021.2.3,59.48143962197479,
images/exp2a_trial_68_colour1_distractors31_r.png,r,j,2a,68,1,31,,,,,0,43,43,497,,,,,,,,,,,,,,,,,,,,,,,,,,,,,,,,,,,,,,,,,,,,,,,,,,,,,,,,,,,,,,,,,,,,,,,,,,,,230.3942309529957,None,space,0.3894116169976769,230.3942309529957,None,230.86327924299985,None,j,1,0.5443284279972431,230.86327924299985,None,231.4280564116969,None,None,231.4280564116969,None,,14,001,2021_Oct_07_0946,searchDisc4,2021.2.3,59.48143962197479,
images/exp1b_trial_76_colour3_distractors9_r.png,r,j,1b,76,3,9,,,,,0,44,44,313,,,,,,,,,,,,,,,,,,,,,,,,,,,,,,,,,,,,,,,,,,,,,,,,,,,,,,,,,,,,,,,,,,,,,,,,,,,,231.42731529799494,None,space,0.3403033660069923,231.42731529799494,None,231.84667153099872,None,j,1,0.5370612920014537,231.84667153099872,None,232.41134937669705,None,None,232.41134937669705,None,,14,001,2021_Oct_07_0946,searchDisc4,2021.2.3,59.48143962197479,
images/exp1b_trial_98_colour1_distractors9_r.png,r,j,1b,98,1,9,,,,,0,45,45,335,,,,,,,,,,,,,,,,,,,,,,,,,,,,,,,,,,,,,,,,,,,,,,,,,,,,,,,,,,,,,,,,,,,,,,,,,,,,232.41104585399444,None,space,0.35665496900037397,232.41104585399444,None,232.84668824599794,None,j,1,0.5930933210038347,232.84668824599794,None,233.46135208469497,None,None,233.46135208469497,None,,14,001,2021_Oct_07_0946,searchDisc4,2021.2.3,59.48143962197479,
images/exp1b_trial_173_colour3_distractors19_r.png,r,j,1b,173,3,19,,,,,0,46,46,410,,,,,,,,,,,,,,,,,,,,,,,,,,,,,,,,,,,,,,,,,,,,,,,,,,,,,,,,,,,,,,,,,,,,,,,,,,,,233.4601987539936,None,space,0.36346842399507295,233.4601987539936,None,233.89671067499876,None,j,1,0.5751226630018209,233.89671067499876,None,234.4945726356935,None,None,234.4945726356935,None,,14,001,2021_Oct_07_0946,searchDisc4,2021.2.3,59.48143962197479,
images/exp2a_trial_187_colour3_distractors9_l.png,l,f,2a,187,3,9,,,,,0,47,47,616,,,,,,,,,,,,,,,,,,,,,,,,,,,,,,,,,,,,,,,,,,,,,,,,,,,,,,,,,,,,,,,,,,,,,,,,,,,,234.49417462099518,None,space,0.3936382030005916,234.49417462099518,None,234.96322188199701,None,f,1,0.5805793420004193,234.96322188199701,None,235.56135512469774,None,None,235.56135512469774,None,,14,001,2021_Oct_07_0946,searchDisc4,2021.2.3,59.48143962197479,
images/exp2a_trial_118_colour2_distractors9_l.png,l,f,2a,118,2,9,,,,,0,48,48,547,,,,,,,,,,,,,,,,,,,,,,,,,,,,,,,,,,,,,,,,,,,,,,,,,,,,,,,,,,,,,,,,,,,,,,,,,,,,235.56114324399823,None,space,0.34272758400038583,235.56114324399823,None,235.97995015399647,None,j,0,0.6120243160039536,235.97995015399647,None,236.61130052869413,None,None,236.61130052869413,None,,14,001,2021_Oct_07_0946,searchDisc4,2021.2.3,59.48143962197479,
images/exp2c_trial_144_colour1_distractors4_l.png,l,f,2c,144,1,4,,,,,0,49,49,957,,,,,,,,,,,,,,,,,,,,,,,,,,,,,,,,,,,,,,,,,,,,,,,,,,,,,,,,,,,,,,,,,,,,,,,,,,,,236.61106118999305,None,space,0.3728496869953233,236.61106118999305,None,237.063389911993,None,f,1,0.5046073390039965,237.063389911993,None,237.5942660816989,None,None,237.5942660816989,None,,14,001,2021_Oct_07_0946,searchDisc4,2021.2.3,59.48143962197479,
images/exp1a_trial_5_colour2_distractors1_r.png,r,j,1a,5,2,1,,,,,0,50,50,50,,,,,,,,,,,,,,,,,,,,,,,,,,,,,,,,,,,,,,,,,,,,,,,,,,,,,,,,,,,,,,,,,,,,,,,,,,,,237.59409659099765,None,space,0.3497756750002736,237.59409659099765,None,238.0134062319994,None,j,1,0.53053476200148,238.0134062319994,None,238.56175279169548,None,None,238.56175279169548,None,,14,001,2021_Oct_07_0946,searchDisc4,2021.2.3,59.48143962197479,
images/exp1b_trial_63_colour0_distractors0_l.png,l,f,1b,63,0,0,,,,,0,51,51,300,,,,,,,,,,,,,,,,,,,,,,,,,,,,,,,,,,,,,,,,,,,,,,,,,,,,,,,,,,,,,,,,,,,,,,,,,,,,238.56051689799642,None,space,0.34349182400183054,238.56051689799642,None,238.98009622399695,None,f,1,0.6840132259967504,238.98009622399695,None,239.69479813169602,None,None,239.69479813169602,None,,14,001,2021_Oct_07_0946,searchDisc4,2021.2.3,59.48143962197479,
images/exp1b_trial_82_colour1_distractors19_l.png,l,f,1b,82,1,19,,,,,0,52,52,319,,,,,,,,,,,,,,,,,,,,,,,,,,,,,,,,,,,,,,,,,,,,,,,,,,,,,,,,,,,,,,,,,,,,,,,,,,,,239.69449528099358,None,space,0.33755305699742166,239.69449528099358,None,240.11337093199836,None,f,1,0.6707963599983486,240.11337093199836,None,240.81123206469493,None,None,240.81123206469493,None,,14,001,2021_Oct_07_0946,searchDisc4,2021.2.3,59.48143962197479,
images/exp1b_trial_32_colour1_distractors1_r.png,r,j,1b,32,1,1,,,,,0,53,53,269,,,,,,,,,,,,,,,,,,,,,,,,,,,,,,,,,,,,,,,,,,,,,,,,,,,,,,,,,,,,,,,,,,,,,,,,,,,,240.81128348299535,None,space,0.30081379000330344,240.81128348299535,None,241.18004062899854,None,j,1,0.7640622769977199,241.18004062899854,None,241.96165230069602,None,None,241.96165230069602,None,,14,001,2021_Oct_07_0946,searchDisc4,2021.2.3,59.48143962197479,
images/exp2a_trial_79_colour1_distractors1_l.png,l,f,2a,79,1,1,,,,,0,54,54,508,,,,,,,,,,,,,,,,,,,,,,,,,,,,,,,,,,,,,,,,,,,,,,,,,,,,,,,,,,,,,,,,,,,,,,,,,,,,241.96067550999578,None,space,0.29547671299951617,241.96067550999578,None,242.33028511099837,None,f,1,0.5739699999976438,242.33028511099837,None,242.92824920969434,None,None,242.92824920969434,None,,14,001,2021_Oct_07_0946,searchDisc4,2021.2.3,59.48143962197479,
images/exp1a_trial_35_colour1_distractors19_r.png,r,j,1a,35,1,19,,,,,0,55,55,80,,,,,,,,,,,,,,,,,,,,,,,,,,,,,,,,,,,,,,,,,,,,,,,,,,,,,,,,,,,,,,,,,,,,,,,,,,,,242.92798183099512,None,space,0.34424790799675975,242.92798183099512,None,243.34687769699667,None,j,1,0.5414210939998156,243.34687769699667,None,243.91122103969684,None,None,243.91122103969684,None,,14,001,2021_Oct_07_0946,searchDisc4,2021.2.3,59.48143962197479,
images/exp2c_trial_9_colour2_distractors31_r.png,r,j,2c,9,2,31,,,,,0,56,56,822,,,,,,,,,,,,,,,,,,,,,,,,,,,,,,,,,,,,,,,,,,,,,,,,,,,,,,,,,,,,,,,,,,,,,,,,,,,,243.91142780999508,None,space,0.34482172800198896,243.91142780999508,None,244.33014466899476,None,j,1,0.5981123989986372,244.33014466899476,None,244.96163369469724,None,None,244.96163369469724,None,,14,001,2021_Oct_07_0946,searchDisc4,2021.2.3,59.48143962197479,
images/exp2c_trial_50_colour1_distractors19_l.png,l,f,2c,50,1,19,,,,,0,57,57,863,,,,,,,,,,,,,,,,,,,,,,,,,,,,,,,,,,,,,,,,,,,,,,,,,,,,,,,,,,,,,,,,,,,,,,,,,,,,244.96113219799736,None,space,0.33523344000423094,244.96113219799736,None,245.36364521899668,None,f,1,0.5647665829965263,245.36364521899668,None,245.9453857917004,None,None,245.9453857917004,None,,14,001,2021_Oct_07_0946,searchDisc4,2021.2.3,59.48143962197479,
images/exp2b_trial_117_colour2_distractors4_l.png,l,f,2b,117,2,4,,,,,0,58,58,738,,,,,,,,,,,,,,,,,,,,,,,,,,,,,,,,,,,,,,,,,,,,,,,,,,,,,,,,,,,,,,,,,,,,,,,,,,,,245.9441791499994,None,space,0.34415731899935054,245.9441791499994,None,246.35343083399493,None,f,1,0.5589311860021553,246.35343083399493,None,246.94484204969632,None,None,246.94484204969632,None,,14,001,2021_Oct_07_0946,searchDisc4,2021.2.3,59.48143962197479,
images/exp2a_trial_163_colour1_distractors19_r.png,r,j,2a,163,1,19,,,,,0,59,59,592,,,,,,,,,,,,,,,,,,,,,,,,,,,,,,,,,,,,,,,,,,,,,,,,,,,,,,,,,,,,,,,,,,,,,,,,,,,,246.94456347300002,None,space,0.3597537710011238,246.94456347300002,None,247.38030892999814,None,j,1,0.5960727549972944,247.38030892999814,None,247.994097964697,None,None,247.994097964697,None,,14,001,2021_Oct_07_0946,searchDisc4,2021.2.3,59.48143962197479,
images/exp2b_trial_120_colour2_distractors31_l.png,l,f,2b,120,2,31,,,,,0,60,60,741,,,,,,,,,,,,,,,,,,,,,,,,,,,,,,,,,,,,,,,,,,,,,,,,,,,,,,,,,,,,,,,,,,,,,,,,,,,,247.99480696799583,None,space,0.3256214649954927,247.99480696799583,None,248.39698240099824,None,f,1,0.555446213002142,248.39698240099824,None,248.97843768169406,None,None,248.97843768169406,None,,14,001,2021_Oct_07_0946,searchDisc4,2021.2.3,59.48143962197479,
images/exp2a_trial_59_colour3_distractors9_l.png,l,f,2a,59,3,9,,,,,0,61,61,488,,,,,,,,,,,,,,,,,,,,,,,,,,,,,,,,,,,,,,,,,,,,,,,,,,,,,,,,,,,,,,,,,,,,,,,,,,,,248.97811997699318,None,space,0.34238792899850523,248.97811997699318,None,249.3969552099952,None,f,1,0.6356354009985807,249.3969552099952,None,250.06186410969968,None,None,250.06186410969968,None,,14,001,2021_Oct_07_0946,searchDisc4,2021.2.3,59.48143962197479,
images/exp2c_trial_142_colour3_distractors31_r.png,r,j,2c,142,3,31,,,,,0,62,62,955,,,,,,,,,,,,,,,,,,,,,,,,,,,,,,,,,,,,,,,,,,,,,,,,,,,,,,,,,,,,,,,,,,,,,,,,,,,,250.06174137599737,None,space,0.330808231003175,250.06174137599737,None,250.4633229989995,None,j,1,0.67329611400055,250.4633229989995,None,251.161777562699,None,None,251.161777562699,None,,14,001,2021_Oct_07_0946,searchDisc4,2021.2.3,59.48143962197479,
images/exp1a_trial_147_colour1_distractors31_l.png,l,f,1a,147,1,31,,,,,0,63,63,192,,,,,,,,,,,,,,,,,,,,,,,,,,,,,,,,,,,,,,,,,,,,,,,,,,,,,,,,,,,,,,,,,,,,,,,,,,,,251.1615380219955,None,space,0.2950463769957423,251.1615380219955,None,251.5303299799998,None,f,1,0.5503437200022745,251.5303299799998,None,252.11182803269622,None,None,252.11182803269622,None,,14,001,2021_Oct_07_0946,searchDisc4,2021.2.3,59.48143962197479,
images/exp2c_trial_113_colour1_distractors9_l.png,l,f,2c,113,1,9,,,,,0,64,64,926,,,,,,,,,,,,,,,,,,,,,,,,,,,,,,,,,,,,,,,,,,,,,,,,,,,,,,,,,,,,,,,,,,,,,,,,,,,,252.1115947569997,None,space,0.3450311979977414,252.1115947569997,None,252.530317369994,None,f,1,0.5504206719997455,252.530317369994,None,253.11187896469784,None,None,253.11187896469784,None,,14,001,2021_Oct_07_0946,searchDisc4,2021.2.3,59.48143962197479,
images/exp2b_trial_83_colour1_distractors31_l.png,l,f,2b,83,1,31,,,,,0,65,65,704,,,,,,,,,,,,,,,,,,,,,,,,,,,,,,,,,,,,,,,,,,,,,,,,,,,,,,,,,,,,,,,,,,,,,,,,,,,,253.11169239399896,None,space,0.3689051390028908,253.11169239399896,None,253.56390993099922,None,f,1,0.7888521569984732,253.56390993099922,None,254.37781795170014,None,None,254.37781795170014,None,,14,001,2021_Oct_07_0946,searchDisc4,2021.2.3,59.48143962197479,
images/exp2a_trial_60_colour3_distractors19_l.png,l,f,2a,60,3,19,,,,,0,66,66,489,,,,,,,,,,,,,,,,,,,,,,,,,,,,,,,,,,,,,,,,,,,,,,,,,,,,,,,,,,,,,,,,,,,,,,,,,,,,254.37795346599887,None,space,0.3827012379988446,254.37795346599887,None,254.8305006429946,None,f,1,0.8103253419976681,254.8305006429946,None,255.6612802656935,None,None,255.6612802656935,None,,14,001,2021_Oct_07_0946,searchDisc4,2021.2.3,59.48143962197479,
images/exp2a_trial_116_colour2_distractors1_l.png,l,f,2a,116,2,1,,,,,0,67,67,545,,,,,,,,,,,,,,,,,,,,,,,,,,,,,,,,,,,,,,,,,,,,,,,,,,,,,,,,,,,,,,,,,,,,,,,,,,,,255.66145501399296,None,space,0.2913473519947729,255.66145501399296,None,256.0304777969941,None,f,1,0.458386423997581,256.0304777969941,None,256.51160993769446,None,None,256.51160993769446,None,,14,001,2021_Oct_07_0946,searchDisc4,2021.2.3,59.48143962197479,
images/exp1b_trial_9_colour2_distractors31_r.png,r,j,1b,9,2,31,,,,,0,68,68,246,,,,,,,,,,,,,,,,,,,,,,,,,,,,,,,,,,,,,,,,,,,,,,,,,,,,,,,,,,,,,,,,,,,,,,,,,,,,256.51133474099333,None,space,0.31348856200202135,256.51133474099333,None,256.8969807359972,None,j,1,0.695932686998276,256.8969807359972,None,257.6110152536974,None,None,257.6110152536974,None,,14,001,2021_Oct_07_0946,searchDisc4,2021.2.3,59.48143962197479,
images/exp1b_trial_95_colour0_distractors0_l.png,l,f,1b,95,0,0,,,,,0,69,69,332,,,,,,,,,,,,,,,,,,,,,,,,,,,,,,,,,,,,,,,,,,,,,,,,,,,,,,,,,,,,,,,,,,,,,,,,,,,,257.61131800199655,None,space,0.3014659200052847,257.61131800199655,None,257.9804845239996,None,f,1,0.6524524850028683,257.9804845239996,None,258.66195100169426,None,None,258.66195100169426,None,,14,001,2021_Oct_07_0946,searchDisc4,2021.2.3,59.48143962197479,
images/exp1b_trial_85_colour2_distractors4_l.png,l,f,1b,85,2,4,,,,,0,70,70,322,,,,,,,,,,,,,,,,,,,,,,,,,,,,,,,,,,,,,,,,,,,,,,,,,,,,,,,,,,,,,,,,,,,,,,,,,,,,258.66171318299894,None,space,0.2431821909995051,258.66171318299894,None,258.9806102379953,None,f,1,0.780338048003614,258.9806102379953,None,259.7786616216952,None,None,259.7786616216952,None,,14,001,2021_Oct_07_0946,searchDisc4,2021.2.3,59.48143962197479,
images/exp2a_trial_100_colour1_distractors31_r.png,r,j,2a,100,1,31,,,,,0,71,71,529,,,,,,,,,,,,,,,,,,,,,,,,,,,,,,,,,,,,,,,,,,,,,,,,,,,,,,,,,,,,,,,,,,,,,,,,,,,,259.7777103759945,None,space,0.2632414770050673,259.7777103759945,None,260.1140414419933,None,j,1,0.5910029890001169,260.1140414419933,None,260.72870045969904,None,None,260.72870045969904,None,,14,001,2021_Oct_07_0946,searchDisc4,2021.2.3,59.48143962197479,
images/exp2a_trial_22_colour2_distractors9_l.png,l,f,2a,22,2,9,,,,,0,72,72,451,,,,,,,,,,,,,,,,,,,,,,,,,,,,,,,,,,,,,,,,,,,,,,,,,,,,,,,,,,,,,,,,,,,,,,,,,,,,260.72844399299356,None,space,0.28050127800088376,260.72844399299356,None,261.08053048599686,None,f,1,0.5604607810018933,261.08053048599686,None,261.6612080646999,None,None,261.6612080646999,None,,14,001,2021_Oct_07_0946,searchDisc4,2021.2.3,59.48143962197479,
images/exp2b_trial_187_colour3_distractors9_l.png,l,f,2b,187,3,9,,,,,0,73,73,808,,,,,,,,,,,,,,,,,,,,,,,,,,,,,,,,,,,,,,,,,,,,,,,,,,,,,,,,,,,,,,,,,,,,,,,,,,,,261.6615247459995,None,space,0.3394173620035872,261.6615247459995,None,262.0800719149993,None,f,1,0.5210196849948261,262.0800719149993,None,262.6284796356966,None,None,262.6284796356966,None,,14,001,2021_Oct_07_0946,searchDisc4,2021.2.3,59.48143962197479,
images/exp2c_trial_143_colour1_distractors1_l.png,l,f,2c,143,1,1,,,,,0,74,74,956,,,,,,,,,,,,,,,,,,,,,,,,,,,,,,,,,,,,,,,,,,,,,,,,,,,,,,,,,,,,,,,,,,,,,,,,,,,,262.6283292609951,None,space,0.3567556420020992,262.6283292609951,None,263.0638429719984,None,f,1,0.5212678570023854,263.0638429719984,None,263.61189838970023,None,None,263.61189838970023,None,,14,001,2021_Oct_07_0946,searchDisc4,2021.2.3,59.48143962197479,
images/exp2c_trial_109_colour3_distractors19_r.png,r,j,2c,109,3,19,,,,,0,75,75,922,,,,,,,,,,,,,,,,,,,,,,,,,,,,,,,,,,,,,,,,,,,,,,,,,,,,,,,,,,,,,,,,,,,,,,,,,,,,263.61157445299614,None,space,0.34947192999970866,263.61157445299614,None,264.03034939699864,None,j,1,0.44282694900175557,264.03034939699864,None,264.49464898669686,None,None,264.49464898669686,None,,14,001,2021_Oct_07_0946,searchDisc4,2021.2.3,59.48143962197479,
images/exp2c_trial_20_colour2_distractors1_l.png,l,f,2c,20,2,1,,,,,0,76,76,833,,,,,,,,,,,,,,,,,,,,,,,,,,,,,,,,,,,,,,,,,,,,,,,,,,,,,,,,,,,,,,,,,,,,,,,,,,,,264.4953532609943,None,space,0.31374336600129027,264.4953532609943,None,264.88069527100015,None,f,1,0.480479149002349,264.88069527100015,None,265.37859020769685,None,None,265.37859020769685,None,,14,001,2021_Oct_07_0946,searchDisc4,2021.2.3,59.48143962197479,
images/exp1b_trial_152_colour2_distractors31_l.png,l,f,1b,152,2,31,,,,,0,77,77,389,,,,,,,,,,,,,,,,,,,,,,,,,,,,,,,,,,,,,,,,,,,,,,,,,,,,,,,,,,,,,,,,,,,,,,,,,,,,265.3776898379947,None,space,0.33545785900059855,265.3776898379947,None,265.7804514669988,None,f,1,0.596778450999409,265.7804514669988,None,266.39475222669427,None,None,266.39475222669427,None,,14,001,2021_Oct_07_0946,searchDisc4,2021.2.3,59.48143962197479,
images/exp2c_trial_97_colour1_distractors4_r.png,r,j,2c,97,1,4,,,,,0,78,78,910,,,,,,,,,,,,,,,,,,,,,,,,,,,,,,,,,,,,,,,,,,,,,,,,,,,,,,,,,,,,,,,,,,,,,,,,,,,,266.394980442994,None,space,0.2862193600012688,266.394980442994,None,266.7640144669931,None,j,1,0.4932582210021792,266.7640144669931,None,267.2787133176942,None,None,267.2787133176942,None,,14,001,2021_Oct_07_0946,searchDisc4,2021.2.3,59.48143962197479,
images/exp2c_trial_151_colour2_distractors19_l.png,l,f,2c,151,2,19,,,,,0,79,79,4,,,,,,,,,,,,,,,,,,,,,,,,,,,,,,,,,,,,,,,,,,,,,,,,,,,,,,,,,,,,,,,,,,,,,,,,,,,,267.2780201289934,None,space,0.2831927330043982,267.2780201289934,None,267.63045474499813,None,f,1,0.5868771129971719,267.63045474499813,None,268.2454191006953,None,None,268.2454191006953,None,,14,001,2021_Oct_07_0946,searchDisc4,2021.2.3,59.48143962197479,
images/exp1a_trial_27_colour3_distractors9_l.png,l,f,1a,27,3,9,,,,,0,80,80,72,,,,,,,,,,,,,,,,,,,,,,,,,,,,,,,,,,,,,,,,,,,,,,,,,,,,,,,,,,,,,,,,,,,,,,,,,,,,268.24451033499645,None,space,0.3167393770054332,268.24451033499645,None,268.6304906669975,None,f,1,0.6508894619983039,268.6304906669975,None,269.3119550667005,None,None,269.3119550667005,None,,14,001,2021_Oct_07_0946,searchDisc4,2021.2.3,59.48143962197479,
images/exp1b_trial_66_colour1_distractors9_r.png,r,j,1b,66,1,9,,,,,0,81,81,303,,,,,,,,,,,,,,,,,,,,,,,,,,,,,,,,,,,,,,,,,,,,,,,,,,,,,,,,,,,,,,,,,,,,,,,,,,,,269.3116002179959,None,space,0.30572693800058914,269.3116002179959,None,269.6973020029982,None,j,1,0.5921263329946669,269.6973020029982,None,270.3120020156974,None,None,270.3120020156974,None,,14,001,2021_Oct_07_0946,searchDisc4,2021.2.3,59.48143962197479,
images/exp1b_trial_78_colour3_distractors31_r.png,r,j,1b,78,3,31,,,,,0,82,82,315,,,,,,,,,,,,,,,,,,,,,,,,,,,,,,,,,,,,,,,,,,,,,,,,,,,,,,,,,,,,,,,,,,,,,,,,,,,,270.3114538689988,None,space,0.3219071420026012,270.3114538689988,None,270.71388729899627,None,j,1,1.6716582629960612,270.71388729899627,None,272.41164414270025,None,None,272.41164414270025,None,,14,001,2021_Oct_07_0946,searchDisc4,2021.2.3,59.48143962197479,
images/exp2a_trial_19_colour1_distractors31_l.png,l,f,2a,19,1,31,,,,,0,83,83,448,,,,,,,,,,,,,,,,,,,,,,,,,,,,,,,,,,,,,,,,,,,,,,,,,,,,,,,,,,,,,,,,,,,,,,,,,,,,272.41169049999735,None,space,0.25378680499852635,272.41169049999735,None,272.74750275399856,None,f,1,0.6540832760001649,272.74750275399856,None,273.4289173776968,None,None,273.4289173776968,None,,14,001,2021_Oct_07_0946,searchDisc4,2021.2.3,59.48143962197479,
images/exp1b_trial_49_colour1_distractors9_l.png,l,f,1b,49,1,9,,,,,0,84,84,286,,,,,,,,,,,,,,,,,,,,,,,,,,,,,,,,,,,,,,,,,,,,,,,,,,,,,,,,,,,,,,,,,,,,,,,,,,,,273.42880774999503,None,space,0.34871665199898416,273.42880774999503,None,273.8474040719957,None,f,1,0.5862263759991038,273.8474040719957,None,274.46208622470004,None,None,274.46208622470004,None,,14,001,2021_Oct_07_0946,searchDisc4,2021.2.3,59.48143962197479,
images/exp1a_trial_186_colour3_distractors4_l.png,l,f,1a,186,3,4,,,,,0,85,85,231,,,,,,,,,,,,,,,,,,,,,,,,,,,,,,,,,,,,,,,,,,,,,,,,,,,,,,,,,,,,,,,,,,,,,,,,,,,,274.461385978997,None,space,0.3402008980046958,274.461385978997,None,274.8808065889971,None,j,0,0.6888681359996554,274.8808065889971,None,275.5955317326996,None,None,275.5955317326996,None,,14,001,2021_Oct_07_0946,searchDisc4,2021.2.3,59.48143962197479,
images/exp1a_trial_88_colour2_distractors31_l.png,l,f,1a,88,2,31,,,,,0,86,86,133,,,,,,,,,,,,,,,,,,,,,,,,,,,,,,,,,,,,,,,,,,,,,,,,,,,,,,,,,,,,,,,,,,,,,,,,,,,,275.59454095999536,None,space,0.7750939030011068,275.59454095999536,None,276.4470858979985,None,f,1,0.6506569490011316,276.4470858979985,None,277.12898714769545,None,None,277.12898714769545,None,,14,001,2021_Oct_07_0946,searchDisc4,2021.2.3,59.48143962197479,
images/exp2c_trial_123_colour3_distractors9_l.png,l,f,2c,123,3,9,,,,,0,87,87,936,,,,,,,,,,,,,,,,,,,,,,,,,,,,,,,,,,,,,,,,,,,,,,,,,,,,,,,,,,,,,,,,,,,,,,,,,,,,277.12810350499785,None,space,0.3215873060034937,277.12810350499785,None,277.5306758709994,None,f,1,0.5671593890001532,277.5306758709994,None,278.1288976246986,None,None,278.1288976246986,None,,14,001,2021_Oct_07_0946,searchDisc4,2021.2.3,59.48143962197479,
images/exp1b_trial_35_colour1_distractors19_r.png,r,j,1b,35,1,19,,,,,0,88,88,272,,,,,,,,,,,,,,,,,,,,,,,,,,,,,,,,,,,,,,,,,,,,,,,,,,,,,,,,,,,,,,,,,,,,,,,,,,,,278.1281795029936,None,space,0.3215323039985378,278.1281795029936,None,278.53074537399516,None,j,1,0.7831165940006031,278.53074537399516,None,279.3455204326936,None,None,279.3455204326936,None,,14,001,2021_Oct_07_0946,searchDisc4,2021.2.3,59.48143962197479,
images/exp1b_trial_3_colour1_distractors19_r.png,r,j,1b,3,1,19,,,,,0,89,89,240,,,,,,,,,,,,,,,,,,,,,,,,,,,,,,,,,,,,,,,,,,,,,,,,,,,,,,,,,,,,,,,,,,,,,,,,,,,,279.34541882699705,None,space,0.3443816470025922,279.34541882699705,None,279.7642251589932,None,j,1,1.1097049419986433,279.7642251589932,None,280.895328610696,None,None,280.895328610696,None,,14,001,2021_Oct_07_0946,searchDisc4,2021.2.3,59.48143962197479,
images/exp2c_trial_42_colour3_distractors1_r.png,r,j,2c,42,3,1,,,,,0,90,90,855,,,,,,,,,,,,,,,,,,,,,,,,,,,,,,,,,,,,,,,,,,,,,,,,,,,,,,,,,,,,,,,,,,,,,,,,,,,,280.8954752799982,None,space,0.274395458996878,280.8954752799982,None,281.2479006079957,None,j,1,0.8260484729980817,281.2479006079957,None,282.0954240146937,None,None,282.0954240146937,None,,14,001,2021_Oct_07_0946,searchDisc4,2021.2.3,59.48143962197479,
images/exp1b_trial_126_colour0_distractors0_r.png,r,j,1b,126,0,0,,,,,0,91,91,363,,,,,,,,,,,,,,,,,,,,,,,,,,,,,,,,,,,,,,,,,,,,,,,,,,,,,,,,,,,,,,,,,,,,,,,,,,,,282.09486028999527,None,space,0.22706800000014482,282.09486028999527,None,282.3976463019935,None,j,1,0.5243854299988016,282.3976463019935,None,282.945688294695,None,None,282.945688294695,None,,14,001,2021_Oct_07_0946,searchDisc4,2021.2.3,59.48143962197479,
images/exp1a_trial_149_colour2_distractors4_l.png,l,f,1a,149,2,4,,,,,0,92,92,194,,,,,,,,,,,,,,,,,,,,,,,,,,,,,,,,,,,,,,,,,,,,,,,,,,,,,,,,,,,,,,,,,,,,,,,,,,,,282.94551669299835,None,space,0.38445487299759407,282.94551669299835,None,283.3975395489979,None,f,1,0.4605125450034393,283.3975395489979,None,283.8784132816989,None,None,283.8784132816989,None,,14,001,2021_Oct_07_0946,searchDisc4,2021.2.3,59.48143962197479,
images/exp1b_trial_70_colour2_distractors4_r.png,r,j,1b,70,2,4,,,,,0,93,93,307,,,,,,,,,,,,,,,,,,,,,,,,,,,,,,,,,,,,,,,,,,,,,,,,,,,,,,,,,,,,,,,,,,,,,,,,,,,,283.8785035979963,None,space,0.3715066559961997,283.8785035979963,None,284.3311305499956,None,j,1,0.5269821830006549,284.3311305499956,None,284.8784643306979,None,None,284.8784643306979,None,,14,001,2021_Oct_07_0946,searchDisc4,2021.2.3,59.48143962197479,
images/exp1a_trial_128_colour1_distractors1_r.png,r,j,1a,128,1,1,,,,,0,94,94,173,,,,,,,,,,,,,,,,,,,,,,,,,,,,,,,,,,,,,,,,,,,,,,,,,,,,,,,,,,,,,,,,,,,,,,,,,,,,284.87853264699515,None,space,0.3635385740053607,284.87853264699515,None,285.3143192169955,None,f,0,0.5997942469984991,285.3143192169955,None,285.94582801769576,None,None,285.94582801769576,None,,14,001,2021_Oct_07_0946,searchDisc4,2021.2.3,59.48143962197479,
images/exp2c_trial_146_colour1_distractors19_l.png,l,f,2c,146,1,19,,,,,0,95,95,959,,,,,,,,,,,,,,,,,,,,,,,,,,,,,,,,,,,,,,,,,,,,,,,,,,,,,,,,,,,,,,,,,,,,,,,,,,,,285.9452036309958,None,space,0.3208971970016137,285.9452036309958,None,286.34742641899356,None,f,1,0.9907514449951123,286.34742641899356,None,287.36242318969454,None,None,287.36242318969454,None,,14,001,2021_Oct_07_0946,searchDisc4,2021.2.3,59.48143962197479,
images/exp2b_trial_128_colour1_distractors1_r.png,r,j,2b,128,1,1,,,,,0,96,96,749,,,,,,,,,,,,,,,,,,,,,,,,,,,,,,,,,,,,,,,,,,,,,,,,,,,,,,,,,,,,,,,,,,,,,,,,,,,,287.3623192469968,None,space,0.295856630000344,287.3623192469968,None,287.73081706699304,None,j,1,0.5274511160023394,287.73081706699304,None,288.2784606346948,None,None,288.2784606346948,None,,14,001,2021_Oct_07_0946,searchDisc4,2021.2.3,59.48143962197479,
images/exp2b_trial_38_colour2_distractors4_r.png,r,j,2b,38,2,4,,,,,0,97,97,659,,,,,,,,,,,,,,,,,,,,,,,,,,,,,,,,,,,,,,,,,,,,,,,,,,,,,,,,,,,,,,,,,,,,,,,,,,,,288.2786093859977,None,space,0.37160449600196443,288.2786093859977,None,288.7311500049982,None,j,1,0.5031398919963976,288.7311500049982,None,289.2626016636976,None,None,289.2626016636976,None,,14,001,2021_Oct_07_0946,searchDisc4,2021.2.3,59.48143962197479,
images/exp1b_trial_60_colour3_distractors19_l.png,l,f,1b,60,3,19,,,,,0,98,98,297,,,,,,,,,,,,,,,,,,,,,,,,,,,,,,,,,,,,,,,,,,,,,,,,,,,,,,,,,,,,,,,,,,,,,,,,,,,,289.26219759800006,None,space,0.38006351699732477,289.26219759800006,None,289.7140605769964,None,f,1,0.792294270999264,289.7140605769964,None,290.5288726336992,None,None,290.5288726336992,None,,14,001,2021_Oct_07_0946,searchDisc4,2021.2.3,59.48143962197479,
images/exp2c_trial_7_colour2_distractors9_r.png,r,j,2c,7,2,9,,,,,0,99,99,820,,,,,,,,,,,,,,,,,,,,,,,,,,,,,,,,,,,,,,,,,,,,,,,,,,,,,,,,,,,,,,,,,,,,,,,,,,,,290.528434738997,None,space,0.3378695589999552,290.528434738997,None,290.94826787599595,None,j,1,0.5741415040029096,290.94826787599595,None,291.5460343476996,None,None,291.5460343476996,None,,14,001,2021_Oct_07_0946,searchDisc4,2021.2.3,59.48143962197479,
images/exp2b_trial_27_colour3_distractors9_l.png,l,f,2b,27,3,9,,,,,0,100,100,648,,,,,,,,,,,,,,,,,,,,,,,,,,,,,,,,,,,,,,,,,,,,,,,,,,,,,,,,,,,,,,,,,,,,,,,,,,,,291.5453677819969,None,space,0.3369640990058542,291.5453677819969,None,291.96465102699585,None,f,1,0.837822478999442,291.96465102699585,None,292.82965903569567,None,None,292.82965903569567,None,,14,001,2021_Oct_07_0946,searchDisc4,2021.2.3,59.48143962197479,
images/exp1b_trial_26_colour3_distractors4_l.png,l,f,1b,26,3,4,,,,,0,101,101,263,,,,,,,,,,,,,,,,,,,,,,,,,,,,,,,,,,,,,,,,,,,,,,,,,,,,,,,,,,,,,,,,,,,,,,,,,,,,292.82899937399634,None,space,0.3094337349975831,292.82899937399634,None,293.21458419199917,None,f,1,0.6279415259996313,293.21458419199917,None,293.8627702766942,None,None,293.8627702766942,None,,14,001,2021_Oct_07_0946,searchDisc4,2021.2.3,59.48143962197479,
images/exp1a_trial_134_colour2_distractors4_r.png,r,j,1a,134,2,4,,,,,0,102,102,179,,,,,,,,,,,,,,,,,,,,,,,,,,,,,,,,,,,,,,,,,,,,,,,,,,,,,,,,,,,,,,,,,,,,,,,,,,,,293.86221799799387,None,space,0.35627001200191444,293.86221799799387,None,294.2981780859991,None,j,1,0.4563748460059287,294.2981780859991,None,294.7793193976948,None,None,294.7793193976948,None,,14,001,2021_Oct_07_0946,searchDisc4,2021.2.3,59.48143962197479,
images/exp2b_trial_138_colour3_distractors1_r.png,r,j,2b,138,3,1,,,,,0,103,103,759,,,,,,,,,,,,,,,,,,,,,,,,,,,,,,,,,,,,,,,,,,,,,,,,,,,,,,,,,,,,,,,,,,,,,,,,,,,,294.7786445889942,None,space,0.3358364209998399,294.7786445889942,None,295.1979651119982,None,j,1,0.4687158350061509,295.1979651119982,None,295.6962777256966,None,None,295.6962777256966,None,,14,001,2021_Oct_07_0946,searchDisc4,2021.2.3,59.48143962197479,
images/exp1a_trial_188_colour3_distractors19_l.png,l,f,1a,188,3,19,,,,,0,104,104,233,,,,,,,,,,,,,,,,,,,,,,,,,,,,,,,,,,,,,,,,,,,,,,,,,,,,,,,,,,,,,,,,,,,,,,,,,,,,295.69526449399564,None,space,0.30741404100263026,295.69526449399564,None,296.0815880949958,None,f,1,0.4251341409981251,296.0815880949958,None,296.5297014456999,None,None,296.5297014456999,None,,14,001,2021_Oct_07_0946,searchDisc4,2021.2.3,59.48143962197479,
images/exp2b_trial_175_colour1_distractors1_l.png,l,f,2b,175,1,1,,,,,0,105,105,796,,,,,,,,,,,,,,,,,,,,,,,,,,,,,,,,,,,,,,,,,,,,,,,,,,,,,,,,,,,,,,,,,,,,,,,,,,,,296.5294254499968,None,space,0.29718327400041744,296.5294254499968,None,296.8982499529957,None,f,1,0.4804735409998102,296.8982499529957,None,297.3962889326984,None,None,297.3962889326984,None,,14,001,2021_Oct_07_0946,searchDisc4,2021.2.3,59.48143962197479,
images/exp2b_trial_161_colour1_distractors4_r.png,r,j,2b,161,1,4,,,,,0,106,106,782,,,,,,,,,,,,,,,,,,,,,,,,,,,,,,,,,,,,,,,,,,,,,,,,,,,,,,,,,,,,,,,,,,,,,,,,,,,,297.3961071649974,None,space,0.3105720809980994,297.3961071649974,None,297.78163718399446,None,j,1,0.5091485649973038,297.78163718399446,None,298.312391979697,None,None,298.312391979697,None,,14,001,2021_Oct_07_0946,searchDisc4,2021.2.3,59.48143962197479,
images/exp2b_trial_51_colour1_distractors31_l.png,l,f,2b,51,1,31,,,,,0,107,107,672,,,,,,,,,,,,,,,,,,,,,,,,,,,,,,,,,,,,,,,,,,,,,,,,,,,,,,,,,,,,,,,,,,,,,,,,,,,,298.3122565140002,None,space,0.3065148970053997,298.3122565140002,None,298.6982818769975,None,f,1,0.4405507819974446,298.6982818769975,None,299.16262627069665,None,None,299.16262627069665,None,,14,001,2021_Oct_07_0946,searchDisc4,2021.2.3,59.48143962197479,
images/exp2a_trial_104_colour2_distractors19_r.png,r,j,2a,104,2,19,,,,,0,108,108,533,,,,,,,,,,,,,,,,,,,,,,,,,,,,,,,,,,,,,,,,,,,,,,,,,,,,,,,,,,,,,,,,,,,,,,,,,,,,299.16277158499724,None,space,0.3200132850033697,299.16277158499724,None,299.56502063899825,None,j,1,0.5258638090017485,299.56502063899825,None,300.11246964869935,None,None,300.11246964869935,None,,14,001,2021_Oct_07_0946,searchDisc4,2021.2.3,59.48143962197479,
images/exp1b_trial_141_colour3_distractors19_r.png,r,j,1b,141,3,19,,,,,0,109,109,378,,,,,,,,,,,,,,,,,,,,,,,,,,,,,,,,,,,,,,,,,,,,,,,,,,,,,,,,,,,,,,,,,,,,,,,,,,,,300.112406962995,None,space,0.31441905300016515,300.112406962995,None,300.4983932749965,None,j,1,0.6725345520026167,300.4983932749965,None,301.1964172226988,None,None,301.1964172226988,None,,14,001,2021_Oct_07_0946,searchDisc4,2021.2.3,59.48143962197479,
images/exp2c_trial_23_colour2_distractors19_l.png,l,f,2c,23,2,19,,,,,0,110,110,836,,,,,,,,,,,,,,,,,,,,,,,,,,,,,,,,,,,,,,,,,,,,,,,,,,,,,,,,,,,,,,,,,,,,,,,,,,,,301.19631461199606,None,space,0.3265969279964338,301.19631461199606,None,301.5983314219993,None,f,1,0.49264088999916567,301.5983314219993,None,302.1124601406962,None,None,302.1124601406962,None,,14,001,2021_Oct_07_0946,searchDisc4,2021.2.3,59.48143962197479,
images/exp1a_trial_150_colour2_distractors9_l.png,l,f,1a,150,2,9,,,,,0,111,111,195,,,,,,,,,,,,,,,,,,,,,,,,,,,,,,,,,,,,,,,,,,,,,,,,,,,,,,,,,,,,,,,,,,,,,,,,,,,,302.1131612149984,None,space,0.345832083003188,302.1131612149984,None,302.53186956999707,None,f,1,0.6230835280002793,302.53186956999707,None,303.1796581946954,None,None,303.1796581946954,None,,14,001,2021_Oct_07_0946,searchDisc4,2021.2.3,59.48143962197479,
images/exp1b_trial_94_colour0_distractors0_r.png,r,j,1b,94,0,0,,,,,0,112,112,331,,,,,,,,,,,,,,,,,,,,,,,,,,,,,,,,,,,,,,,,,,,,,,,,,,,,,,,,,,,,,,,,,,,,,,,,,,,,303.179537541997,None,space,0.25536620800266974,303.179537541997,None,303.505366749996,None,j,1,0.4816202519941726,303.505366749996,None,304.0129353956989,None,None,304.0129353956989,None,,14,001,2021_Oct_07_0946,searchDisc4,2021.2.3,59.48143962197479,
images/exp2a_trial_20_colour2_distractors1_l.png,l,f,2a,20,2,1,,,,,0,113,113,449,,,,,,,,,,,,,,,,,,,,,,,,,,,,,,,,,,,,,,,,,,,,,,,,,,,,,,,,,,,,,,,,,,,,,,,,,,,,304.01315253199573,None,space,0.3737738139971043,304.01315253199573,None,304.465047271995,None,f,1,0.6260494900052436,304.465047271995,None,305.1127197296999,None,None,305.1127197296999,None,,14,001,2021_Oct_07_0946,searchDisc4,2021.2.3,59.48143962197479,
images/exp1b_trial_185_colour3_distractors1_l.png,l,f,1b,185,3,1,,,,,0,114,114,422,,,,,,,,,,,,,,,,,,,,,,,,,,,,,,,,,,,,,,,,,,,,,,,,,,,,,,,,,,,,,,,,,,,,,,,,,,,,305.11251565999555,None,space,0.29843281299690716,305.11251565999555,None,305.47043421899434,None,f,1,0.49269135200302117,305.47043421899434,None,305.99626638069896,None,None,305.99626638069896,None,,14,001,2021_Oct_07_0946,searchDisc4,2021.2.3,59.48143962197479,
images/exp2b_trial_24_colour2_distractors31_l.png,l,f,2b,24,2,31,,,,,0,115,115,645,,,,,,,,,,,,,,,,,,,,,,,,,,,,,,,,,,,,,,,,,,,,,,,,,,,,,,,,,,,,,,,,,,,,,,,,,,,,305.99570336299803,None,space,0.3432987430060166,305.99570336299803,None,306.4152889709949,None,f,1,0.45188909499847796,306.4152889709949,None,306.8965810087,None,None,306.8965810087,None,,14,001,2021_Oct_07_0946,searchDisc4,2021.2.3,59.48143962197479,
images/exp2c_trial_121_colour3_distractors1_l.png,l,f,2c,121,3,1,,,,,0,116,116,934,,,,,,,,,,,,,,,,,,,,,,,,,,,,,,,,,,,,,,,,,,,,,,,,,,,,,,,,,,,,,,,,,,,,,,,,,,,,306.8965955889944,None,space,0.33055356300610583,306.8965955889944,None,307.298623183,None,f,1,0.4245926750008948,307.298623183,None,307.7459672917001,None,None,307.7459672917001,None,,14,001,2021_Oct_07_0946,searchDisc4,2021.2.3,59.48143962197479,
images/exp1a_trial_127_colour0_distractors0_l.png,l,f,1a,127,0,0,,,,,0,117,117,172,,,,,,,,,,,,,,,,,,,,,,,,,,,,,,,,,,,,,,,,,,,,,,,,,,,,,,,,,,,,,,,,,,,,,,,,,,,,307.7456238159939,None,space,0.39358413399895653,307.7456238159939,None,308.2152659679996,None,f,1,0.46000907399866264,308.2152659679996,None,308.69677647869395,None,None,308.69677647869395,None,,14,001,2021_Oct_07_0946,searchDisc4,2021.2.3,59.48143962197479,
images/exp2c_trial_35_colour1_distractors19_r.png,r,j,2c,35,1,19,,,,,0,118,118,848,,,,,,,,,,,,,,,,,,,,,,,,,,,,,,,,,,,,,,,,,,,,,,,,,,,,,,,,,,,,,,,,,,,,,,,,,,,,308.69643451299635,None,space,0.3787823750026291,308.69643451299635,None,309.148768549996,None,j,1,0.5585232279991033,309.148768549996,None,309.72994033669676,None,None,309.72994033669676,None,,14,001,2021_Oct_07_0946,searchDisc4,2021.2.3,59.48143962197479,
images/exp1a_trial_126_colour0_distractors0_r.png,r,j,1a,126,0,0,,,,,0,119,119,171,,,,,,,,,,,,,,,,,,,,,,,,,,,,,,,,,,,,,,,,,,,,,,,,,,,,,,,,,,,,,,,,,,,,,,,,,,,,309.72961646499607,None,space,0.32965249699918786,309.72961646499607,None,310.1215341259958,None,j,1,0.4657489710007212,310.1215341259958,None,310.61307213399414,None,space,310.61307213399414,None,25.86344233800628,14,001,2021_Oct_07_0946,searchDisc4,2021.2.3,59.48143962197479,
images/exp2a_trial_177_colour1_distractors9_l.png,l,f,2a,177,1,9,,,,,0,120,120,606,,,,,,,,,,,,,,,,,,,,,,,,,,,,,,,,,,,,,,,,,,,,,,,,,,,,,,,,,,,,,,,,,,,,,,,,,,,,336.4992077069983,None,space,0.8813560439957655,336.4992077069983,None,337.4493473219991,None,f,1,0.5312090840016026,337.4493473219991,None,337.99750231969375,None,None,337.99750231969375,None,,14,001,2021_Oct_07_0946,searchDisc4,2021.2.3,59.48143962197479,
images/exp1b_trial_13_colour3_distractors19_r.png,r,j,1b,13,3,19,,,,,0,121,121,250,,,,,,,,,,,,,,,,,,,,,,,,,,,,,,,,,,,,,,,,,,,,,,,,,,,,,,,,,,,,,,,,,,,,,,,,,,,,337.99725802799367,None,space,0.3352700790055678,337.99725802799367,None,338.3995797059979,None,j,1,0.5730423889981466,338.3995797059979,None,338.99747775269935,None,None,338.99747775269935,None,,14,001,2021_Oct_07_0946,searchDisc4,2021.2.3,59.48143962197479,
images/exp2a_trial_134_colour2_distractors4_r.png,r,j,2a,134,2,4,,,,,0,122,122,563,,,,,,,,,,,,,,,,,,,,,,,,,,,,,,,,,,,,,,,,,,,,,,,,,,,,,,,,,,,,,,,,,,,,,,,,,,,,338.9972205179947,None,space,0.2793542770014028,338.9972205179947,None,339.3495173489937,None,j,1,0.4311045160065987,339.3495173489937,None,339.79750649869385,None,None,339.79750649869385,None,,14,001,2021_Oct_07_0946,searchDisc4,2021.2.3,59.48143962197479,
images/exp2c_trial_88_colour2_distractors31_l.png,l,f,2c,88,2,31,,,,,0,123,123,901,,,,,,,,,,,,,,,,,,,,,,,,,,,,,,,,,,,,,,,,,,,,,,,,,,,,,,,,,,,,,,,,,,,,,,,,,,,,339.7966023139961,None,space,0.34402496999973664,339.7966023139961,None,340.2162915819936,None,f,1,0.3803266029935912,340.2162915819936,None,340.6141304686942,None,None,340.6141304686942,None,,14,001,2021_Oct_07_0946,searchDisc4,2021.2.3,59.48143962197479,
images/exp2a_trial_158_colour0_distractors0_r.png,r,j,2a,158,0,0,,,,,0,124,124,587,,,,,,,,,,,,,,,,,,,,,,,,,,,,,,,,,,,,,,,,,,,,,,,,,,,,,,,,,,,,,,,,,,,,,,,,,,,,340.6140295929945,None,space,0.27066134000051534,340.6140295929945,None,340.96611845299776,None,j,1,0.33462085999781266,340.96611845299776,None,341.3308823706946,None,None,341.3308823706946,None,,14,001,2021_Oct_07_0946,searchDisc4,2021.2.3,59.48143962197479,
images/exp2c_trial_71_colour2_distractors9_r.png,r,j,2c,71,2,9,,,,,0,125,125,884,,,,,,,,,,,,,,,,,,,,,,,,,,,,,,,,,,,,,,,,,,,,,,,,,,,,,,,,,,,,,,,,,,,,,,,,,,,,341.3305080029968,None,space,0.30623532900062855,341.3305080029968,None,341.7162675369982,None,j,1,0.36049509499571286,341.7162675369982,None,342.09722370169476,None,None,342.09722370169476,None,,14,001,2021_Oct_07_0946,searchDisc4,2021.2.3,59.48143962197479,
images/exp2a_trial_14_colour3_distractors31_r.png,r,j,2a,14,3,31,,,,,0,126,126,443,,,,,,,,,,,,,,,,,,,,,,,,,,,,,,,,,,,,,,,,,,,,,,,,,,,,,,,,,,,,,,,,,,,,,,,,,,,,342.097147485998,None,space,0.28368460300407605,342.097147485998,None,342.4496421859949,None,j,1,0.39519651499722386,342.4496421859949,None,342.86421831869376,None,None,342.86421831869376,None,,14,001,2021_Oct_07_0946,searchDisc4,2021.2.3,59.48143962197479,
images/exp1b_trial_62_colour0_distractors0_r.png,r,j,1b,62,0,0,,,,,0,127,127,299,,,,,,,,,,,,,,,,,,,,,,,,,,,,,,,,,,,,,,,,,,,,,,,,,,,,,,,,,,,,,,,,,,,,,,,,,,,,342.86389783999766,None,space,0.324874756995996,342.86389783999766,None,343.2662069129947,None,j,1,0.4026636230046279,343.2662069129947,None,343.69758491969407,None,None,343.69758491969407,None,,14,001,2021_Oct_07_0946,searchDisc4,2021.2.3,59.48143962197479,
images/exp2b_trial_102_colour2_distractors4_r.png,r,j,2b,102,2,4,,,,,0,128,128,723,,,,,,,,,,,,,,,,,,,,,,,,,,,,,,,,,,,,,,,,,,,,,,,,,,,,,,,,,,,,,,,,,,,,,,,,,,,,343.6973248219947,None,space,0.2595031949967961,343.6973248219947,None,344.03281980399333,None,j,1,0.46808032099943375,344.03281980399333,None,344.5311029736957,None,None,344.5311029736957,None,,14,001,2021_Oct_07_0946,searchDisc4,2021.2.3,59.48143962197479,
images/exp2c_trial_138_colour3_distractors1_r.png,r,j,2c,138,3,1,,,,,0,129,129,951,,,,,,,,,,,,,,,,,,,,,,,,,,,,,,,,,,,,,,,,,,,,,,,,,,,,,,,,,,,,,,,,,,,,,,,,,,,,344.53076163899823,None,space,0.22609447200375143,344.53076163899823,None,344.8329418479989,None,j,1,0.31595962600113126,344.8329418479989,None,345.18105757869927,None,None,345.18105757869927,None,,14,001,2021_Oct_07_0946,searchDisc4,2021.2.3,59.48143962197479,
images/exp1a_trial_86_colour2_distractors9_l.png,l,f,1a,86,2,9,,,,,0,130,130,131,,,,,,,,,,,,,,,,,,,,,,,,,,,,,,,,,,,,,,,,,,,,,,,,,,,,,,,,,,,,,,,,,,,,,,,,,,,,345.1800049499943,None,space,0.17688775499846088,345.1800049499943,None,345.4329838239937,None,f,1,0.4599786969993147,345.4329838239937,None,345.91446479669395,None,None,345.91446479669395,None,,14,001,2021_Oct_07_0946,searchDisc4,2021.2.3,59.48143962197479,
images/exp1a_trial_34_colour1_distractors9_r.png,r,j,1a,34,1,9,,,,,0,131,131,79,,,,,,,,,,,,,,,,,,,,,,,,,,,,,,,,,,,,,,,,,,,,,,,,,,,,,,,,,,,,,,,,,,,,,,,,,,,,345.914344842,None,space,0.33058142599475104,345.914344842,None,346.31635576199915,None,j,1,0.440554818000237,346.31635576199915,None,346.7808390256949,None,None,346.7808390256949,None,,14,001,2021_Oct_07_0946,searchDisc4,2021.2.3,59.48143962197479,
images/exp2b_trial_8_colour2_distractors19_r.png,r,j,2b,8,2,19,,,,,0,132,132,629,,,,,,,,,,,,,,,,,,,,,,,,,,,,,,,,,,,,,,,,,,,,,,,,,,,,,,,,,,,,,,,,,,,,,,,,,,,,346.7805442509998,None,space,0.24833564100117655,346.7805442509998,None,347.09898567199707,None,j,1,0.4659726160025457,347.09898567199707,None,347.5972545847006,None,None,347.5972545847006,None,,14,001,2021_Oct_07_0946,searchDisc4,2021.2.3,59.48143962197479,
images/exp2c_trial_72_colour2_distractors19_r.png,r,j,2c,72,2,19,,,,,0,133,133,885,,,,,,,,,,,,,,,,,,,,,,,,,,,,,,,,,,,,,,,,,,,,,,,,,,,,,,,,,,,,,,,,,,,,,,,,,,,,347.596758666994,None,space,0.22425583499716595,347.596758666994,None,347.89934260500013,None,f,0,0.5216743290002341,347.89934260500013,None,348.4477127276958,None,None,348.4477127276958,None,,14,001,2021_Oct_07_0946,searchDisc4,2021.2.3,59.48143962197479,
images/exp2a_trial_129_colour1_distractors4_r.png,r,j,2a,129,1,4,,,,,0,134,134,558,,,,,,,,,,,,,,,,,,,,,,,,,,,,,,,,,,,,,,,,,,,,,,,,,,,,,,,,,,,,,,,,,,,,,,,,,,,,348.4470275289932,None,space,0.9579686930010212,348.4470275289932,None,349.4829529379931,None,j,1,0.5621005069988314,349.4829529379931,None,350.0643972786973,None,None,350.0643972786973,None,,14,001,2021_Oct_07_0946,searchDisc4,2021.2.3,59.48143962197479,
images/exp1b_trial_128_colour1_distractors1_r.png,r,j,1b,128,1,1,,,,,0,135,135,365,,,,,,,,,,,,,,,,,,,,,,,,,,,,,,,,,,,,,,,,,,,,,,,,,,,,,,,,,,,,,,,,,,,,,,,,,,,,350.06393806999404,None,space,0.33307311499811476,350.06393806999404,None,350.4662340979994,None,j,1,0.7069938530039508,350.4662340979994,None,351.1976706147005,None,None,351.1976706147005,None,,14,001,2021_Oct_07_0946,searchDisc4,2021.2.3,59.48143962197479,
images/exp1a_trial_109_colour3_distractors19_r.png,r,j,1a,109,3,19,,,,,0,136,136,154,,,,,,,,,,,,,,,,,,,,,,,,,,,,,,,,,,,,,,,,,,,,,,,,,,,,,,,,,,,,,,,,,,,,,,,,,,,,351.1971805819994,None,space,0.27991080000356305,351.1971805819994,None,351.5493969769959,None,j,1,0.5358914140015258,351.5493969769959,None,352.1145702906986,None,None,352.1145702906986,None,,14,001,2021_Oct_07_0946,searchDisc4,2021.2.3,59.48143962197479,
images/exp1a_trial_7_colour2_distractors9_r.png,r,j,1a,7,2,9,,,,,0,137,137,52,,,,,,,,,,,,,,,,,,,,,,,,,,,,,,,,,,,,,,,,,,,,,,,,,,,,,,,,,,,,,,,,,,,,,,,,,,,,352.11393657899316,None,space,0.2511618710050243,352.11393657899316,None,352.43278784899303,None,j,1,0.5564037639996968,352.43278784899303,None,353.0140535396975,None,None,353.0140535396975,None,,14,001,2021_Oct_07_0946,searchDisc4,2021.2.3,59.48143962197479,
images/exp1b_trial_61_colour3_distractors31_l.png,l,f,1b,61,3,31,,,,,0,138,138,298,,,,,,,,,,,,,,,,,,,,,,,,,,,,,,,,,,,,,,,,,,,,,,,,,,,,,,,,,,,,,,,,,,,,,,,,,,,,353.0136499279979,None,space,0.23160652700607898,353.0136499279979,None,353.3163824239964,None,f,1,1.0169978490012,353.3163824239964,None,354.3645952747,None,None,354.3645952747,None,,14,001,2021_Oct_07_0946,searchDisc4,2021.2.3,59.48143962197479,
images/exp1a_trial_85_colour2_distractors4_l.png,l,f,1a,85,2,4,,,,,0,139,139,130,,,,,,,,,,,,,,,,,,,,,,,,,,,,,,,,,,,,,,,,,,,,,,,,,,,,,,,,,,,,,,,,,,,,,,,,,,,,354.36402727699897,None,space,0.2733185710021644,354.36402727699897,None,354.71643230599875,None,f,1,0.472888641001191,354.71643230599875,None,355.21424096269476,None,None,355.21424096269476,None,,14,001,2021_Oct_07_0946,searchDisc4,2021.2.3,59.48143962197479,
images/exp2a_trial_65_colour1_distractors4_r.png,r,j,2a,65,1,4,,,,,0,140,140,494,,,,,,,,,,,,,,,,,,,,,,,,,,,,,,,,,,,,,,,,,,,,,,,,,,,,,,,,,,,,,,,,,,,,,,,,,,,,355.21428573199955,None,space,0.29499693600519095,355.21428573199955,None,355.58332994399825,None,j,1,0.5421330300014233,355.58332994399825,None,356.14791404369754,None,None,356.14791404369754,None,,14,001,2021_Oct_07_0946,searchDisc4,2021.2.3,59.48143962197479,
images/exp2b_trial_78_colour3_distractors31_r.png,r,j,2b,78,3,31,,,,,0,141,141,699,,,,,,,,,,,,,,,,,,,,,,,,,,,,,,,,,,,,,,,,,,,,,,,,,,,,,,,,,,,,,,,,,,,,,,,,,,,,356.1473797459985,None,space,0.28198587400402175,356.1473797459985,None,356.4990416299988,None,j,1,0.4983431169966934,356.4990416299988,None,357.0311370206953,None,None,357.0311370206953,None,,14,001,2021_Oct_07_0946,searchDisc4,2021.2.3,59.48143962197479,
images/exp2a_trial_58_colour3_distractors4_l.png,l,f,2a,58,3,4,,,,,0,142,142,487,,,,,,,,,,,,,,,,,,,,,,,,,,,,,,,,,,,,,,,,,,,,,,,,,,,,,,,,,,,,,,,,,,,,,,,,,,,,357.0306820609985,None,space,0.2947481230003177,357.0306820609985,None,357.3998888829956,None,f,1,0.44566339800076094,357.3998888829956,None,357.8636980726995,None,None,357.8636980726995,None,,14,001,2021_Oct_07_0946,searchDisc4,2021.2.3,59.48143962197479,
images/exp2a_trial_1_colour1_distractors4_r.png,r,j,2a,1,1,4,,,,,0,143,143,430,,,,,,,,,,,,,,,,,,,,,,,,,,,,,,,,,,,,,,,,,,,,,,,,,,,,,,,,,,,,,,,,,,,,,,,,,,,,357.86427808299777,None,space,0.2530402269985643,357.86427808299777,None,358.1995938339969,None,j,1,0.4298846789970412,358.1995938339969,None,358.64746050069954,None,None,358.64746050069954,None,,14,001,2021_Oct_07_0946,searchDisc4,2021.2.3,59.48143962197479,
images/exp2a_trial_188_colour3_distractors19_l.png,l,f,2a,188,3,19,,,,,0,144,144,617,,,,,,,,,,,,,,,,,,,,,,,,,,,,,,,,,,,,,,,,,,,,,,,,,,,,,,,,,,,,,,,,,,,,,,,,,,,,358.64696418899985,None,space,0.2545531009964179,358.64696418899985,None,358.983318281993,None,f,1,0.4382848280001781,358.983318281993,None,359.44807494470007,None,None,359.44807494470007,None,,14,001,2021_Oct_07_0946,searchDisc4,2021.2.3,59.48143962197479,
images/exp2b_trial_65_colour1_distractors4_r.png,r,j,2b,65,1,4,,,,,0,145,145,686,,,,,,,,,,,,,,,,,,,,,,,,,,,,,,,,,,,,,,,,,,,,,,,,,,,,,,,,,,,,,,,,,,,,,,,,,,,,359.44775060399843,None,space,0.25379418899683515,359.44775060399843,None,359.78334083399386,None,j,1,0.4303107270025066,359.78334083399386,None,360.23148649869546,None,None,360.23148649869546,None,,14,001,2021_Oct_07_0946,searchDisc4,2021.2.3,59.48143962197479,
images/exp2a_trial_46_colour3_distractors31_r.png,r,j,2a,46,3,31,,,,,0,146,146,475,,,,,,,,,,,,,,,,,,,,,,,,,,,,,,,,,,,,,,,,,,,,,,,,,,,,,,,,,,,,,,,,,,,,,,,,,,,,360.2313945889982,None,space,0.27017537700157845,360.2313945889982,None,360.5831707739999,None,j,1,0.45452554900111863,360.5831707739999,None,361.0648039816995,None,None,361.0648039816995,None,,14,001,2021_Oct_07_0946,searchDisc4,2021.2.3,59.48143962197479,
images/exp2c_trial_91_colour3_distractors9_l.png,l,f,2c,91,3,9,,,,,0,147,147,904,,,,,,,,,,,,,,,,,,,,,,,,,,,,,,,,,,,,,,,,,,,,,,,,,,,,,,,,,,,,,,,,,,,,,,,,,,,,361.06396443399717,None,space,0.2936578489970998,361.06396443399717,None,361.43354674999864,None,f,1,0.5640988250015653,361.43354674999864,None,362.0146782206983,None,None,362.0146782206983,None,,14,001,2021_Oct_07_0946,searchDisc4,2021.2.3,59.48143962197479,
images/exp2b_trial_49_colour1_distractors9_l.png,l,f,2b,49,1,9,,,,,0,148,148,670,,,,,,,,,,,,,,,,,,,,,,,,,,,,,,,,,,,,,,,,,,,,,,,,,,,,,,,,,,,,,,,,,,,,,,,,,,,,362.01445581899316,None,space,0.23125726699799998,362.01445581899316,None,362.3167026789961,None,f,1,0.5530334959985339,362.3167026789961,None,362.8981465527002,None,None,362.8981465527002,None,,14,001,2021_Oct_07_0946,searchDisc4,2021.2.3,59.48143962197479,
images/exp1a_trial_190_colour0_distractors0_r.png,r,j,1a,190,0,0,,,,,0,149,149,235,,,,,,,,,,,,,,,,,,,,,,,,,,,,,,,,,,,,,,,,,,,,,,,,,,,,,,,,,,,,,,,,,,,,,,,,,,,,362.89783396399434,None,space,0.22778055800154107,362.89783396399434,None,363.18946669299476,None,j,1,0.40027764099795604,363.18946669299476,None,363.6147088236947,None,None,363.6147088236947,None,,14,001,2021_Oct_07_0946,searchDisc4,2021.2.3,59.48143962197479,
images/exp2a_trial_147_colour1_distractors31_l.png,l,f,2a,147,1,31,,,,,0,150,150,576,,,,,,,,,,,,,,,,,,,,,,,,,,,,,,,,,,,,,,,,,,,,,,,,,,,,,,,,,,,,,,,,,,,,,,,,,,,,363.61440879499423,None,space,0.27129918100399664,363.61440879499423,None,363.9668302209975,None,f,1,0.4789797049961635,363.9668302209975,None,364.46427304669925,None,None,364.46427304669925,None,,14,001,2021_Oct_07_0946,searchDisc4,2021.2.3,59.48143962197479,
images/exp2a_trial_48_colour1_distractors4_l.png,l,f,2a,48,1,4,,,,,0,151,151,477,,,,,,,,,,,,,,,,,,,,,,,,,,,,,,,,,,,,,,,,,,,,,,,,,,,,,,,,,,,,,,,,,,,,,,,,,,,,364.46408210299705,None,space,0.18170655800349778,364.46408210299705,None,364.7167335159975,None,f,1,0.6971206379967043,364.7167335159975,None,365.4316580326966,None,None,365.4316580326966,None,,14,001,2021_Oct_07_0946,searchDisc4,2021.2.3,59.48143962197479,
images/exp2a_trial_71_colour2_distractors9_r.png,r,j,2a,71,2,9,,,,,0,152,152,500,,,,,,,,,,,,,,,,,,,,,,,,,,,,,,,,,,,,,,,,,,,,,,,,,,,,,,,,,,,,,,,,,,,,,,,,,,,,365.43142540699773,None,space,0.20639434400072787,365.43142540699773,None,365.71664688099554,None,j,1,0.625246490999416,365.71664688099554,None,366.3647241096958,None,None,366.3647241096958,None,,14,001,2021_Oct_07_0946,searchDisc4,2021.2.3,59.48143962197479,
images/exp2c_trial_140_colour3_distractors9_r.png,r,j,2c,140,3,9,,,,,0,153,153,953,,,,,,,,,,,,,,,,,,,,,,,,,,,,,,,,,,,,,,,,,,,,,,,,,,,,,,,,,,,,,,,,,,,,,,,,,,,,366.3644185519952,None,space,0.2094234600008349,366.3644185519952,None,366.65028842199536,None,j,1,0.5475526969967177,366.65028842199536,None,367.231469332696,None,None,367.231469332696,None,,14,001,2021_Oct_07_0946,searchDisc4,2021.2.3,59.48143962197479,
images/exp1a_trial_162_colour1_distractors9_r.png,r,j,1a,162,1,9,,,,,0,154,154,207,,,,,,,,,,,,,,,,,,,,,,,,,,,,,,,,,,,,,,,,,,,,,,,,,,,,,,,,,,,,,,,,,,,,,,,,,,,,367.2309251659972,None,space,0.270962315997167,367.2309251659972,None,367.5836008299957,None,j,1,0.7903644910038565,367.5836008299957,None,368.3978903856958,None,None,368.3978903856958,None,,14,001,2021_Oct_07_0946,searchDisc4,2021.2.3,59.48143962197479,
images/exp2b_trial_36_colour1_distractors31_r.png,r,j,2b,36,1,31,,,,,0,155,155,657,,,,,,,,,,,,,,,,,,,,,,,,,,,,,,,,,,,,,,,,,,,,,,,,,,,,,,,,,,,,,,,,,,,,,,,,,,,,368.39751324799727,None,space,0.28845297299994854,368.39751324799727,None,368.76692956599436,None,j,1,0.5111178549996112,368.76692956599436,None,369.2984697526961,None,None,369.2984697526961,None,,14,001,2021_Oct_07_0946,searchDisc4,2021.2.3,59.48143962197479,
images/exp2b_trial_40_colour2_distractors19_r.png,r,j,2b,40,2,19,,,,,0,156,156,661,,,,,,,,,,,,,,,,,,,,,,,,,,,,,,,,,,,,,,,,,,,,,,,,,,,,,,,,,,,,,,,,,,,,,,,,,,,,369.298072173995,None,space,0.33191948199964827,369.298072173995,None,369.69019571899844,None,j,1,0.45186202499462524,369.69019571899844,None,370.1647478336934,None,None,370.1647478336934,None,,14,001,2021_Oct_07_0946,searchDisc4,2021.2.3,59.48143962197479,
images/exp1a_trial_139_colour3_distractors4_r.png,r,j,1a,139,3,4,,,,,0,157,157,184,,,,,,,,,,,,,,,,,,,,,,,,,,,,,,,,,,,,,,,,,,,,,,,,,,,,,,,,,,,,,,,,,,,,,,,,,,,,370.1645743639965,None,space,0.27347537499736063,370.1645743639965,None,370.5172049920002,None,j,1,0.4889173830015352,370.5172049920002,None,371.03162720469555,None,None,371.03162720469555,None,,14,001,2021_Oct_07_0946,searchDisc4,2021.2.3,59.48143962197479,
images/exp1a_trial_144_colour1_distractors4_l.png,l,f,1a,144,1,4,,,,,0,158,158,189,,,,,,,,,,,,,,,,,,,,,,,,,,,,,,,,,,,,,,,,,,,,,,,,,,,,,,,,,,,,,,,,,,,,,,,,,,,,371.031437904996,None,space,0.27863309499662137,371.031437904996,None,371.3836312869971,None,f,1,0.6304527860047529,371.3836312869971,None,372.03172705469916,None,None,372.03172705469916,None,,14,001,2021_Oct_07_0946,searchDisc4,2021.2.3,59.48143962197479,
images/exp2c_trial_45_colour3_distractors19_r.png,r,j,2c,45,3,19,,,,,0,159,159,858,,,,,,,,,,,,,,,,,,,,,,,,,,,,,,,,,,,,,,,,,,,,,,,,,,,,,,,,,,,,,,,,,,,,,,,,,,,,372.0480560399956,None,space,0.3020325750039774,372.0480560399956,None,372.41708415299945,None,j,1,0.5731235480052419,372.41708415299945,None,373.0150405316934,None,None,373.0150405316934,None,,14,001,2021_Oct_07_0946,searchDisc4,2021.2.3,59.48143962197479,
images/exp2b_trial_19_colour1_distractors31_l.png,l,f,2b,19,1,31,,,,,0,160,160,640,,,,,,,,,,,,,,,,,,,,,,,,,,,,,,,,,,,,,,,,,,,,,,,,,,,,,,,,,,,,,,,,,,,,,,,,,,,,373.01470459999837,None,space,0.31147182999848155,373.01470459999837,None,373.4004214539964,None,f,1,0.7977319109995733,373.4004214539964,None,374.23166642169673,None,None,374.23166642169673,None,,14,001,2021_Oct_07_0946,searchDisc4,2021.2.3,59.48143962197479,
images/exp2a_trial_47_colour1_distractors1_l.png,l,f,2a,47,1,1,,,,,0,161,161,476,,,,,,,,,,,,,,,,,,,,,,,,,,,,,,,,,,,,,,,,,,,,,,,,,,,,,,,,,,,,,,,,,,,,,,,,,,,,374.23101493499416,None,space,0.2712207570002647,374.23101493499416,None,374.58369562299777,None,f,1,0.518618214999151,374.58369562299777,None,375.1317004337005,None,None,375.1317004337005,None,,14,001,2021_Oct_07_0946,searchDisc4,2021.2.3,59.48143962197479,
images/exp2c_trial_34_colour1_distractors9_r.png,r,j,2c,34,1,9,,,,,0,162,162,847,,,,,,,,,,,,,,,,,,,,,,,,,,,,,,,,,,,,,,,,,,,,,,,,,,,,,,,,,,,,,,,,,,,,,,,,,,,,375.1315909489931,None,space,0.27468430400040234,375.1315909489931,None,375.4838118789994,None,j,1,0.6585399989999132,375.4838118789994,None,376.1649581906939,None,None,376.1649581906939,None,,14,001,2021_Oct_07_0946,searchDisc4,2021.2.3,59.48143962197479,
images/exp1a_trial_17_colour1_distractors9_l.png,l,f,1a,17,1,9,,,,,0,163,163,62,,,,,,,,,,,,,,,,,,,,,,,,,,,,,,,,,,,,,,,,,,,,,,,,,,,,,,,,,,,,,,,,,,,,,,,,,,,,376.1646543109964,None,space,0.2656539080053335,376.1646543109964,None,376.50064381599805,None,j,0,0.5857677239982877,376.50064381599805,None,377.11513395569347,None,None,377.11513395569347,None,,14,001,2021_Oct_07_0946,searchDisc4,2021.2.3,59.48143962197479,
images/exp1a_trial_104_colour2_distractors19_r.png,r,j,1a,104,2,19,,,,,0,164,164,149,,,,,,,,,,,,,,,,,,,,,,,,,,,,,,,,,,,,,,,,,,,,,,,,,,,,,,,,,,,,,,,,,,,,,,,,,,,,377.1151929119951,None,space,0.4031040780027979,377.1151929119951,None,377.60039858999517,None,j,1,0.5660260330041638,377.60039858999517,None,378.19870712169796,None,None,378.19870712169796,None,,14,001,2021_Oct_07_0946,searchDisc4,2021.2.3,59.48143962197479,
images/exp2a_trial_128_colour1_distractors1_r.png,r,j,2a,128,1,1,,,,,0,165,165,557,,,,,,,,,,,,,,,,,,,,,,,,,,,,,,,,,,,,,,,,,,,,,,,,,,,,,,,,,,,,,,,,,,,,,,,,,,,,378.1981964269944,None,space,0.240220974003023,378.1981964269944,None,378.51720355899306,None,j,1,0.4971988299948862,378.51720355899306,None,379.03186263869867,None,None,379.03186263869867,None,,14,001,2021_Oct_07_0946,searchDisc4,2021.2.3,59.48143962197479,
images/exp2c_trial_110_colour3_distractors31_r.png,r,j,2c,110,3,31,,,,,0,166,166,923,,,,,,,,,,,,,,,,,,,,,,,,,,,,,,,,,,,,,,,,,,,,,,,,,,,,,,,,,,,,,,,,,,,,,,,,,,,,379.031610389,None,space,0.28677269900072133,379.031610389,None,379.4007075089976,None,j,1,0.5098313620037516,379.4007075089976,None,379.9319096416992,None,None,379.9319096416992,None,,14,001,2021_Oct_07_0946,searchDisc4,2021.2.3,59.48143962197479,
images/exp1a_trial_146_colour1_distractors19_l.png,l,f,1a,146,1,19,,,,,0,167,167,191,,,,,,,,,,,,,,,,,,,,,,,,,,,,,,,,,,,,,,,,,,,,,,,,,,,,,,,,,,,,,,,,,,,,,,,,,,,,379.9320058489975,None,space,0.2903995840024436,379.9320058489975,None,380.3006425059939,None,f,1,0.6579266939952504,380.3006425059939,None,380.9813832857006,None,None,380.9813832857006,None,,14,001,2021_Oct_07_0946,searchDisc4,2021.2.3,59.48143962197479,
images/exp2b_trial_115_colour1_distractors31_l.png,l,f,2b,115,1,31,,,,,0,168,168,736,,,,,,,,,,,,,,,,,,,,,,,,,,,,,,,,,,,,,,,,,,,,,,,,,,,,,,,,,,,,,,,,,,,,,,,,,,,,380.98105265699996,None,space,0.2894955170049798,380.98105265699996,None,381.35057883299305,None,f,1,0.5120559879942448,381.35057883299305,None,381.88205835069385,None,None,381.88205835069385,None,,14,001,2021_Oct_07_0946,searchDisc4,2021.2.3,59.48143962197479,
images/exp1b_trial_39_colour2_distractors9_r.png,r,j,1b,39,2,9,,,,,0,169,169,276,,,,,,,,,,,,,,,,,,,,,,,,,,,,,,,,,,,,,,,,,,,,,,,,,,,,,,,,,,,,,,,,,,,,,,,,,,,,381.8816090649998,None,space,0.23684889200376347,381.8816090649998,None,382.2006088559938,None,j,1,0.6620525170001201,382.2006088559938,None,382.88196058069735,None,None,382.88196058069735,None,,14,001,2021_Oct_07_0946,searchDisc4,2021.2.3,59.48143962197479,
images/exp2b_trial_28_colour3_distractors19_l.png,l,f,2b,28,3,19,,,,,0,170,170,649,,,,,,,,,,,,,,,,,,,,,,,,,,,,,,,,,,,,,,,,,,,,,,,,,,,,,,,,,,,,,,,,,,,,,,,,,,,,382.88157844399393,None,space,0.2369653380010277,382.88157844399393,None,383.2006094949975,None,f,1,0.6061046850009006,383.2006094949975,None,383.83172882869695,None,None,383.83172882869695,None,,14,001,2021_Oct_07_0946,searchDisc4,2021.2.3,59.48143962197479,
images/exp2c_trial_104_colour2_distractors19_r.png,r,j,2c,104,2,19,,,,,0,171,171,917,,,,,,,,,,,,,,,,,,,,,,,,,,,,,,,,,,,,,,,,,,,,,,,,,,,,,,,,,,,,,,,,,,,,,,,,,,,,383.8312208539937,None,space,0.2074726929931785,383.8312208539937,None,384.1175659849978,None,j,1,0.7212083530030213,384.1175659849978,None,384.86483668569855,None,None,384.86483668569855,None,,14,001,2021_Oct_07_0946,searchDisc4,2021.2.3,59.48143962197479,
images/exp2c_trial_130_colour1_distractors9_r.png,r,j,2c,130,1,9,,,,,0,172,172,943,,,,,,,,,,,,,,,,,,,,,,,,,,,,,,,,,,,,,,,,,,,,,,,,,,,,,,,,,,,,,,,,,,,,,,,,,,,,384.86500968399923,None,space,0.18971978499757824,384.86500968399923,None,385.13424295000004,None,j,1,0.6005645909972372,385.13424295000004,None,385.7653920876954,None,None,385.7653920876954,None,,14,001,2021_Oct_07_0946,searchDisc4,2021.2.3,59.48143962197479,
images/exp2c_trial_11_colour3_distractors4_r.png,r,j,2c,11,3,4,,,,,0,173,173,824,,,,,,,,,,,,,,,,,,,,,,,,,,,,,,,,,,,,,,,,,,,,,,,,,,,,,,,,,,,,,,,,,,,,,,,,,,,,385.76506219099974,None,space,0.26570736799476435,385.76506219099974,None,386.1006501729935,None,j,1,0.7460864859967842,386.1006501729935,None,386.8646755136986,None,None,386.8646755136986,None,,14,001,2021_Oct_07_0946,searchDisc4,2021.2.3,59.48143962197479,
images/exp2c_trial_16_colour1_distractors4_l.png,l,f,2c,16,1,4,,,,,0,174,174,829,,,,,,,,,,,,,,,,,,,,,,,,,,,,,,,,,,,,,,,,,,,,,,,,,,,,,,,,,,,,,,,,,,,,,,,,,,,,386.86437170799763,None,space,0.22244092899927637,386.86437170799763,None,387.1673353099977,None,f,1,0.5835613910021493,387.1673353099977,None,387.78202794969985,None,None,387.78202794969985,None,,14,001,2021_Oct_07_0946,searchDisc4,2021.2.3,59.48143962197479,
images/exp1b_trial_37_colour2_distractors1_r.png,r,j,1b,37,2,1,,,,,0,175,175,274,,,,,,,,,,,,,,,,,,,,,,,,,,,,,,,,,,,,,,,,,,,,,,,,,,,,,,,,,,,,,,,,,,,,,,,,,,,,387.78158129799704,None,space,0.21722014200349804,387.78158129799704,None,388.06738692499493,None,j,1,0.6035522059974028,388.06738692499493,None,388.69878207569565,None,None,388.69878207569565,None,,14,001,2021_Oct_07_0946,searchDisc4,2021.2.3,59.48143962197479,
images/exp2c_trial_63_colour0_distractors0_l.png,l,f,2c,63,0,0,,,,,0,176,176,876,,,,,,,,,,,,,,,,,,,,,,,,,,,,,,,,,,,,,,,,,,,,,,,,,,,,,,,,,,,,,,,,,,,,,,,,,,,,388.69851065799594,None,space,0.1963806640051189,388.69851065799594,None,388.95706275299744,None,f,1,0.5139020269998582,388.95706275299744,None,389.49873300369364,None,None,389.49873300369364,None,,14,001,2021_Oct_07_0946,searchDisc4,2021.2.3,59.48143962197479,
images/exp2c_trial_158_colour0_distractors0_r.png,r,j,2c,158,0,0,,,,,0,177,177,11,,,,,,,,,,,,,,,,,,,,,,,,,,,,,,,,,,,,,,,,,,,,,,,,,,,,,,,,,,,,,,,,,,,,,,,,,,,,389.4984902750002,None,space,0.11638778699852992,389.4984902750002,None,389.6841974659983,None,j,1,0.6668067990030977,389.6841974659983,None,390.381597430697,None,None,390.381597430697,None,,14,001,2021_Oct_07_0946,searchDisc4,2021.2.3,59.48143962197479,
images/exp2b_trial_105_colour2_distractors31_r.png,r,j,2b,105,2,31,,,,,0,178,178,726,,,,,,,,,,,,,,,,,,,,,,,,,,,,,,,,,,,,,,,,,,,,,,,,,,,,,,,,,,,,,,,,,,,,,,,,,,,,390.381336775994,None,space,0.22561924199544592,390.381336775994,None,390.68398776799586,None,j,1,0.5309780600000522,390.68398776799586,None,391.23228211969837,None,None,391.23228211969837,None,,14,001,2021_Oct_07_0946,searchDisc4,2021.2.3,59.48143962197479,
images/exp2b_trial_22_colour2_distractors9_l.png,l,f,2b,22,2,9,,,,,0,179,179,643,,,,,,,,,,,,,,,,,,,,,,,,,,,,,,,,,,,,,,,,,,,,,,,,,,,,,,,,,,,,,,,,,,,,,,,,,,,,391.2320316719997,None,space,0.2789407949967426,391.2320316719997,None,391.5738350689935,None,f,1,0.5932634660057374,391.5738350689935,None,392.19890073769494,None,None,392.19890073769494,None,,14,001,2021_Oct_07_0946,searchDisc4,2021.2.3,59.48143962197479,
images/exp1a_trial_169_colour2_distractors31_r.png,r,j,1a,169,2,31,,,,,0,180,180,214,,,,,,,,,,,,,,,,,,,,,,,,,,,,,,,,,,,,,,,,,,,,,,,,,,,,,,,,,,,,,,,,,,,,,,,,,,,,392.1985336459984,None,space,0.264503787002468,392.1985336459984,None,392.5342505419976,None,f,0,0.44876351700077066,392.5342505419976,None,393.0155388606989,None,None,393.0155388606989,None,,14,001,2021_Oct_07_0946,searchDisc4,2021.2.3,59.48143962197479,
images/exp2b_trial_1_colour1_distractors4_r.png,r,j,2b,1,1,4,,,,,0,181,181,622,,,,,,,,,,,,,,,,,,,,,,,,,,,,,,,,,,,,,,,,,,,,,,,,,,,,,,,,,,,,,,,,,,,,,,,,,,,,393.0152912169942,None,space,0.4077870080000139,393.0152912169942,None,393.5009968869999,None,j,1,0.5061670670038438,393.5009968869999,None,394.0321055006978,None,None,394.0321055006978,None,,14,001,2021_Oct_07_0946,searchDisc4,2021.2.3,59.48143962197479,
images/exp2a_trial_131_colour1_distractors19_r.png,r,j,2a,131,1,19,,,,,0,182,182,560,,,,,,,,,,,,,,,,,,,,,,,,,,,,,,,,,,,,,,,,,,,,,,,,,,,,,,,,,,,,,,,,,,,,,,,,,,,,394.0319989329946,None,space,0.27912824799568625,394.0319989329946,None,394.3842416970001,None,j,1,0.5829782689979766,394.3842416970001,None,394.9989799216972,None,None,394.9989799216972,None,,14,001,2021_Oct_07_0946,searchDisc4,2021.2.3,59.48143962197479,
images/exp2a_trial_155_colour3_distractors9_l.png,l,f,2a,155,3,9,,,,,0,183,183,584,,,,,,,,,,,,,,,,,,,,,,,,,,,,,,,,,,,,,,,,,,,,,,,,,,,,,,,,,,,,,,,,,,,,,,,,,,,,394.9987961769948,None,space,0.20835914600320393,394.9987961769948,None,395.28435130499565,None,f,1,0.6268830860062735,395.28435130499565,None,395.9316400476935,None,None,395.9316400476935,None,,14,001,2021_Oct_07_0946,searchDisc4,2021.2.3,59.48143962197479,
images/exp2a_trial_144_colour1_distractors4_l.png,l,f,2a,144,1,4,,,,,0,184,184,573,,,,,,,,,,,,,,,,,,,,,,,,,,,,,,,,,,,,,,,,,,,,,,,,,,,,,,,,,,,,,,,,,,,,,,,,,,,,395.9321541229947,None,space,0.26699159599957056,395.9321541229947,None,396.2676879299979,None,f,1,0.6916023860030691,396.2676879299979,None,396.9820135146991,None,None,396.9820135146991,None,,14,001,2021_Oct_07_0946,searchDisc4,2021.2.3,59.48143962197479,
images/exp2a_trial_132_colour1_distractors31_r.png,r,j,2a,132,1,31,,,,,0,185,185,561,,,,,,,,,,,,,,,,,,,,,,,,,,,,,,,,,,,,,,,,,,,,,,,,,,,,,,,,,,,,,,,,,,,,,,,,,,,,396.9822314060002,None,space,0.3770352270003059,396.9822314060002,None,397.43407218899665,None,j,1,0.48527633499907097,397.43407218899665,None,397.9489921236935,None,None,397.9489921236935,None,,14,001,2021_Oct_07_0946,searchDisc4,2021.2.3,59.48143962197479,
images/exp2a_trial_171_colour3_distractors4_r.png,r,j,2a,171,3,4,,,,,0,186,186,600,,,,,,,,,,,,,,,,,,,,,,,,,,,,,,,,,,,,,,,,,,,,,,,,,,,,,,,,,,,,,,,,,,,,,,,,,,,,397.94881345199974,None,space,0.25847502099350095,397.94881345199974,None,398.2844072719963,None,j,1,0.48297771099896636,398.2844072719963,None,398.79897431169667,None,None,398.79897431169667,None,,14,001,2021_Oct_07_0946,searchDisc4,2021.2.3,59.48143962197479,
images/exp1b_trial_19_colour1_distractors31_l.png,l,f,1b,19,1,31,,,,,0,187,187,256,,,,,,,,,,,,,,,,,,,,,,,,,,,,,,,,,,,,,,,,,,,,,,,,,,,,,,,,,,,,,,,,,,,,,,,,,,,,398.7989155239993,None,space,0.20842712200101232,398.7989155239993,None,399.08442442599335,None,f,1,0.5389894729960361,399.08442442599335,None,399.64902703269473,None,None,399.64902703269473,None,,14,001,2021_Oct_07_0946,searchDisc4,2021.2.3,59.48143962197479,
images/exp2b_trial_147_colour1_distractors31_l.png,l,f,2b,147,1,31,,,,,0,188,188,768,,,,,,,,,,,,,,,,,,,,,,,,,,,,,,,,,,,,,,,,,,,,,,,,,,,,,,,,,,,,,,,,,,,,,,,,,,,,399.6486621369986,None,space,0.3187701159986318,399.6486621369986,None,400.0344805029963,None,f,1,0.6610032490061712,400.0344805029963,None,400.7159891436939,None,None,400.7159891436939,None,,14,001,2021_Oct_07_0946,searchDisc4,2021.2.3,59.48143962197479,
images/exp2b_trial_14_colour3_distractors31_r.png,r,j,2b,14,3,31,,,,,0,189,189,635,,,,,,,,,,,,,,,,,,,,,,,,,,,,,,,,,,,,,,,,,,,,,,,,,,,,,,,,,,,,,,,,,,,,,,,,,,,,400.7154961809938,None,space,0.24393881000287365,400.7154961809938,None,401.03393062799296,None,j,1,0.5175967100003618,401.03393062799296,None,401.58275641469373,None,None,401.58275641469373,None,,14,001,2021_Oct_07_0946,searchDisc4,2021.2.3,59.48143962197479,
images/exp2b_trial_148_colour2_distractors1_l.png,l,f,2b,148,2,1,,,,,0,190,190,769,,,,,,,,,,,,,,,,,,,,,,,,,,,,,,,,,,,,,,,,,,,,,,,,,,,,,,,,,,,,,,,,,,,,,,,,,,,,401.582297901994,None,space,0.28919337000115775,401.582297901994,None,401.95107116500003,None,f,1,0.6804134990015882,401.95107116500003,None,402.64913923969726,None,None,402.64913923969726,None,,14,001,2021_Oct_07_0946,searchDisc4,2021.2.3,59.48143962197479,
images/exp2b_trial_154_colour3_distractors4_l.png,l,f,2b,154,3,4,,,,,0,191,191,775,,,,,,,,,,,,,,,,,,,,,,,,,,,,,,,,,,,,,,,,,,,,,,,,,,,,,,,,,,,,,,,,,,,,,,,,,,,,402.64874014499946,None,space,0.1667455280039576,402.64874014499946,None,402.8845448840002,None,f,1,0.5950685179996071,402.8845448840002,None,403.49897250069336,None,None,403.49897250069336,None,,14,001,2021_Oct_07_0946,searchDisc4,2021.2.3,59.48143962197479,
images/exp2b_trial_124_colour3_distractors19_l.png,l,f,2b,124,3,19,,,,,0,192,192,745,,,,,,,,,,,,,,,,,,,,,,,,,,,,,,,,,,,,,,,,,,,,,,,,,,,,,,,,,,,,,,,,,,,,,,,,,,,,403.49891285299964,None,space,0.26864104100241093,403.49891285299964,None,403.83462775399676,None,f,1,0.5090256930052419,403.83462775399676,None,404.36525912769577,None,None,404.36525912769577,None,,14,001,2021_Oct_07_0946,searchDisc4,2021.2.3,59.48143962197479,
images/exp2c_trial_51_colour1_distractors31_l.png,l,f,2c,51,1,31,,,,,0,193,193,864,,,,,,,,,,,,,,,,,,,,,,,,,,,,,,,,,,,,,,,,,,,,,,,,,,,,,,,,,,,,,,,,,,,,,,,,,,,,404.36570792999555,None,space,0.36189879899757216,404.36570792999555,None,404.801187180994,None,f,1,0.5425144599939813,404.801187180994,None,405.36534271869897,None,None,405.36534271869897,None,,14,001,2021_Oct_07_0946,searchDisc4,2021.2.3,59.48143962197479,
images/exp1a_trial_81_colour1_distractors9_l.png,l,f,1a,81,1,9,,,,,0,194,194,126,,,,,,,,,,,,,,,,,,,,,,,,,,,,,,,,,,,,,,,,,,,,,,,,,,,,,,,,,,,,,,,,,,,,,,,,,,,,405.3660234449999,None,space,0.29754759799834574,405.3660234449999,None,405.73453917799634,None,f,1,0.6092016960028559,405.73453917799634,None,406.3653337496988,None,None,406.3653337496988,None,,14,001,2021_Oct_07_0946,searchDisc4,2021.2.3,59.48143962197479,
images/exp2b_trial_55_colour2_distractors19_l.png,l,f,2b,55,2,19,,,,,0,195,195,676,,,,,,,,,,,,,,,,,,,,,,,,,,,,,,,,,,,,,,,,,,,,,,,,,,,,,,,,,,,,,,,,,,,,,,,,,,,,406.3649664909972,None,space,0.27464928699919255,406.3649664909972,None,406.7179827419968,None,f,1,0.5298173960036365,406.7179827419968,None,407.26558737269517,None,None,407.26558737269517,None,,14,001,2021_Oct_07_0946,searchDisc4,2021.2.3,59.48143962197479,
images/exp2a_trial_126_colour0_distractors0_r.png,r,j,2a,126,0,0,,,,,0,196,196,555,,,,,,,,,,,,,,,,,,,,,,,,,,,,,,,,,,,,,,,,,,,,,,,,,,,,,,,,,,,,,,,,,,,,,,,,,,,,407.26577761099907,None,space,0.2379861380031798,407.26577761099907,None,407.5846653849949,None,j,1,0.4951531039987458,407.5846653849949,None,408.0991882326969,None,None,408.0991882326969,None,,14,001,2021_Oct_07_0946,searchDisc4,2021.2.3,59.48143962197479,
images/exp1a_trial_47_colour1_distractors1_l.png,l,f,1a,47,1,1,,,,,0,197,197,92,,,,,,,,,,,,,,,,,,,,,,,,,,,,,,,,,,,,,,,,,,,,,,,,,,,,,,,,,,,,,,,,,,,,,,,,,,,,408.09894315799465,None,space,0.22883201099466532,408.09894315799465,None,408.4010737599965,None,f,1,0.4948153470031684,408.4010737599965,None,408.9162556466952,None,None,408.9162556466952,None,,14,001,2021_Oct_07_0946,searchDisc4,2021.2.3,59.48143962197479,
images/exp2c_trial_86_colour2_distractors9_l.png,l,f,2c,86,2,9,,,,,0,198,198,899,,,,,,,,,,,,,,,,,,,,,,,,,,,,,,,,,,,,,,,,,,,,,,,,,,,,,,,,,,,,,,,,,,,,,,,,,,,,408.91572775599343,None,space,0.18807697299780557,408.91572775599343,None,409.1847041459987,None,f,1,0.4871873039955972,409.1847041459987,None,409.69943343969936,None,None,409.69943343969936,None,,14,001,2021_Oct_07_0946,searchDisc4,2021.2.3,59.48143962197479,
images/exp2b_trial_92_colour3_distractors19_l.png,l,f,2b,92,3,19,,,,,0,199,199,713,,,,,,,,,,,,,,,,,,,,,,,,,,,,,,,,,,,,,,,,,,,,,,,,,,,,,,,,,,,,,,,,,,,,,,,,,,,,409.698970145997,None,space,0.15689071300585056,409.698970145997,None,409.93481375999545,None,f,1,0.49700546100211795,409.93481375999545,None,410.44942404569593,None,None,410.44942404569593,None,,14,001,2021_Oct_07_0946,searchDisc4,2021.2.3,59.48143962197479,
images/exp2a_trial_106_colour3_distractors1_r.png,r,j,2a,106,3,1,,,,,0,200,200,535,,,,,,,,,,,,,,,,,,,,,,,,,,,,,,,,,,,,,,,,,,,,,,,,,,,,,,,,,,,,,,,,,,,,,,,,,,,,410.4489537929985,None,space,0.13493901100446237,410.4489537929985,None,410.6511503559959,None,j,1,0.5728117289982038,410.6511503559959,None,411.2495061666967,None,None,411.2495061666967,None,,14,001,2021_Oct_07_0946,searchDisc4,2021.2.3,59.48143962197479,
images/exp1a_trial_51_colour1_distractors31_l.png,l,f,1a,51,1,31,,,,,0,201,201,96,,,,,,,,,,,,,,,,,,,,,,,,,,,,,,,,,,,,,,,,,,,,,,,,,,,,,,,,,,,,,,,,,,,,,,,,,,,,411.24907639599405,None,space,0.12685418999899412,411.24907639599405,None,411.4511083339967,None,f,1,0.7088969569958863,411.4511083339967,None,412.1827521216954,None,None,412.1827521216954,None,,14,001,2021_Oct_07_0946,searchDisc4,2021.2.3,59.48143962197479,
images/exp1b_trial_161_colour1_distractors4_r.png,r,j,1b,161,1,4,,,,,0,202,202,398,,,,,,,,,,,,,,,,,,,,,,,,,,,,,,,,,,,,,,,,,,,,,,,,,,,,,,,,,,,,,,,,,,,,,,,,,,,,412.18231732599816,None,space,0.3056376300010015,412.18231732599816,None,412.5679089369951,None,j,1,0.8401552080031252,412.5679089369951,None,413.43276643869905,None,None,413.43276643869905,None,,14,001,2021_Oct_07_0946,searchDisc4,2021.2.3,59.48143962197479,
images/exp2b_trial_173_colour3_distractors19_r.png,r,j,2b,173,3,19,,,,,0,203,203,794,,,,,,,,,,,,,,,,,,,,,,,,,,,,,,,,,,,,,,,,,,,,,,,,,,,,,,,,,,,,,,,,,,,,,,,,,,,,413.4319337909983,None,space,0.2400996069991379,413.4319337909983,None,413.751201715997,None,j,1,0.5849188700012746,413.751201715997,None,414.36623441669946,None,None,414.36623441669946,None,,14,001,2021_Oct_07_0946,searchDisc4,2021.2.3,59.48143962197479,
images/exp2c_trial_46_colour3_distractors31_r.png,r,j,2c,46,3,31,,,,,0,204,204,859,,,,,,,,,,,,,,,,,,,,,,,,,,,,,,,,,,,,,,,,,,,,,,,,,,,,,,,,,,,,,,,,,,,,,,,,,,,,414.3659548049982,None,space,0.18600534799770685,414.3659548049982,None,414.6349563009935,None,j,1,0.5411866229987936,414.6349563009935,None,415.198898837695,None,None,415.198898837695,None,,14,001,2021_Oct_07_0946,searchDisc4,2021.2.3,59.48143962197479,
images/exp2b_trial_143_colour1_distractors1_l.png,l,f,2b,143,1,1,,,,,0,205,205,764,,,,,,,,,,,,,,,,,,,,,,,,,,,,,,,,,,,,,,,,,,,,,,,,,,,,,,,,,,,,,,,,,,,,,,,,,,,,415.19852892799827,None,space,0.20957983799598878,415.19852892799827,None,415.48480810499314,None,f,1,0.5312806130023091,415.48480810499314,None,416.03291146069824,None,None,416.03291146069824,None,,14,001,2021_Oct_07_0946,searchDisc4,2021.2.3,59.48143962197479,
images/exp2a_trial_37_colour2_distractors1_r.png,r,j,2a,37,2,1,,,,,0,206,206,466,,,,,,,,,,,,,,,,,,,,,,,,,,,,,,,,,,,,,,,,,,,,,,,,,,,,,,,,,,,,,,,,,,,,,,,,,,,,416.03269687099964,None,space,0.21539792499970645,416.03269687099964,None,416.3181679979971,None,j,1,0.562049403997662,416.3181679979971,None,416.89942850869994,None,None,416.89942850869994,None,,14,001,2021_Oct_07_0946,searchDisc4,2021.2.3,59.48143962197479,
images/exp2c_trial_48_colour1_distractors4_l.png,l,f,2c,48,1,4,,,,,0,207,207,861,,,,,,,,,,,,,,,,,,,,,,,,,,,,,,,,,,,,,,,,,,,,,,,,,,,,,,,,,,,,,,,,,,,,,,,,,,,,416.899115152999,None,space,0.2210512630044832,416.899115152999,None,417.20119557,None,f,1,0.5110408709952026,417.20119557,None,417.7326608677002,None,None,417.7326608677002,None,,14,001,2021_Oct_07_0946,searchDisc4,2021.2.3,59.48143962197479,
images/exp2c_trial_178_colour1_distractors19_l.png,l,f,2c,178,1,19,,,,,0,208,208,31,,,,,,,,,,,,,,,,,,,,,,,,,,,,,,,,,,,,,,,,,,,,,,,,,,,,,,,,,,,,,,,,,,,,,,,,,,,,417.73266545399383,None,space,0.15551780399982817,417.73266545399383,None,417.96826587599935,None,f,1,0.5280514789992594,417.96826587599935,None,418.51552295469884,None,None,418.51552295469884,None,,14,001,2021_Oct_07_0946,searchDisc4,2021.2.3,59.48143962197479,
images/exp2b_trial_26_colour3_distractors4_l.png,l,f,2b,26,3,4,,,,,0,209,209,647,,,,,,,,,,,,,,,,,,,,,,,,,,,,,,,,,,,,,,,,,,,,,,,,,,,,,,,,,,,,,,,,,,,,,,,,,,,,418.51539129399316,None,space,0.19683182000153465,418.51539129399316,None,418.78496567999537,None,f,1,0.4152825479977764,418.78496567999537,None,419.2327521066953,None,None,419.2327521066953,None,,14,001,2021_Oct_07_0946,searchDisc4,2021.2.3,59.48143962197479,
images/exp1b_trial_40_colour2_distractors19_r.png,r,j,1b,40,2,19,,,,,0,210,210,277,,,,,,,,,,,,,,,,,,,,,,,,,,,,,,,,,,,,,,,,,,,,,,,,,,,,,,,,,,,,,,,,,,,,,,,,,,,,419.23266220899677,None,space,0.33552986799622886,419.23266220899677,None,419.6509621439982,None,j,1,0.5334162719955202,419.6509621439982,None,420.21572831670056,None,None,420.21572831670056,None,,14,001,2021_Oct_07_0946,searchDisc4,2021.2.3,59.48143962197479,
images/exp2c_trial_69_colour2_distractors1_r.png,r,j,2c,69,2,1,,,,,0,211,211,882,,,,,,,,,,,,,,,,,,,,,,,,,,,,,,,,,,,,,,,,,,,,,,,,,,,,,,,,,,,,,,,,,,,,,,,,,,,,420.21559294499457,None,space,0.17671172799600754,420.21559294499457,None,420.46835960699536,None,f,0,0.4521046469963039,420.46835960699536,None,420.94975954869443,None,None,420.94975954869443,None,,14,001,2021_Oct_07_0946,searchDisc4,2021.2.3,59.48143962197479,
images/exp2b_trial_88_colour2_distractors31_l.png,l,f,2b,88,2,31,,,,,0,212,212,709,,,,,,,,,,,,,,,,,,,,,,,,,,,,,,,,,,,,,,,,,,,,,,,,,,,,,,,,,,,,,,,,,,,,,,,,,,,,420.94896206199337,None,space,0.09136096099973656,420.94896206199337,None,421.1182939229984,None,f,1,0.6901331819972256,421.1182939229984,None,421.83233432769777,None,None,421.83233432769777,None,,14,001,2021_Oct_07_0946,searchDisc4,2021.2.3,59.48143962197479,
images/exp2a_trial_150_colour2_distractors9_l.png,l,f,2a,150,2,9,,,,,0,213,213,579,,,,,,,,,,,,,,,,,,,,,,,,,,,,,,,,,,,,,,,,,,,,,,,,,,,,,,,,,,,,,,,,,,,,,,,,,,,,421.8328883849972,None,space,0.11150943400571123,421.8328883849972,None,422.0184201259981,None,f,1,0.5819902910006931,422.0184201259981,None,422.633054315699,None,None,422.633054315699,None,,14,001,2021_Oct_07_0946,searchDisc4,2021.2.3,59.48143962197479,
images/exp2a_trial_87_colour2_distractors19_l.png,l,f,2a,87,2,19,,,,,0,214,214,516,,,,,,,,,,,,,,,,,,,,,,,,,,,,,,,,,,,,,,,,,,,,,,,,,,,,,,,,,,,,,,,,,,,,,,,,,,,,422.63199434899434,None,space,0.10443431000021519,422.63199434899434,None,422.81843993199436,None,f,1,0.46206673800043063,422.81843993199436,None,423.29980549169414,None,None,423.29980549169414,None,,14,001,2021_Oct_07_0946,searchDisc4,2021.2.3,59.48143962197479,
images/exp2a_trial_24_colour2_distractors31_l.png,l,f,2a,24,2,31,,,,,0,215,215,453,,,,,,,,,,,,,,,,,,,,,,,,,,,,,,,,,,,,,,,,,,,,,,,,,,,,,,,,,,,,,,,,,,,,,,,,,,,,423.29935043799924,None,space,0.11708942100085551,423.29935043799924,None,423.48626486499415,None,f,1,0.866308411998034,423.48626486499415,None,424.3830926087001,None,None,424.3830926087001,None,,14,001,2021_Oct_07_0946,searchDisc4,2021.2.3,59.48143962197479,
