ImageFile,targ_side,correctAnswer,exp,trial,colour,distNo,trials_2.thisRepN,trials_2.thisTrialN,trials_2.thisN,trials_2.thisIndex,trials.thisRepN,trials.thisTrialN,trials.thisN,trials.thisIndex,X Scale,Y Scale,text_top.started,text_top.stopped,text_bottom.started,text_bottom.stopped,ccimage.started,ccimage.stopped,text_6.started,text_6.stopped,key_resp_10.keys,key_resp_10.rt,key_resp_10.started,key_resp_10.stopped,text_7.started,text_7.stopped,key_resp_11.keys,key_resp_11.rt,key_resp_11.started,key_resp_11.stopped,text_8.started,text_8.stopped,key_resp_12.keys,key_resp_12.rt,key_resp_12.started,key_resp_12.stopped,text_9.started,text_9.stopped,key_resp_13.keys,key_resp_13.rt,key_resp_13.started,key_resp_13.stopped,text_2.started,text_2.stopped,key_resp_5.keys,key_resp_5.rt,key_resp_5.started,key_resp_5.stopped,text_5.started,text_5.stopped,key_resp_8.keys,key_resp_8.rt,key_resp_8.started,key_resp_8.stopped,image_2.started,image_2.stopped,key_resp_6.keys,key_resp_6.rt,key_resp_6.started,key_resp_6.stopped,text_3.started,text_3.stopped,image_3.started,image_3.stopped,fix.started,fix.stopped,key_resp_7.keys,key_resp_7.rt,key_resp_7.started,key_resp_7.stopped,image.started,image.stopped,key_resp_4.keys,key_resp_4.corr,key_resp_4.rt,key_resp_4.started,key_resp_4.stopped,text_4.started,text_4.stopped,text.started,text.stopped,key_resp_3.keys,key_resp_3.rt,key_resp_3.started,key_resp_3.stopped,fix2experiment.started,fix2experiment.stopped,key_resp_9.keys,key_resp_9.rt,key_resp_9.started,key_resp_9.stopped,dispStimuli.started,dispStimuli.stopped,key_resp_2.keys,key_resp_2.corr,key_resp_2.rt,key_resp_2.started,key_resp_2.stopped,breakMessage.started,breakMessage.stopped,key_resp.keys,key_resp.started,key_resp.stopped,key_resp.rt,participant,session,date,expName,psychopyVersion,frameRate,
,,,,,,,,,,,,,,,35.9,35.3,16.302328696998302,None,16.302328696998302,None,16.302328696998302,None,119.20479487799457,None,space,13.256704970997816,119.20479487799457,None,,,,,,,,,,,,,,,,,,,,,,,,,,,,,,,,,,,,,,,,,,,,,,,,,,,,,,,,,,,,,,,,,,,,,,,,,,,,,,,,,16,001,2021_Oct_07_1107,searchDisc4,2021.2.3,59.493268936269025,
,,,,,,,,,,,,,,,,,,,,,,,,,,,,,132.48759626399988,None,space,1.8939843580010347,132.48759626399988,None,,,,,,,,,,,,,,,,,,,,,,,,,,,,,,,,,,,,,,,,,,,,,,,,,,,,,,,,,,,,,,,,,,,,,,,,,,,16,001,2021_Oct_07_1107,searchDisc4,2021.2.3,59.493268936269025,
,,,,,,,,,,,,,,,,,,,,,,,,,,,,,,,,,,,134.4052135719976,None,space,1.5444261580050807,134.4052135719976,None,,,,,,,,,,,,,,,,,,,,,,,,,,,,,,,,,,,,,,,,,,,,,,,,,,,,,,,,,,,,,,,,,,,,,16,001,2021_Oct_07_1107,searchDisc4,2021.2.3,59.493268936269025,
,,,,,,,,,,,,,,,,,,,,,,,,,,,,,,,,,,,,,,,,,135.97188145999826,None,space,1.1617988590005552,135.97188145999826,None,,,,,,,,,,,,,,,,,,,,,,,,,,,,,,,,,,,,,,,,,,,,,,,,,,,,,,,,,,,,,,,16,001,2021_Oct_07_1107,searchDisc4,2021.2.3,59.493268936269025,
,,,,,,,,,,,,,,,,,,,,,,,,,,,,,,,,,,,,,,,,,,,,,,,137.15515145300014,None,space,3.78810106900346,138.12179915999877,None,,,,,,,,,,,,,,,,,,,,,,,,,,,,,,,,,,,,,,,,,,,,,,,,,,,,,,,,,16,001,2021_Oct_07_1107,searchDisc4,2021.2.3,59.493268936269025,
,,,,,,,,,,,,,,,,,,,,,,,,,,,,,,,,,,,,,,,,,,,,,,,,,,,,,141.93885061699984,None,space,10.211529673993937,141.93885061699984,None,,,,,,,,,,,,,,,,,,,,,,,,,,,,,,,,,,,,,,,,,,,,,,,,,,,16,001,2021_Oct_07_1107,searchDisc4,2021.2.3,59.493268936269025,
,,,,,,,,,,,,,,,,,,,,,,,,,,,,,,,,,,,,,,,,,,,,,,,,,,,,,,,,,,,152.17236316799972,None,space,5.363739792002889,153.13896072699572,None,,,,,,,,,,,,,,,,,,,,,,,,,,,,,,,,,,,,,,,,,,,,,16,001,2021_Oct_07_1107,searchDisc4,2021.2.3,59.493268936269025,
Practice arrays/exp1a_trial_18_colour1_distractors19_l.png,l,f,,,,,0,0,0,8,,,,,,,,,,,,,,,,,,,,,,,,,,,,,,,,,,,,,,,,,,,,,,,,,,,,,,,152.17236316799972,None,152.17236316799972,None,158.53909913599637,None,space,7.027874158993654,158.53909913599637,None,165.65596899599768,None,f,1,1.7590731700038305,165.65596899599768,None,167.43732136299514,None,,,,,,,,,,,,,,,,,,,,,,,,,,16,001,2021_Oct_07_1107,searchDisc4,2021.2.3,59.493268936269025,
Practice arrays/exp1a_trial_30_colour0_distractors0_r.png,r,j,,,,,0,1,1,14,,,,,,,,,,,,,,,,,,,,,,,,,,,,,,,,,,,,,,,,,,,,,,,,,,,,,,,,,,,168.4393976949941,None,space,0.7277513040025951,168.4393976949941,None,169.23960891200113,None,j,1,0.6956082459946629,169.23960891200113,None,169.95417967799585,None,,,,,,,,,,,,,,,,,,,,,,,,,,16,001,2021_Oct_07_1107,searchDisc4,2021.2.3,59.493268936269025,
Practice arrays/exp1a_trial_21_colour2_distractors4_l.png,l,f,,,,,0,2,2,9,,,,,,,,,,,,,,,,,,,,,,,,,,,,,,,,,,,,,,,,,,,,,,,,,,,,,,,,,,,170.9554289739972,None,space,0.5078319130043383,170.9554289739972,None,171.53955846999452,None,f,1,0.5797410070008482,171.53955846999452,None,172.13741416199628,None,,,,,,,,,,,,,,,,,,,,,,,,,,16,001,2021_Oct_07_1107,searchDisc4,2021.2.3,59.493268936269025,
Practice arrays/exp1a_trial_10_colour3_distractors1_r.png,r,j,,,,,0,3,3,4,,,,,,,,,,,,,,,,,,,,,,,,,,,,,,,,,,,,,,,,,,,,,,,,,,,,,,,,,,,173.1394420689976,None,space,0.49996243300120113,173.1394420689976,None,173.70668167599797,None,j,1,0.5246944230020745,173.70668167599797,None,174.25424470899452,None,,,,,,,,,,,,,,,,,,,,,,,,,,16,001,2021_Oct_07_1107,searchDisc4,2021.2.3,59.493268936269025,
Practice arrays/exp1a_trial_7_colour2_distractors9_r.png,r,j,,,,,0,4,4,2,,,,,,,,,,,,,,,,,,,,,,,,,,,,,,,,,,,,,,,,,,,,,,,,,,,,,,,,,,,175.25612881299458,None,space,0.3193381559976842,175.25612881299458,None,175.6562804540008,None,j,1,0.48720900199987227,175.6562804540008,None,176.17086429399933,None,,,,,,,,,,,,,,,,,,,,,,,,,,16,001,2021_Oct_07_1107,searchDisc4,2021.2.3,59.493268936269025,
Practice arrays/exp1a_trial_25_colour3_distractors1_l.png,l,f,,,,,0,5,5,11,,,,,,,,,,,,,,,,,,,,,,,,,,,,,,,,,,,,,,,,,,,,,,,,,,,,,,,,,,,177.16991776099894,None,space,0.38962657999945804,177.16991776099894,None,177.63967410899932,None,j,0,0.5038835590021336,177.63967410899932,None,178.17099689899624,None,,,,,,,,,,,,,,,,,,,,,,,,,,16,001,2021_Oct_07_1107,searchDisc4,2021.2.3,59.493268936269025,
Practice arrays/exp1a_trial_0_colour1_distractors1_r.png,r,j,,,,,0,6,6,0,,,,,,,,,,,,,,,,,,,,,,,,,,,,,,,,,,,,,,,,,,,,,,,,,,,,,,,,,,,179.17288390599424,None,space,0.39475495999795385,179.17288390599424,None,179.63969232799718,None,j,1,0.5359621429961408,179.63969232799718,None,180.20433719099674,None,,,,,,,,,,,,,,,,,,,,,,,,,,16,001,2021_Oct_07_1107,searchDisc4,2021.2.3,59.493268936269025,
Practice arrays/exp1a_trial_12_colour3_distractors9_r.png,r,j,,,,,0,7,7,5,,,,,,,,,,,,,,,,,,,,,,,,,,,,,,,,,,,,,,,,,,,,,,,,,,,,,,,,,,,181.20638889999827,None,space,0.5133451829969999,181.20638889999827,None,181.7896689669942,None,j,1,0.4740903689962579,181.7896689669942,None,182.28770749799878,None,,,,,,,,,,,,,,,,,,,,,,,,,,16,001,2021_Oct_07_1107,searchDisc4,2021.2.3,59.493268936269025,
Practice arrays/exp1a_trial_27_colour3_distractors9_l.png,l,f,,,,,0,8,8,12,,,,,,,,,,,,,,,,,,,,,,,,,,,,,,,,,,,,,,,,,,,,,,,,,,,,,,,,,,,183.28965108199918,None,space,0.30216599800041877,183.28965108199918,None,183.67328447399632,None,f,1,0.5905552059994079,183.67328447399632,None,184.28774498299754,None,,,,,,,,,,,,,,,,,,,,,,,,,,16,001,2021_Oct_07_1107,searchDisc4,2021.2.3,59.493268936269025,
Practice arrays/exp1a_trial_1_colour1_distractors4_r.png,r,j,,,,,0,9,9,1,,,,,,,,,,,,,,,,,,,,,,,,,,,,,,,,,,,,,,,,,,,,,,,,,,,,,,,,,,,185.28964492099476,None,space,0.3501449870018405,185.28964492099476,None,185.7233345249988,None,j,1,0.4125171639971086,185.7233345249988,None,186.15452262899635,None,,,,,,,,,,,,,,,,,,,,,,,,,,16,001,2021_Oct_07_1107,searchDisc4,2021.2.3,59.493268936269025,
Practice arrays/exp1a_trial_17_colour1_distractors9_l.png,l,f,,,,,0,10,10,7,,,,,,,,,,,,,,,,,,,,,,,,,,,,,,,,,,,,,,,,,,,,,,,,,,,,,,,,,,,187.1564744599964,None,space,0.4115069540057448,187.1564744599964,None,187.63997450500028,None,f,1,0.4319534759997623,187.63997450500028,None,188.10437816599733,None,,,,,,,,,,,,,,,,,,,,,,,,,,16,001,2021_Oct_07_1107,searchDisc4,2021.2.3,59.493268936269025,
Practice arrays/exp1a_trial_16_colour1_distractors4_l.png,l,f,,,,,0,11,11,13,,,,,,,,,,,,,,,,,,,,,,,,,,,,,,,,,,,,,,,,,,,,,,,,,,,,,,,,,,,189.10678741599986,None,space,0.325317458002246,189.10678741599986,None,189.50677844299935,None,f,1,0.6773247769961017,189.50677844299935,None,190.20446405399707,None,,,,,,,,,,,,,,,,,,,,,,,,,,16,001,2021_Oct_07_1107,searchDisc4,2021.2.3,59.493268936269025,
Practice arrays/exp1a_trial_23_colour2_distractors19_l.png,l,f,,,,,0,12,12,10,,,,,,,,,,,,,,,,,,,,,,,,,,,,,,,,,,,,,,,,,,,,,,,,,,,,,,,,,,,191.20655070199427,None,space,0.38557371999922907,191.20655070199427,None,191.6735466559985,None,j,0,0.6626728510018438,191.6735466559985,None,192.3546816109956,None,,,,,,,,,,,,,,,,,,,,,,,,,,16,001,2021_Oct_07_1107,searchDisc4,2021.2.3,59.493268936269025,
Practice arrays/exp1a_trial_14_colour3_distractors31_r.png,r,j,,,,,0,13,13,6,,,,,,,,,,,,,,,,,,,,,,,,,,,,,,,,,,,,,,,,,,,,,,,,,,,,,,,,,,,193.35659206899436,None,space,0.4436793040003977,193.35659206899436,None,193.87353700699896,None,j,1,0.45475962899945443,193.87353700699896,None,194.3543726709977,None,,,,,,,,,,,,,,,,,,,,,,,,,,16,001,2021_Oct_07_1107,searchDisc4,2021.2.3,59.493268936269025,
Practice arrays/exp1a_trial_31_colour0_distractors0_l.png,l,f,,,,,0,14,14,15,,,,,,,,,,,,,,,,,,,,,,,,,,,,,,,,,,,,,,,,,,,,,,,,,,,,,,,,,,,195.3568108909967,None,space,0.3395621640011086,195.3568108909967,None,195.77355715299927,None,f,1,0.43482220800069626,195.77355715299927,None,196.23791785799403,None,,,,,,,,,,,,,,,,,,,,,,,,,,16,001,2021_Oct_07_1107,searchDisc4,2021.2.3,59.493268936269025,
Practice arrays/exp1a_trial_8_colour2_distractors19_r.png,r,j,,,,,0,15,15,3,,,,,,,,,,,,,,,,,,,,,,,,,,,,,,,,,,,,,,,,,,,,,,,,,,,,,,,,,,,197.2401187869982,None,space,0.4163529750003363,197.2401187869982,None,197.7236595919967,None,j,1,0.42084171299939044,197.7236595919967,None,198.17160961699847,None,,,,,,,,,,,,,,,,,,,,,,,,,,16,001,2021_Oct_07_1107,searchDisc4,2021.2.3,59.493268936269025,
,,,,,,,,,,,,,,,,,,,,,,,,,,,,,,,,,,,,,,,,,,,,,,,,,,,,,,,,,,,,,,,,,,,,,,,,,,,,,,,,,,,,199.24008176799543,None,space,13.57768231099908,202.2236159229942,None,,,,,,,,,,,,,,,,,,,,16,001,2021_Oct_07_1107,searchDisc4,2021.2.3,59.493268936269025,
images/exp1a_trial_109_colour3_distractors19_r.png,r,j,1a,109,3,19,,,,,0,0,0,154,,,,,,,,,,,,,,,,,,,,,,,,,,,,,,,,,,,,,,,,,,,,,,,,,,,,,,,,,,,,,,,,,,,,,,,,,,,,216.2069290340005,None,space,1.5384344260019134,216.2069290340005,None,217.8290408679968,None,j,1,0.516348620003555,217.8290408679968,None,218.37148111219503,None,None,218.37148111219503,None,,16,001,2021_Oct_07_1107,searchDisc4,2021.2.3,59.493268936269025,
images/exp2a_trial_173_colour3_distractors19_r.png,r,j,2a,173,3,19,,,,,0,1,1,602,,,,,,,,,,,,,,,,,,,,,,,,,,,,,,,,,,,,,,,,,,,,,,,,,,,,,,,,,,,,,,,,,,,,,,,,,,,,218.38863532799587,None,space,0.9567559779970907,218.38863532799587,None,219.4241968360002,None,j,1,0.5772692750033457,219.4241968360002,None,220.02201062319872,None,None,220.02201062319872,None,,16,001,2021_Oct_07_1107,searchDisc4,2021.2.3,59.493268936269025,
images/exp1a_trial_50_colour1_distractors19_l.png,l,f,1a,50,1,19,,,,,0,2,2,95,,,,,,,,,,,,,,,,,,,,,,,,,,,,,,,,,,,,,,,,,,,,,,,,,,,,,,,,,,,,,,,,,,,,,,,,,,,,220.02133764099563,None,space,1.1961303360003512,220.02133764099563,None,221.29032195399486,None,f,1,0.6072504760013544,221.29032195399486,None,221.92224317819418,None,None,221.92224317819418,None,,16,001,2021_Oct_07_1107,searchDisc4,2021.2.3,59.493268936269025,
images/exp2c_trial_23_colour2_distractors19_l.png,l,f,2c,23,2,19,,,,,0,3,3,836,,,,,,,,,,,,,,,,,,,,,,,,,,,,,,,,,,,,,,,,,,,,,,,,,,,,,,,,,,,,,,,,,,,,,,,,,,,,221.92191991299478,None,space,1.0155672040054924,221.92191991299478,None,223.0075324089994,None,f,1,0.45811005200084765,223.0075324089994,None,223.48847322520086,None,None,223.48847322520086,None,,16,001,2021_Oct_07_1107,searchDisc4,2021.2.3,59.493268936269025,
images/exp2c_trial_42_colour3_distractors1_r.png,r,j,2c,42,3,1,,,,,0,4,4,855,,,,,,,,,,,,,,,,,,,,,,,,,,,,,,,,,,,,,,,,,,,,,,,,,,,,,,,,,,,,,,,,,,,,,,,,,,,,223.48847807799757,None,space,0.5530430640064878,223.48847807799757,None,224.11356956099917,None,j,1,0.6481383400023333,224.11356956099917,None,224.78893647519507,None,None,224.78893647519507,None,,16,001,2021_Oct_07_1107,searchDisc4,2021.2.3,59.493268936269025,
images/exp2a_trial_174_colour3_distractors31_r.png,r,j,2a,174,3,31,,,,,0,5,5,603,,,,,,,,,,,,,,,,,,,,,,,,,,,,,,,,,,,,,,,,,,,,,,,,,,,,,,,,,,,,,,,,,,,,,,,,,,,,224.78885650499433,None,space,0.39682589800213464,224.78885650499433,None,225.25784654099698,None,j,1,0.6159116099952371,225.25784654099698,None,225.9056767591952,None,None,225.9056767591952,None,,16,001,2021_Oct_07_1107,searchDisc4,2021.2.3,59.493268936269025,
images/exp2a_trial_126_colour0_distractors0_r.png,r,j,2a,126,0,0,,,,,0,6,6,555,,,,,,,,,,,,,,,,,,,,,,,,,,,,,,,,,,,,,,,,,,,,,,,,,,,,,,,,,,,,,,,,,,,,,,,,,,,,225.90551399399556,None,space,0.3602122930024052,225.90551399399556,None,226.32913972099777,None,j,1,0.5046461020028801,226.32913972099777,None,226.85528241319625,None,None,226.85528241319625,None,,16,001,2021_Oct_07_1107,searchDisc4,2021.2.3,59.493268936269025,
images/exp2b_trial_94_colour0_distractors0_r.png,r,j,2b,94,0,0,,,,,0,7,7,715,,,,,,,,,,,,,,,,,,,,,,,,,,,,,,,,,,,,,,,,,,,,,,,,,,,,,,,,,,,,,,,,,,,,,,,,,,,,226.85496260799846,None,space,0.49080092299846,226.85496260799846,None,227.41334501699748,None,j,1,0.47640307000256144,227.41334501699748,None,227.92238943619813,None,None,227.92238943619813,None,,16,001,2021_Oct_07_1107,searchDisc4,2021.2.3,59.493268936269025,
images/exp2b_trial_63_colour0_distractors0_l.png,l,f,2b,63,0,0,,,,,0,8,8,684,,,,,,,,,,,,,,,,,,,,,,,,,,,,,,,,,,,,,,,,,,,,,,,,,,,,,,,,,,,,,,,,,,,,,,,,,,,,227.92241024599934,None,space,0.4314059289972647,227.92241024599934,None,228.41309375599667,None,f,1,0.45281431100011105,228.41309375599667,None,228.88865432819657,None,None,228.88865432819657,None,,16,001,2021_Oct_07_1107,searchDisc4,2021.2.3,59.493268936269025,
images/exp2b_trial_54_colour2_distractors9_l.png,l,f,2b,54,2,9,,,,,0,9,9,675,,,,,,,,,,,,,,,,,,,,,,,,,,,,,,,,,,,,,,,,,,,,,,,,,,,,,,,,,,,,,,,,,,,,,,,,,,,,228.8882328039981,None,space,0.5056352710016654,228.8882328039981,None,229.46333959699405,None,f,1,0.4506292520018178,229.46333959699405,None,229.93891791419955,None,None,229.93891791419955,None,,16,001,2021_Oct_07_1107,searchDisc4,2021.2.3,59.493268936269025,
images/exp2b_trial_95_colour0_distractors0_l.png,l,f,2b,95,0,0,,,,,0,10,10,716,,,,,,,,,,,,,,,,,,,,,,,,,,,,,,,,,,,,,,,,,,,,,,,,,,,,,,,,,,,,,,,,,,,,,,,,,,,,229.93898527599958,None,space,0.42293306800274877,229.93898527599958,None,230.43061090399715,None,f,1,0.4273686739979894,230.43061090399715,None,230.88914547819658,None,None,230.88914547819658,None,,16,001,2021_Oct_07_1107,searchDisc4,2021.2.3,59.493268936269025,
images/exp2a_trial_6_colour2_distractors4_r.png,r,j,2a,6,2,4,,,,,0,11,11,435,,,,,,,,,,,,,,,,,,,,,,,,,,,,,,,,,,,,,,,,,,,,,,,,,,,,,,,,,,,,,,,,,,,,,,,,,,,,230.88875469599589,None,space,0.4172080710050068,230.88875469599589,None,231.3745520079974,None,j,1,0.4994931200053543,231.3745520079974,None,231.90583211519478,None,None,231.90583211519478,None,,16,001,2021_Oct_07_1107,searchDisc4,2021.2.3,59.493268936269025,
images/exp2c_trial_1_colour1_distractors4_r.png,r,j,2c,1,1,4,,,,,0,12,12,814,,,,,,,,,,,,,,,,,,,,,,,,,,,,,,,,,,,,,,,,,,,,,,,,,,,,,,,,,,,,,,,,,,,,,,,,,,,,231.90585531800025,None,space,0.392131189997599,231.90585531800025,None,232.36354895599652,None,j,1,0.5105173470001318,232.36354895599652,None,232.90575510719427,None,None,232.90575510719427,None,,16,001,2021_Oct_07_1107,searchDisc4,2021.2.3,59.493268936269025,
images/exp2a_trial_29_colour3_distractors31_l.png,l,f,2a,29,3,31,,,,,0,13,13,458,,,,,,,,,,,,,,,,,,,,,,,,,,,,,,,,,,,,,,,,,,,,,,,,,,,,,,,,,,,,,,,,,,,,,,,,,,,,232.90536765999423,None,space,0.3926826800015988,232.90536765999423,None,233.37454972499836,None,f,1,0.6435831510025309,233.37454972499836,None,234.03850178619686,None,None,234.03850178619686,None,,16,001,2021_Oct_07_1107,searchDisc4,2021.2.3,59.493268936269025,
images/exp1b_trial_35_colour1_distractors19_r.png,r,j,1b,35,1,19,,,,,0,14,14,272,,,,,,,,,,,,,,,,,,,,,,,,,,,,,,,,,,,,,,,,,,,,,,,,,,,,,,,,,,,,,,,,,,,,,,,,,,,,234.03818031899573,None,space,0.3799174510058947,234.03818031899573,None,234.49123214699648,None,j,1,0.9028869059984572,234.49123214699648,None,235.42234052319472,None,None,235.42234052319472,None,,16,001,2021_Oct_07_1107,searchDisc4,2021.2.3,59.493268936269025,
images/exp1a_trial_25_colour3_distractors1_l.png,l,f,1a,25,3,1,,,,,0,15,15,70,,,,,,,,,,,,,,,,,,,,,,,,,,,,,,,,,,,,,,,,,,,,,,,,,,,,,,,,,,,,,,,,,,,,,,,,,,,,235.42154782899888,None,space,0.3805373610011884,235.42154782899888,None,235.87463086199568,None,f,1,0.4715504690029775,235.87463086199568,None,236.37221267919594,None,None,236.37221267919594,None,,16,001,2021_Oct_07_1107,searchDisc4,2021.2.3,59.493268936269025,
images/exp2b_trial_151_colour2_distractors19_l.png,l,f,2b,151,2,19,,,,,0,16,16,772,,,,,,,,,,,,,,,,,,,,,,,,,,,,,,,,,,,,,,,,,,,,,,,,,,,,,,,,,,,,,,,,,,,,,,,,,,,,236.37233946599736,None,space,0.39789814399409806,236.37233946599736,None,236.82932302999689,None,f,1,0.6209582039955421,236.82932302999689,None,237.47260159719517,None,None,237.47260159719517,None,,16,001,2021_Oct_07_1107,searchDisc4,2021.2.3,59.493268936269025,
images/exp2b_trial_166_colour2_distractors4_r.png,r,j,2b,166,2,4,,,,,0,17,17,787,,,,,,,,,,,,,,,,,,,,,,,,,,,,,,,,,,,,,,,,,,,,,,,,,,,,,,,,,,,,,,,,,,,,,,,,,,,,237.47228833199915,None,space,0.281956935999915,237.47228833199915,None,237.81334355199942,None,j,1,0.4530035610005143,237.81334355199942,None,238.28889926019983,None,None,238.28889926019983,None,,16,001,2021_Oct_07_1107,searchDisc4,2021.2.3,59.493268936269025,
images/exp1b_trial_184_colour2_distractors31_l.png,l,f,1b,184,2,31,,,,,0,18,18,421,,,,,,,,,,,,,,,,,,,,,,,,,,,,,,,,,,,,,,,,,,,,,,,,,,,,,,,,,,,,,,,,,,,,,,,,,,,,238.28874250199442,None,space,0.4174473279999802,238.28874250199442,None,238.77455569099402,None,f,1,0.7717893130029552,238.77455569099402,None,239.5724483981954,None,None,239.5724483981954,None,,16,001,2021_Oct_07_1107,searchDisc4,2021.2.3,59.493268936269025,
images/exp1a_trial_133_colour2_distractors1_r.png,r,j,1a,133,2,1,,,,,0,19,19,178,,,,,,,,,,,,,,,,,,,,,,,,,,,,,,,,,,,,,,,,,,,,,,,,,,,,,,,,,,,,,,,,,,,,,,,,,,,,239.5719721869973,None,space,0.25438761500117835,239.5719721869973,None,239.89762620299734,None,j,1,0.5848038199983421,239.89762620299734,None,240.50625618619742,None,None,240.50625618619742,None,,16,001,2021_Oct_07_1107,searchDisc4,2021.2.3,59.493268936269025,
images/exp2a_trial_70_colour2_distractors4_r.png,r,j,2a,70,2,4,,,,,0,20,20,499,,,,,,,,,,,,,,,,,,,,,,,,,,,,,,,,,,,,,,,,,,,,,,,,,,,,,,,,,,,,,,,,,,,,,,,,,,,,240.506134215997,None,space,0.37626197999634314,240.506134215997,None,240.95800891399995,None,j,1,0.5404816649970599,240.95800891399995,None,241.52239215619701,None,None,241.52239215619701,None,,16,001,2021_Oct_07_1107,searchDisc4,2021.2.3,59.493268936269025,
images/exp2c_trial_66_colour1_distractors9_r.png,r,j,2c,66,1,9,,,,,0,21,21,879,,,,,,,,,,,,,,,,,,,,,,,,,,,,,,,,,,,,,,,,,,,,,,,,,,,,,,,,,,,,,,,,,,,,,,,,,,,,241.5223693289954,None,space,0.3520985139984987,241.5223693289954,None,241.93033853599627,None,j,1,0.4961636020016158,241.93033853599627,None,242.45614120819445,None,None,242.45614120819445,None,,16,001,2021_Oct_07_1107,searchDisc4,2021.2.3,59.493268936269025,
images/exp1a_trial_28_colour3_distractors19_l.png,l,f,1a,28,3,19,,,,,0,22,22,73,,,,,,,,,,,,,,,,,,,,,,,,,,,,,,,,,,,,,,,,,,,,,,,,,,,,,,,,,,,,,,,,,,,,,,,,,,,,242.45574482699885,None,space,0.45066600399877643,242.45574482699885,None,242.9747901429946,None,f,1,0.5156966020003892,242.9747901429946,None,243.52284132419808,None,None,243.52284132419808,None,,16,001,2021_Oct_07_1107,searchDisc4,2021.2.3,59.493268936269025,
images/exp2a_trial_161_colour1_distractors4_r.png,r,j,2a,161,1,4,,,,,0,23,23,590,,,,,,,,,,,,,,,,,,,,,,,,,,,,,,,,,,,,,,,,,,,,,,,,,,,,,,,,,,,,,,,,,,,,,,,,,,,,243.52250653899682,None,space,0.2959840819967212,243.52250653899682,None,243.88055974999588,None,j,1,0.6580003240014776,243.88055974999588,None,244.55635798619696,None,None,244.55635798619696,None,,16,001,2021_Oct_07_1107,searchDisc4,2021.2.3,59.493268936269025,
images/exp1b_trial_62_colour0_distractors0_r.png,r,j,1b,62,0,0,,,,,0,24,24,299,,,,,,,,,,,,,,,,,,,,,,,,,,,,,,,,,,,,,,,,,,,,,,,,,,,,,,,,,,,,,,,,,,,,,,,,,,,,244.55533486900094,None,space,0.15114131599693792,244.55533486900094,None,244.77671120000014,None,j,1,0.9059308829964721,244.77671120000014,None,245.70614918919964,None,None,245.70614918919964,None,,16,001,2021_Oct_07_1107,searchDisc4,2021.2.3,59.493268936269025,
images/exp2c_trial_167_colour2_distractors9_r.png,r,j,2c,167,2,9,,,,,0,25,25,20,,,,,,,,,,,,,,,,,,,,,,,,,,,,,,,,,,,,,,,,,,,,,,,,,,,,,,,,,,,,,,,,,,,,,,,,,,,,245.70591747099388,None,space,0.12068023199390154,245.70591747099388,None,245.90609422199486,None,j,1,0.5925929240038386,245.90609422199486,None,246.522560882198,None,None,246.522560882198,None,,16,001,2021_Oct_07_1107,searchDisc4,2021.2.3,59.493268936269025,
images/exp1a_trial_97_colour1_distractors4_r.png,r,j,1a,97,1,4,,,,,0,26,26,142,,,,,,,,,,,,,,,,,,,,,,,,,,,,,,,,,,,,,,,,,,,,,,,,,,,,,,,,,,,,,,,,,,,,,,,,,,,,246.52210071599984,None,space,0.21646021500055213,246.52210071599984,None,246.8086413639976,None,j,1,0.5940727240013075,246.8086413639976,None,247.42205050420088,None,None,247.42205050420088,None,,16,001,2021_Oct_07_1107,searchDisc4,2021.2.3,59.493268936269025,
images/exp2a_trial_40_colour2_distractors19_r.png,r,j,2a,40,2,19,,,,,0,27,27,469,,,,,,,,,,,,,,,,,,,,,,,,,,,,,,,,,,,,,,,,,,,,,,,,,,,,,,,,,,,,,,,,,,,,,,,,,,,,247.4227058969991,None,space,3.1240633330016863,247.4227058969991,None,250.62503372899664,None,j,1,0.38587000799452653,250.62503372899664,None,251.03963683519905,None,None,251.03963683519905,None,,16,001,2021_Oct_07_1107,searchDisc4,2021.2.3,59.493268936269025,
images/exp2c_trial_13_colour3_distractors19_r.png,r,j,2c,13,3,19,,,,,0,28,28,826,,,,,,,,,,,,,,,,,,,,,,,,,,,,,,,,,,,,,,,,,,,,,,,,,,,,,,,,,,,,,,,,,,,,,,,,,,,,251.03949581399502,None,space,0.3873901030019624,251.03949581399502,None,251.50840753699595,None,j,1,0.5185411309939809,251.50840753699595,None,252.05637218819683,None,None,252.05637218819683,None,,16,001,2021_Oct_07_1107,searchDisc4,2021.2.3,59.493268936269025,
images/exp2b_trial_164_colour1_distractors31_r.png,r,j,2b,164,1,31,,,,,0,29,29,785,,,,,,,,,,,,,,,,,,,,,,,,,,,,,,,,,,,,,,,,,,,,,,,,,,,,,,,,,,,,,,,,,,,,,,,,,,,,252.05618603799667,None,space,0.3467162129963981,252.05618603799667,None,252.4749092189959,None,j,1,0.42407275900040986,252.4749092189959,None,252.9230012271997,None,None,252.9230012271997,None,,16,001,2021_Oct_07_1107,searchDisc4,2021.2.3,59.493268936269025,
images/exp2c_trial_44_colour3_distractors9_r.png,r,j,2c,44,3,9,,,,,0,30,30,857,,,,,,,,,,,,,,,,,,,,,,,,,,,,,,,,,,,,,,,,,,,,,,,,,,,,,,,,,,,,,,,,,,,,,,,,,,,,252.9219584149978,None,space,0.4649787589951302,252.9219584149978,None,253.45793828000023,None,f,0,0.4170815120014595,253.45793828000023,None,253.90643166220033,None,None,253.90643166220033,None,,16,001,2021_Oct_07_1107,searchDisc4,2021.2.3,59.493268936269025,
images/exp2c_trial_125_colour3_distractors31_l.png,l,f,2c,125,3,31,,,,,0,31,31,938,,,,,,,,,,,,,,,,,,,,,,,,,,,,,,,,,,,,,,,,,,,,,,,,,,,,,,,,,,,,,,,,,,,,,,,,,,,,253.90590584399615,None,space,0.5370357220017468,253.90590584399615,None,254.52518831699854,None,f,1,0.49389456400240306,254.52518831699854,None,255.03958832519638,None,None,255.03958832519638,None,,16,001,2021_Oct_07_1107,searchDisc4,2021.2.3,59.493268936269025,
images/exp2a_trial_108_colour3_distractors9_r.png,r,j,2a,108,3,9,,,,,0,32,32,537,,,,,,,,,,,,,,,,,,,,,,,,,,,,,,,,,,,,,,,,,,,,,,,,,,,,,,,,,,,,,,,,,,,,,,,,,,,,255.0393527979977,None,space,0.3076767259990447,255.0393527979977,None,255.42518865400052,None,j,1,0.3699415669980226,255.42518865400052,None,255.82330538419555,None,None,255.82330538419555,None,,16,001,2021_Oct_07_1107,searchDisc4,2021.2.3,59.493268936269025,
images/exp2c_trial_57_colour3_distractors1_l.png,l,f,2c,57,3,1,,,,,0,33,33,870,,,,,,,,,,,,,,,,,,,,,,,,,,,,,,,,,,,,,,,,,,,,,,,,,,,,,,,,,,,,,,,,,,,,,,,,,,,,255.82287427799747,None,space,0.37219125800038455,255.82287427799747,None,256.2590910219951,None,f,1,0.42408276200148975,256.2590910219951,None,256.70584048319654,None,None,256.70584048319654,None,,16,001,2021_Oct_07_1107,searchDisc4,2021.2.3,59.493268936269025,
images/exp1a_trial_74_colour3_distractors1_r.png,r,j,1a,74,3,1,,,,,0,34,34,119,,,,,,,,,,,,,,,,,,,,,,,,,,,,,,,,,,,,,,,,,,,,,,,,,,,,,,,,,,,,,,,,,,,,,,,,,,,,256.7056521359991,None,space,0.42549758499808377,256.7056521359991,None,257.19749078199675,None,f,0,0.4697244659982971,257.19749078199675,None,257.68977727719687,None,None,257.68977727719687,None,,16,001,2021_Oct_07_1107,searchDisc4,2021.2.3,59.493268936269025,
images/exp1b_trial_36_colour1_distractors31_r.png,r,j,1b,36,1,31,,,,,0,35,35,273,,,,,,,,,,,,,,,,,,,,,,,,,,,,,,,,,,,,,,,,,,,,,,,,,,,,,,,,,,,,,,,,,,,,,,,,,,,,257.68930849199387,None,space,0.40988569900218863,257.68930849199387,None,258.17519366999477,None,j,1,0.7880903759942157,258.17519366999477,None,258.990098691194,None,None,258.990098691194,None,,16,001,2021_Oct_07_1107,searchDisc4,2021.2.3,59.493268936269025,
images/exp1b_trial_156_colour3_distractors19_l.png,l,f,1b,156,3,19,,,,,0,36,36,393,,,,,,,,,,,,,,,,,,,,,,,,,,,,,,,,,,,,,,,,,,,,,,,,,,,,,,,,,,,,,,,,,,,,,,,,,,,,258.9888976189977,None,space,0.34233633399708197,258.9888976189977,None,259.408574811001,None,f,1,0.8427802600053838,259.408574811001,None,260.2730594941946,None,None,260.2730594941946,None,,16,001,2021_Oct_07_1107,searchDisc4,2021.2.3,59.493268936269025,
images/exp1a_trial_10_colour3_distractors1_r.png,r,j,1a,10,3,1,,,,,0,37,37,55,,,,,,,,,,,,,,,,,,,,,,,,,,,,,,,,,,,,,,,,,,,,,,,,,,,,,,,,,,,,,,,,,,,,,,,,,,,,260.2729571079981,None,space,0.1943263150023995,260.2729571079981,None,260.54201911400014,None,j,1,0.4853537899980438,260.54201911400014,None,261.05679931420093,None,None,261.05679931420093,None,,16,001,2021_Oct_07_1107,searchDisc4,2021.2.3,59.493268936269025,
images/exp2a_trial_143_colour1_distractors1_l.png,l,f,2a,143,1,1,,,,,0,38,38,572,,,,,,,,,,,,,,,,,,,,,,,,,,,,,,,,,,,,,,,,,,,,,,,,,,,,,,,,,,,,,,,,,,,,,,,,,,,,261.05640503299946,None,space,0.29893439999432303,261.05640503299946,None,261.4147015339986,None,f,1,0.5007013080030447,261.4147015339986,None,261.9392164941943,None,None,261.9392164941943,None,,16,001,2021_Oct_07_1107,searchDisc4,2021.2.3,59.493268936269025,
images/exp2b_trial_163_colour1_distractors19_r.png,r,j,2b,163,1,19,,,,,0,39,39,784,,,,,,,,,,,,,,,,,,,,,,,,,,,,,,,,,,,,,,,,,,,,,,,,,,,,,,,,,,,,,,,,,,,,,,,,,,,,261.9397955460008,None,space,0.25557310599833727,261.9397955460008,None,262.275292155995,None,j,1,0.42415794399857987,262.275292155995,None,262.7234193781966,None,None,262.7234193781966,None,,16,001,2021_Oct_07_1107,searchDisc4,2021.2.3,59.493268936269025,
images/exp1a_trial_91_colour3_distractors9_l.png,l,f,1a,91,3,9,,,,,0,40,40,136,,,,,,,,,,,,,,,,,,,,,,,,,,,,,,,,,,,,,,,,,,,,,,,,,,,,,,,,,,,,,,,,,,,,,,,,,,,,262.7230501949962,None,space,0.3843666690008831,262.7230501949962,None,263.1753407379947,None,f,1,0.3961619129986502,263.1753407379947,None,263.5893019301999,None,None,263.5893019301999,None,,16,001,2021_Oct_07_1107,searchDisc4,2021.2.3,59.493268936269025,
images/exp2c_trial_133_colour2_distractors1_r.png,r,j,2c,133,2,1,,,,,0,41,41,946,,,,,,,,,,,,,,,,,,,,,,,,,,,,,,,,,,,,,,,,,,,,,,,,,,,,,,,,,,,,,,,,,,,,,,,,,,,,263.5899067759965,None,space,0.357535117000225,263.5899067759965,None,264.0148667829999,None,j,1,0.42865826100023696,264.0148667829999,None,264.47329574619437,None,None,264.47329574619437,None,,16,001,2021_Oct_07_1107,searchDisc4,2021.2.3,59.493268936269025,
images/exp1b_trial_59_colour3_distractors9_l.png,l,f,1b,59,3,9,,,,,0,42,42,296,,,,,,,,,,,,,,,,,,,,,,,,,,,,,,,,,,,,,,,,,,,,,,,,,,,,,,,,,,,,,,,,,,,,,,,,,,,,264.472939276995,None,space,0.33053873599419603,264.472939276995,None,264.8753735919963,None,f,1,0.7121977710048668,264.8753735919963,None,265.6068698751966,None,None,265.6068698751966,None,,16,001,2021_Oct_07_1107,searchDisc4,2021.2.3,59.493268936269025,
images/exp1a_trial_96_colour1_distractors1_r.png,r,j,1a,96,1,1,,,,,0,43,43,141,,,,,,,,,,,,,,,,,,,,,,,,,,,,,,,,,,,,,,,,,,,,,,,,,,,,,,,,,,,,,,,,,,,,,,,,,,,,265.60648106999724,None,space,0.1170947860009619,265.60648106999724,None,265.79211582800053,None,j,1,0.5955090709976503,265.79211582800053,None,266.40699526519677,None,None,266.40699526519677,None,,16,001,2021_Oct_07_1107,searchDisc4,2021.2.3,59.493268936269025,
images/exp1b_trial_120_colour2_distractors31_l.png,l,f,1b,120,2,31,,,,,0,44,44,357,,,,,,,,,,,,,,,,,,,,,,,,,,,,,,,,,,,,,,,,,,,,,,,,,,,,,,,,,,,,,,,,,,,,,,,,,,,,266.40649648499675,None,space,0.3250776950008003,266.40649648499675,None,266.79873116999806,None,f,1,1.22895373099891,266.79873116999806,None,268.0564390351989,None,None,268.0564390351989,None,,16,001,2021_Oct_07_1107,searchDisc4,2021.2.3,59.493268936269025,
images/exp2c_trial_72_colour2_distractors19_r.png,r,j,2c,72,2,19,,,,,0,45,45,885,,,,,,,,,,,,,,,,,,,,,,,,,,,,,,,,,,,,,,,,,,,,,,,,,,,,,,,,,,,,,,,,,,,,,,,,,,,,268.0560570460002,None,space,0.243561438001052,268.0560570460002,None,268.37551808900025,None,j,1,0.5481048150031711,268.37551808900025,None,268.9568638031975,None,None,268.9568638031975,None,,16,001,2021_Oct_07_1107,searchDisc4,2021.2.3,59.493268936269025,
images/exp2c_trial_120_colour2_distractors31_l.png,l,f,2c,120,2,31,,,,,0,46,46,933,,,,,,,,,,,,,,,,,,,,,,,,,,,,,,,,,,,,,,,,,,,,,,,,,,,,,,,,,,,,,,,,,,,,,,,,,,,,268.9561008889941,None,space,0.3355677770014154,268.9561008889941,None,269.35889713999495,None,f,1,0.4048584319971269,269.35889713999495,None,269.79029449619486,None,None,269.79029449619486,None,,16,001,2021_Oct_07_1107,searchDisc4,2021.2.3,59.493268936269025,
images/exp2a_trial_19_colour1_distractors31_l.png,l,f,2a,19,1,31,,,,,0,47,47,448,,,,,,,,,,,,,,,,,,,,,,,,,,,,,,,,,,,,,,,,,,,,,,,,,,,,,,,,,,,,,,,,,,,,,,,,,,,,269.7899079159979,None,space,0.341786648001289,269.7899079159979,None,270.20898274299543,None,f,1,1.2748544290006976,270.20898274299543,None,271.5065420871957,None,None,271.5065420871957,None,,16,001,2021_Oct_07_1107,searchDisc4,2021.2.3,59.493268936269025,
images/exp1a_trial_29_colour3_distractors31_l.png,l,f,1a,29,3,31,,,,,0,48,48,74,,,,,,,,,,,,,,,,,,,,,,,,,,,,,,,,,,,,,,,,,,,,,,,,,,,,,,,,,,,,,,,,,,,,,,,,,,,,271.50644410999666,None,space,0.6973602150028455,271.50644410999666,None,272.27561360399704,None,f,1,0.6242827480018605,272.27561360399704,None,272.9237215882,None,None,272.9237215882,None,,16,001,2021_Oct_07_1107,searchDisc4,2021.2.3,59.493268936269025,
images/exp1b_trial_167_colour2_distractors9_r.png,r,j,1b,167,2,9,,,,,0,49,49,404,,,,,,,,,,,,,,,,,,,,,,,,,,,,,,,,,,,,,,,,,,,,,,,,,,,,,,,,,,,,,,,,,,,,,,,,,,,,272.92340805499407,None,space,0.27246433300024364,272.92340805499407,None,273.2755406409997,None,j,1,0.8163561149995076,273.2755406409997,None,274.12361518620094,None,None,274.12361518620094,None,,16,001,2021_Oct_07_1107,searchDisc4,2021.2.3,59.493268936269025,
images/exp1b_trial_84_colour2_distractors1_l.png,l,f,1b,84,2,1,,,,,0,50,50,321,,,,,,,,,,,,,,,,,,,,,,,,,,,,,,,,,,,,,,,,,,,,,,,,,,,,,,,,,,,,,,,,,,,,,,,,,,,,274.1231590059979,None,space,0.21671163300197804,274.1231590059979,None,274.4091523679963,None,f,1,0.40284390399756376,274.4091523679963,None,274.84038914719497,None,None,274.84038914719497,None,,16,001,2021_Oct_07_1107,searchDisc4,2021.2.3,59.493268936269025,
images/exp1b_trial_132_colour1_distractors31_r.png,r,j,1b,132,1,31,,,,,0,51,51,369,,,,,,,,,,,,,,,,,,,,,,,,,,,,,,,,,,,,,,,,,,,,,,,,,,,,,,,,,,,,,,,,,,,,,,,,,,,,274.8397966900011,None,space,0.396151559005375,274.8397966900011,None,275.3090724799986,None,j,1,0.4629529460071353,275.3090724799986,None,275.79014737819455,None,None,275.79014737819455,None,,16,001,2021_Oct_07_1107,searchDisc4,2021.2.3,59.493268936269025,
images/exp2c_trial_81_colour1_distractors9_l.png,l,f,2c,81,1,9,,,,,0,52,52,894,,,,,,,,,,,,,,,,,,,,,,,,,,,,,,,,,,,,,,,,,,,,,,,,,,,,,,,,,,,,,,,,,,,,,,,,,,,,275.7902802249955,None,space,0.39770939300069585,275.7902802249955,None,276.2479657199947,None,f,1,0.4361140030014212,276.2479657199947,None,276.70675809119496,None,None,276.70675809119496,None,,16,001,2021_Oct_07_1107,searchDisc4,2021.2.3,59.493268936269025,
images/exp1b_trial_8_colour2_distractors19_r.png,r,j,1b,8,2,19,,,,,0,53,53,245,,,,,,,,,,,,,,,,,,,,,,,,,,,,,,,,,,,,,,,,,,,,,,,,,,,,,,,,,,,,,,,,,,,,,,,,,,,,276.7067224630009,None,space,0.40135294100036845,276.7067224630009,None,277.17569379699853,None,j,1,0.4924311740032863,277.17569379699853,None,277.6895411391939,None,None,277.6895411391939,None,,16,001,2021_Oct_07_1107,searchDisc4,2021.2.3,59.493268936269025,
images/exp1a_trial_131_colour1_distractors19_r.png,r,j,1a,131,1,19,,,,,0,54,54,176,,,,,,,,,,,,,,,,,,,,,,,,,,,,,,,,,,,,,,,,,,,,,,,,,,,,,,,,,,,,,,,,,,,,,,,,,,,,277.69018546200095,None,space,0.3698241180027253,277.69018546200095,None,278.1425106289971,None,f,0,0.43767671399837127,278.1425106289971,None,278.6072839251989,None,None,278.6072839251989,None,,16,001,2021_Oct_07_1107,searchDisc4,2021.2.3,59.493268936269025,
images/exp1b_trial_40_colour2_distractors19_r.png,r,j,1b,40,2,19,,,,,0,55,55,277,,,,,,,,,,,,,,,,,,,,,,,,,,,,,,,,,,,,,,,,,,,,,,,,,,,,,,,,,,,,,,,,,,,,,,,,,,,,278.6068264659989,None,space,0.5492141960057779,278.6068264659989,None,279.2072933179952,None,j,1,0.732859527997789,279.2072933179952,None,279.9571254542003,None,None,279.9571254542003,None,,16,001,2021_Oct_07_1107,searchDisc4,2021.2.3,59.493268936269025,
images/exp2a_trial_56_colour2_distractors31_l.png,l,f,2a,56,2,31,,,,,0,56,56,485,,,,,,,,,,,,,,,,,,,,,,,,,,,,,,,,,,,,,,,,,,,,,,,,,,,,,,,,,,,,,,,,,,,,,,,,,,,,279.9572259560009,None,space,0.36700446600298164,279.9572259560009,None,280.39270213999407,None,f,1,0.48357874800421996,280.39270213999407,None,280.9070439162002,None,None,280.9070439162002,None,,16,001,2021_Oct_07_1107,searchDisc4,2021.2.3,59.493268936269025,
images/exp2a_trial_132_colour1_distractors31_r.png,r,j,2a,132,1,31,,,,,0,57,57,561,,,,,,,,,,,,,,,,,,,,,,,,,,,,,,,,,,,,,,,,,,,,,,,,,,,,,,,,,,,,,,,,,,,,,,,,,,,,280.9067271929962,None,space,0.4015211180012557,280.9067271929962,None,281.3759510689997,None,j,1,0.5163706309976988,281.3759510689997,None,281.92383629619655,None,None,281.92383629619655,None,,16,001,2021_Oct_07_1107,searchDisc4,2021.2.3,59.493268936269025,
images/exp2c_trial_96_colour1_distractors1_r.png,r,j,2c,96,1,1,,,,,0,58,58,909,,,,,,,,,,,,,,,,,,,,,,,,,,,,,,,,,,,,,,,,,,,,,,,,,,,,,,,,,,,,,,,,,,,,,,,,,,,,281.9235211649939,None,space,0.34476043700124137,281.9235211649939,None,282.33151066400023,None,j,1,0.5048449970054207,282.33151066400023,None,282.85671104019787,None,None,282.85671104019787,None,,16,001,2021_Oct_07_1107,searchDisc4,2021.2.3,59.493268936269025,
images/exp1b_trial_108_colour3_distractors9_r.png,r,j,1b,108,3,9,,,,,0,59,59,345,,,,,,,,,,,,,,,,,,,,,,,,,,,,,,,,,,,,,,,,,,,,,,,,,,,,,,,,,,,,,,,,,,,,,,,,,,,,282.8562933879948,None,space,0.3319643229988287,282.8562933879948,None,283.2486977259978,None,j,1,0.42772405499999877,283.2486977259978,None,283.7071930661965,None,None,283.7071930661965,None,,16,001,2021_Oct_07_1107,searchDisc4,2021.2.3,59.493268936269025,
images/exp2a_trial_78_colour3_distractors31_r.png,r,j,2a,78,3,31,,,,,0,60,60,507,,,,,,,,,,,,,,,,,,,,,,,,,,,,,,,,,,,,,,,,,,,,,,,,,,,,,,,,,,,,,,,,,,,,,,,,,,,,283.70702768000046,None,space,0.3773438510033884,283.70702768000046,None,284.15926346500055,None,j,1,0.4371720010021818,284.15926346500055,None,284.62399701819743,None,None,284.62399701819743,None,,16,001,2021_Oct_07_1107,searchDisc4,2021.2.3,59.493268936269025,
images/exp2a_trial_121_colour3_distractors1_l.png,l,f,2a,121,3,1,,,,,0,61,61,550,,,,,,,,,,,,,,,,,,,,,,,,,,,,,,,,,,,,,,,,,,,,,,,,,,,,,,,,,,,,,,,,,,,,,,,,,,,,284.6237072820004,None,space,0.3486956580018159,284.6237072820004,None,285.0320860549982,None,f,1,0.5164135090017226,285.0320860549982,None,285.5736050741958,None,None,285.5736050741958,None,,16,001,2021_Oct_07_1107,searchDisc4,2021.2.3,59.493268936269025,
images/exp2c_trial_89_colour3_distractors1_l.png,l,f,2c,89,3,1,,,,,0,62,62,902,,,,,,,,,,,,,,,,,,,,,,,,,,,,,,,,,,,,,,,,,,,,,,,,,,,,,,,,,,,,,,,,,,,,,,,,,,,,285.5731891949981,None,space,0.31917257299937773,285.5731891949981,None,285.94806092499493,None,f,1,0.47248466999735683,285.94806092499493,None,286.4397801361971,None,None,286.4397801361971,None,,16,001,2021_Oct_07_1107,searchDisc4,2021.2.3,59.493268936269025,
images/exp2a_trial_147_colour1_distractors31_l.png,l,f,2a,147,1,31,,,,,0,63,63,576,,,,,,,,,,,,,,,,,,,,,,,,,,,,,,,,,,,,,,,,,,,,,,,,,,,,,,,,,,,,,,,,,,,,,,,,,,,,286.4404557359958,None,space,0.299993535001704,286.4404557359958,None,286.8093049319941,None,f,1,0.45127972600312205,286.8093049319941,None,287.2908160942003,None,None,287.2908160942003,None,,16,001,2021_Oct_07_1107,searchDisc4,2021.2.3,59.493268936269025,
images/exp1a_trial_110_colour3_distractors31_r.png,r,j,1a,110,3,31,,,,,0,64,64,155,,,,,,,,,,,,,,,,,,,,,,,,,,,,,,,,,,,,,,,,,,,,,,,,,,,,,,,,,,,,,,,,,,,,,,,,,,,,287.29049675499846,None,space,0.31404885499796364,287.29049675499846,None,287.67603202099417,None,j,1,0.4245818010022049,287.67603202099417,None,288.1233234541993,None,None,288.1233234541993,None,,16,001,2021_Oct_07_1107,searchDisc4,2021.2.3,59.493268936269025,
images/exp1b_trial_82_colour1_distractors19_l.png,l,f,1b,82,1,19,,,,,0,65,65,319,,,,,,,,,,,,,,,,,,,,,,,,,,,,,,,,,,,,,,,,,,,,,,,,,,,,,,,,,,,,,,,,,,,,,,,,,,,,288.1230351979975,None,space,0.353467537999677,288.1230351979975,None,288.5593304770009,None,f,1,0.4853251509994152,288.5593304770009,None,289.07413413219695,None,None,289.07413413219695,None,,16,001,2021_Oct_07_1107,searchDisc4,2021.2.3,59.493268936269025,
images/exp1b_trial_39_colour2_distractors9_r.png,r,j,1b,39,2,9,,,,,0,66,66,276,,,,,,,,,,,,,,,,,,,,,,,,,,,,,,,,,,,,,,,,,,,,,,,,,,,,,,,,,,,,,,,,,,,,,,,,,,,,289.0737702979968,None,space,0.33084036199579714,289.0737702979968,None,289.47600668899395,None,j,1,0.5286644309962867,289.47600668899395,None,290.0239325261988,None,None,290.0239325261988,None,,16,001,2021_Oct_07_1107,searchDisc4,2021.2.3,59.493268936269025,
images/exp2c_trial_58_colour3_distractors4_l.png,l,f,2c,58,3,4,,,,,0,67,67,871,,,,,,,,,,,,,,,,,,,,,,,,,,,,,,,,,,,,,,,,,,,,,,,,,,,,,,,,,,,,,,,,,,,,,,,,,,,,290.0238088459955,None,space,0.3168248899964965,290.0238088459955,None,290.3982587110004,None,f,1,0.37449278499843786,290.3982587110004,None,290.7905653611939,None,None,290.7905653611939,None,,16,001,2021_Oct_07_1107,searchDisc4,2021.2.3,59.493268936269025,
images/exp2a_trial_20_colour2_distractors1_l.png,l,f,2a,20,2,1,,,,,0,68,68,449,,,,,,,,,,,,,,,,,,,,,,,,,,,,,,,,,,,,,,,,,,,,,,,,,,,,,,,,,,,,,,,,,,,,,,,,,,,,290.7898605109949,None,space,0.35076791099709226,290.7898605109949,None,291.20960229900084,None,f,1,0.7150976709963288,291.20960229900084,None,291.957481430201,None,None,291.957481430201,None,,16,001,2021_Oct_07_1107,searchDisc4,2021.2.3,59.493268936269025,
images/exp2c_trial_160_colour1_distractors1_r.png,r,j,2c,160,1,1,,,,,0,69,69,13,,,,,,,,,,,,,,,,,,,,,,,,,,,,,,,,,,,,,,,,,,,,,,,,,,,,,,,,,,,,,,,,,,,,,,,,,,,,291.95724069199787,None,space,0.2555252210004255,291.95724069199787,None,292.29201206799917,None,j,1,0.43271900900435867,292.29201206799917,None,292.7573627811995,None,None,292.7573627811995,None,,16,001,2021_Oct_07_1107,searchDisc4,2021.2.3,59.493268936269025,
images/exp2c_trial_48_colour1_distractors4_l.png,l,f,2c,48,1,4,,,,,0,70,70,861,,,,,,,,,,,,,,,,,,,,,,,,,,,,,,,,,,,,,,,,,,,,,,,,,,,,,,,,,,,,,,,,,,,,,,,,,,,,292.75713488199835,None,space,0.3436658130012802,292.75713488199835,None,293.1649557359997,None,f,1,0.3359079519941588,293.1649557359997,None,293.5237610452001,None,None,293.5237610452001,None,,16,001,2021_Oct_07_1107,searchDisc4,2021.2.3,59.493268936269025,
images/exp2c_trial_127_colour0_distractors0_l.png,l,f,2c,127,0,0,,,,,0,71,71,940,,,,,,,,,,,,,,,,,,,,,,,,,,,,,,,,,,,,,,,,,,,,,,,,,,,,,,,,,,,,,,,,,,,,,,,,,,,,293.5232827449945,None,space,0.34553439999581315,293.5232827449945,None,293.93071066300035,None,f,1,0.40216574299847707,293.93071066300035,None,294.3576590391946,None,None,294.3576590391946,None,,16,001,2021_Oct_07_1107,searchDisc4,2021.2.3,59.493268936269025,
images/exp2c_trial_179_colour1_distractors31_l.png,l,f,2c,179,1,31,,,,,0,72,72,32,,,,,,,,,,,,,,,,,,,,,,,,,,,,,,,,,,,,,,,,,,,,,,,,,,,,,,,,,,,,,,,,,,,,,,,,,,,,294.35721850999835,None,space,0.3276263689986081,294.35721850999835,None,294.7484461599961,None,j,0,0.3844599290023325,294.7484461599961,None,295.1576040361957,None,None,295.1576040361957,None,,16,001,2021_Oct_07_1107,searchDisc4,2021.2.3,59.493268936269025,
images/exp2c_trial_113_colour1_distractors9_l.png,l,f,2c,113,1,9,,,,,0,73,73,926,,,,,,,,,,,,,,,,,,,,,,,,,,,,,,,,,,,,,,,,,,,,,,,,,,,,,,,,,,,,,,,,,,,,,,,,,,,,295.1575279989993,None,space,0.5272826369982795,295.1575279989993,None,295.75957475699397,None,j,0,0.42139103500085184,295.75957475699397,None,296.207665799198,None,None,296.207665799198,None,,16,001,2021_Oct_07_1107,searchDisc4,2021.2.3,59.493268936269025,
images/exp1a_trial_135_colour2_distractors9_r.png,r,j,1a,135,2,9,,,,,0,74,74,180,,,,,,,,,,,,,,,,,,,,,,,,,,,,,,,,,,,,,,,,,,,,,,,,,,,,,,,,,,,,,,,,,,,,,,,,,,,,296.2073123749942,None,space,0.42961202400329057,296.2073123749942,None,296.7094233089956,None,f,0,0.5275705710009788,296.7094233089956,None,297.25740125019877,None,None,297.25740125019877,None,,16,001,2021_Oct_07_1107,searchDisc4,2021.2.3,59.493268936269025,
images/exp2b_trial_145_colour1_distractors9_l.png,l,f,2b,145,1,9,,,,,0,75,75,766,,,,,,,,,,,,,,,,,,,,,,,,,,,,,,,,,,,,,,,,,,,,,,,,,,,,,,,,,,,,,,,,,,,,,,,,,,,,297.2570626309971,None,space,0.9639312380022602,297.2570626309971,None,298.2818477779947,None,f,1,0.6751730059986585,298.2818477779947,None,298.9743248951978,None,None,298.9743248951978,None,,16,001,2021_Oct_07_1107,searchDisc4,2021.2.3,59.493268936269025,
images/exp1b_trial_188_colour3_distractors19_l.png,l,f,1b,188,3,19,,,,,0,76,76,425,,,,,,,,,,,,,,,,,,,,,,,,,,,,,,,,,,,,,,,,,,,,,,,,,,,,,,,,,,,,,,,,,,,,,,,,,,,,298.974225992999,None,space,0.7427951790014049,298.974225992999,None,299.7929727039955,None,f,1,0.5561852440005168,299.7929727039955,None,300.37419605619436,None,None,300.37419605619436,None,,16,001,2021_Oct_07_1107,searchDisc4,2021.2.3,59.493268936269025,
images/exp2b_trial_157_colour3_distractors31_l.png,l,f,2b,157,3,31,,,,,0,77,77,778,,,,,,,,,,,,,,,,,,,,,,,,,,,,,,,,,,,,,,,,,,,,,,,,,,,,,,,,,,,,,,,,,,,,,,,,,,,,300.3738295369985,None,space,0.31130047300393926,300.3738295369985,None,300.7597558139969,None,f,1,0.5734441539971158,300.7597558139969,None,301.3577611161942,None,None,301.3577611161942,None,,16,001,2021_Oct_07_1107,searchDisc4,2021.2.3,59.493268936269025,
images/exp1a_trial_47_colour1_distractors1_l.png,l,f,1a,47,1,1,,,,,0,78,78,92,,,,,,,,,,,,,,,,,,,,,,,,,,,,,,,,,,,,,,,,,,,,,,,,,,,,,,,,,,,,,,,,,,,,,,,,,,,,301.35775477899733,None,space,0.2873979389987653,301.35775477899733,None,301.7147047929975,None,f,1,0.44251346300006844,301.7147047929975,None,302.1744148651975,None,None,302.1744148651975,None,,16,001,2021_Oct_07_1107,searchDisc4,2021.2.3,59.493268936269025,
images/exp2a_trial_169_colour2_distractors31_r.png,r,j,2a,169,2,31,,,,,0,79,79,598,,,,,,,,,,,,,,,,,,,,,,,,,,,,,,,,,,,,,,,,,,,,,,,,,,,,,,,,,,,,,,,,,,,,,,,,,,,,302.17410119099804,None,space,0.3190566140037845,302.17410119099804,None,302.576438156997,None,f,0,0.4048357709980337,302.576438156997,None,303.0078648752002,None,None,303.0078648752002,None,,16,001,2021_Oct_07_1107,searchDisc4,2021.2.3,59.493268936269025,
images/exp2b_trial_47_colour1_distractors1_l.png,l,f,2b,47,1,1,,,,,0,80,80,668,,,,,,,,,,,,,,,,,,,,,,,,,,,,,,,,,,,,,,,,,,,,,,,,,,,,,,,,,,,,,,,,,,,,,,,,,,,,303.007666159996,None,space,0.7335066480009118,303.007666159996,None,303.7993993630007,None,f,1,0.5019588809955167,303.7993993630007,None,304.3240014921954,None,None,304.3240014921954,None,,16,001,2021_Oct_07_1107,searchDisc4,2021.2.3,59.493268936269025,
images/exp2b_trial_123_colour3_distractors9_l.png,l,f,2b,123,3,9,,,,,0,81,81,744,,,,,,,,,,,,,,,,,,,,,,,,,,,,,,,,,,,,,,,,,,,,,,,,,,,,,,,,,,,,,,,,,,,,,,,,,,,,304.3246041370003,None,space,0.33671290700294776,304.3246041370003,None,304.7434255439948,None,f,1,0.5659506730007706,304.7434255439948,None,305.3410831392008,None,None,305.3410831392008,None,,16,001,2021_Oct_07_1107,searchDisc4,2021.2.3,59.493268936269025,
images/exp2c_trial_140_colour3_distractors9_r.png,r,j,2c,140,3,9,,,,,0,82,82,953,,,,,,,,,,,,,,,,,,,,,,,,,,,,,,,,,,,,,,,,,,,,,,,,,,,,,,,,,,,,,,,,,,,,,,,,,,,,305.34065420799743,None,space,0.23267824000504334,305.34065420799743,None,305.6431383989984,None,f,0,0.8183214439995936,305.6431383989984,None,306.4911550831945,None,None,306.4911550831945,None,,16,001,2021_Oct_07_1107,searchDisc4,2021.2.3,59.493268936269025,
images/exp2b_trial_6_colour2_distractors4_r.png,r,j,2b,6,2,4,,,,,0,83,83,627,,,,,,,,,,,,,,,,,,,,,,,,,,,,,,,,,,,,,,,,,,,,,,,,,,,,,,,,,,,,,,,,,,,,,,,,,,,,306.49113754999416,None,space,0.8823077980050584,306.49113754999416,None,307.4327871149944,None,j,1,0.5567500839970307,307.4327871149944,None,308.00730355219787,None,None,308.00730355219787,None,,16,001,2021_Oct_07_1107,searchDisc4,2021.2.3,59.493268936269025,
images/exp2a_trial_17_colour1_distractors9_l.png,l,f,2a,17,1,9,,,,,0,84,84,446,,,,,,,,,,,,,,,,,,,,,,,,,,,,,,,,,,,,,,,,,,,,,,,,,,,,,,,,,,,,,,,,,,,,,,,,,,,,308.00716155999544,None,space,0.3742441959984717,308.00716155999544,None,308.4599014889973,None,f,1,0.6016721129999496,308.4599014889973,None,309.09123020319896,None,None,309.09123020319896,None,,16,001,2021_Oct_07_1107,searchDisc4,2021.2.3,59.493268936269025,
images/exp2b_trial_30_colour0_distractors0_r.png,r,j,2b,30,0,0,,,,,0,85,85,651,,,,,,,,,,,,,,,,,,,,,,,,,,,,,,,,,,,,,,,,,,,,,,,,,,,,,,,,,,,,,,,,,,,,,,,,,,,,309.09074105299806,None,space,0.24277447699569166,309.09074105299806,None,309.4099727379944,None,j,1,0.45963703500456177,309.4099727379944,None,309.8911309441952,None,None,309.8911309441952,None,,16,001,2021_Oct_07_1107,searchDisc4,2021.2.3,59.493268936269025,
images/exp2b_trial_172_colour3_distractors9_r.png,r,j,2b,172,3,9,,,,,0,86,86,793,,,,,,,,,,,,,,,,,,,,,,,,,,,,,,,,,,,,,,,,,,,,,,,,,,,,,,,,,,,,,,,,,,,,,,,,,,,,309.890903943,None,space,0.38658033899992006,309.890903943,None,310.35977644699597,None,j,1,0.4538649809983326,310.35977644699597,None,310.8413640121995,None,None,310.8413640121995,None,,16,001,2021_Oct_07_1107,searchDisc4,2021.2.3,59.493268936269025,
images/exp2a_trial_122_colour3_distractors4_l.png,l,f,2a,122,3,4,,,,,0,87,87,551,,,,,,,,,,,,,,,,,,,,,,,,,,,,,,,,,,,,,,,,,,,,,,,,,,,,,,,,,,,,,,,,,,,,,,,,,,,,310.8410306689984,None,space,0.2765887150017079,310.8410306689984,None,311.19348291099595,None,f,1,0.4762098639985197,311.19348291099595,None,311.69118692119594,None,None,311.69118692119594,None,,16,001,2021_Oct_07_1107,searchDisc4,2021.2.3,59.493268936269025,
images/exp1a_trial_40_colour2_distractors19_r.png,r,j,1a,40,2,19,,,,,0,88,88,85,,,,,,,,,,,,,,,,,,,,,,,,,,,,,,,,,,,,,,,,,,,,,,,,,,,,,,,,,,,,,,,,,,,,,,,,,,,,311.69110002600064,None,space,0.2265673420042731,311.69110002600064,None,311.99332739599777,None,j,1,0.6284111550048692,311.99332739599777,None,312.641062341199,None,None,312.641062341199,None,,16,001,2021_Oct_07_1107,searchDisc4,2021.2.3,59.493268936269025,
images/exp2a_trial_31_colour0_distractors0_l.png,l,f,2a,31,0,0,,,,,0,89,89,460,,,,,,,,,,,,,,,,,,,,,,,,,,,,,,,,,,,,,,,,,,,,,,,,,,,,,,,,,,,,,,,,,,,,,,,,,,,,312.6406201339996,None,space,0.3010036469931947,312.6406201339996,None,312.9988522489948,None,f,1,0.5189276140008587,312.9988522489948,None,313.54093967819574,None,None,313.54093967819574,None,,16,001,2021_Oct_07_1107,searchDisc4,2021.2.3,59.493268936269025,
images/exp2c_trial_91_colour3_distractors9_l.png,l,f,2c,91,3,9,,,,,0,90,90,904,,,,,,,,,,,,,,,,,,,,,,,,,,,,,,,,,,,,,,,,,,,,,,,,,,,,,,,,,,,,,,,,,,,,,,,,,,,,313.54058468400035,None,space,0.25716166799975326,313.54058468400035,None,313.8766709509946,None,f,1,0.625136389004183,313.8766709509946,None,314.5244362681966,None,None,314.5244362681966,None,,16,001,2021_Oct_07_1107,searchDisc4,2021.2.3,59.493268936269025,
images/exp2b_trial_40_colour2_distractors19_r.png,r,j,2b,40,2,19,,,,,0,91,91,661,,,,,,,,,,,,,,,,,,,,,,,,,,,,,,,,,,,,,,,,,,,,,,,,,,,,,,,,,,,,,,,,,,,,,,,,,,,,314.5242344879953,None,space,0.19355833000008715,314.5242344879953,None,314.78274504,None,j,1,0.6951287760020932,314.78274504,None,315.50732135619694,None,None,315.50732135619694,None,,16,001,2021_Oct_07_1107,searchDisc4,2021.2.3,59.493268936269025,
images/exp2b_trial_12_colour3_distractors9_r.png,r,j,2b,12,3,9,,,,,0,92,92,633,,,,,,,,,,,,,,,,,,,,,,,,,,,,,,,,,,,,,,,,,,,,,,,,,,,,,,,,,,,,,,,,,,,,,,,,,,,,315.5079312279995,None,space,0.2978538649986149,315.5079312279995,None,315.8661730370004,None,j,1,0.45970070399926044,315.8661730370004,None,316.35820427419605,None,None,316.35820427419605,None,,16,001,2021_Oct_07_1107,searchDisc4,2021.2.3,59.493268936269025,
images/exp1b_trial_74_colour3_distractors1_r.png,r,j,1b,74,3,1,,,,,0,93,93,311,,,,,,,,,,,,,,,,,,,,,,,,,,,,,,,,,,,,,,,,,,,,,,,,,,,,,,,,,,,,,,,,,,,,,,,,,,,,316.3581374619971,None,space,0.30372381300549023,316.3581374619971,None,316.7329743570008,None,j,1,0.4809622009997838,316.7329743570008,None,317.2411921891959,None,None,317.2411921891959,None,,16,001,2021_Oct_07_1107,searchDisc4,2021.2.3,59.493268936269025,
images/exp2a_trial_117_colour2_distractors4_l.png,l,f,2a,117,2,4,,,,,0,94,94,546,,,,,,,,,,,,,,,,,,,,,,,,,,,,,,,,,,,,,,,,,,,,,,,,,,,,,,,,,,,,,,,,,,,,,,,,,,,,317.2409221479975,None,space,0.26891201399848796,317.2409221479975,None,317.59314715199434,None,f,1,0.36486877300194465,317.59314715199434,None,317.9749363811985,None,None,317.9749363811985,None,,16,001,2021_Oct_07_1107,searchDisc4,2021.2.3,59.493268936269025,
images/exp1a_trial_180_colour2_distractors1_l.png,l,f,1a,180,2,1,,,,,0,95,95,225,,,,,,,,,,,,,,,,,,,,,,,,,,,,,,,,,,,,,,,,,,,,,,,,,,,,,,,,,,,,,,,,,,,,,,,,,,,,317.9746143739976,None,space,0.2953332609977224,317.9746143739976,None,318.332820151998,None,f,1,0.5851930009957869,318.332820151998,None,318.9415450361972,None,None,318.9415450361972,None,,16,001,2021_Oct_07_1107,searchDisc4,2021.2.3,59.493268936269025,
images/exp1a_trial_175_colour1_distractors1_l.png,l,f,1a,175,1,1,,,,,0,96,96,220,,,,,,,,,,,,,,,,,,,,,,,,,,,,,,,,,,,,,,,,,,,,,,,,,,,,,,,,,,,,,,,,,,,,,,,,,,,,318.94116426599794,None,space,0.3128127040035906,318.94116426599794,None,319.316053251001,None,f,1,0.5540263049988425,319.316053251001,None,319.8915471221968,None,None,319.8915471221968,None,,16,001,2021_Oct_07_1107,searchDisc4,2021.2.3,59.493268936269025,
images/exp1b_trial_4_colour1_distractors31_r.png,r,j,1b,4,1,31,,,,,0,97,97,241,,,,,,,,,,,,,,,,,,,,,,,,,,,,,,,,,,,,,,,,,,,,,,,,,,,,,,,,,,,,,,,,,,,,,,,,,,,,319.8913150209992,None,space,0.21868549200007692,319.8913150209992,None,320.1769056579942,None,j,1,0.9891965580027318,320.1769056579942,None,321.1916851921975,None,None,321.1916851921975,None,,16,001,2021_Oct_07_1107,searchDisc4,2021.2.3,59.493268936269025,
images/exp1b_trial_142_colour3_distractors31_r.png,r,j,1b,142,3,31,,,,,0,98,98,379,,,,,,,,,,,,,,,,,,,,,,,,,,,,,,,,,,,,,,,,,,,,,,,,,,,,,,,,,,,,,,,,,,,,,,,,,,,,321.1916980669994,None,space,1.7904387939997832,321.1916980669994,None,323.06035346599674,None,j,1,0.5538520650006831,323.06035346599674,None,323.64165325419674,None,None,323.64165325419674,None,,16,001,2021_Oct_07_1107,searchDisc4,2021.2.3,59.493268936269025,
images/exp1b_trial_43_colour3_distractors4_r.png,r,j,1b,43,3,4,,,,,0,99,99,280,,,,,,,,,,,,,,,,,,,,,,,,,,,,,,,,,,,,,,,,,,,,,,,,,,,,,,,,,,,,,,,,,,,,,,,,,,,,323.6413353780008,None,space,0.5968395430027158,323.6413353780008,None,324.2997688989999,None,j,1,0.5785239629985881,324.2997688989999,None,324.9084208861947,None,None,324.9084208861947,None,,16,001,2021_Oct_07_1107,searchDisc4,2021.2.3,59.493268936269025,
images/exp1b_trial_41_colour2_distractors31_r.png,r,j,1b,41,2,31,,,,,0,100,100,278,,,,,,,,,,,,,,,,,,,,,,,,,,,,,,,,,,,,,,,,,,,,,,,,,,,,,,,,,,,,,,,,,,,,,,,,,,,,324.90831891099515,None,space,0.16190763499616878,324.90831891099515,None,325.1437447249991,None,j,1,0.6305009579955367,325.1437447249991,None,325.79170894519996,None,None,325.79170894519996,None,,16,001,2021_Oct_07_1107,searchDisc4,2021.2.3,59.493268936269025,
images/exp1b_trial_97_colour1_distractors4_r.png,r,j,1b,97,1,4,,,,,0,101,101,334,,,,,,,,,,,,,,,,,,,,,,,,,,,,,,,,,,,,,,,,,,,,,,,,,,,,,,,,,,,,,,,,,,,,,,,,,,,,325.7913043570006,None,space,0.2709912669961341,325.7913043570006,None,326.14372816499963,None,j,1,0.5746360509947408,326.14372816499963,None,326.74119957719597,None,None,326.74119957719597,None,,16,001,2021_Oct_07_1107,searchDisc4,2021.2.3,59.493268936269025,
images/exp1a_trial_73_colour2_distractors31_r.png,r,j,1a,73,2,31,,,,,0,102,102,118,,,,,,,,,,,,,,,,,,,,,,,,,,,,,,,,,,,,,,,,,,,,,,,,,,,,,,,,,,,,,,,,,,,,,,,,,,,,326.74088677399413,None,space,0.24147656899731373,326.74088677399413,None,327.0603322559982,None,j,1,0.6260538920032559,327.0603322559982,None,327.70808945719693,None,None,327.70808945719693,None,,16,001,2021_Oct_07_1107,searchDisc4,2021.2.3,59.493268936269025,
images/exp2c_trial_63_colour0_distractors0_l.png,l,f,2c,63,0,0,,,,,0,103,103,876,,,,,,,,,,,,,,,,,,,,,,,,,,,,,,,,,,,,,,,,,,,,,,,,,,,,,,,,,,,,,,,,,,,,,,,,,,,,327.7077168369942,None,space,0.2025795579975238,327.7077168369942,None,327.96508933899895,None,f,1,0.5373726670004544,327.96508933899895,None,328.5251398111992,None,None,328.5251398111992,None,,16,001,2021_Oct_07_1107,searchDisc4,2021.2.3,59.493268936269025,
images/exp2c_trial_62_colour0_distractors0_r.png,r,j,2c,62,0,0,,,,,0,104,104,875,,,,,,,,,,,,,,,,,,,,,,,,,,,,,,,,,,,,,,,,,,,,,,,,,,,,,,,,,,,,,,,,,,,,,,,,,,,,328.5248771549959,None,space,0.2255366680037696,328.5248771549959,None,328.8164982219969,None,j,1,0.5259151369973551,328.8164982219969,None,329.3751034531939,None,None,329.3751034531939,None,,16,001,2021_Oct_07_1107,searchDisc4,2021.2.3,59.493268936269025,
images/exp1a_trial_70_colour2_distractors4_r.png,r,j,1a,70,2,4,,,,,0,105,105,115,,,,,,,,,,,,,,,,,,,,,,,,,,,,,,,,,,,,,,,,,,,,,,,,,,,,,,,,,,,,,,,,,,,,,,,,,,,,329.3749862859986,None,space,0.23946088200318627,329.3749862859986,None,329.69390709399886,None,j,1,0.48051949300133856,329.69390709399886,None,330.1919851951949,None,None,330.1919851951949,None,,16,001,2021_Oct_07_1107,searchDisc4,2021.2.3,59.493268936269025,
images/exp1a_trial_48_colour1_distractors4_l.png,l,f,1a,48,1,4,,,,,0,106,106,93,,,,,,,,,,,,,,,,,,,,,,,,,,,,,,,,,,,,,,,,,,,,,,,,,,,,,,,,,,,,,,,,,,,,,,,,,,,,330.191519082,None,space,0.2309694740033592,330.191519082,None,330.493825698999,None,f,1,0.5367433520004852,330.493825698999,None,331.05840766819676,None,None,331.05840766819676,None,,16,001,2021_Oct_07_1107,searchDisc4,2021.2.3,59.493268936269025,
images/exp1a_trial_72_colour2_distractors19_r.png,r,j,1a,72,2,19,,,,,0,107,107,117,,,,,,,,,,,,,,,,,,,,,,,,,,,,,,,,,,,,,,,,,,,,,,,,,,,,,,,,,,,,,,,,,,,,,,,,,,,,331.0582040179943,None,space,0.16431613500026288,331.0582040179943,None,331.2940199910008,None,j,1,0.44849695199809503,331.2940199910008,None,331.77517292319465,None,None,331.77517292319465,None,,16,001,2021_Oct_07_1107,searchDisc4,2021.2.3,59.493268936269025,
images/exp1a_trial_136_colour2_distractors19_r.png,r,j,1a,136,2,19,,,,,0,108,108,181,,,,,,,,,,,,,,,,,,,,,,,,,,,,,,,,,,,,,,,,,,,,,,,,,,,,,,,,,,,,,,,,,,,,,,,,,,,,331.77495404599904,None,space,0.2156190419991617,331.77495404599904,None,332.06041033499787,None,j,1,0.5542472469969653,332.06041033499787,None,332.64165288519655,None,None,332.64165288519655,None,,16,001,2021_Oct_07_1107,searchDisc4,2021.2.3,59.493268936269025,
images/exp1b_trial_66_colour1_distractors9_r.png,r,j,1b,66,1,9,,,,,0,109,109,303,,,,,,,,,,,,,,,,,,,,,,,,,,,,,,,,,,,,,,,,,,,,,,,,,,,,,,,,,,,,,,,,,,,,,,,,,,,,332.64154709699505,None,space,0.1729868600014015,332.64154709699505,None,332.89397070999985,None,j,1,0.4887200009980006,332.89397070999985,None,333.40858544419973,None,None,333.40858544419973,None,,16,001,2021_Oct_07_1107,searchDisc4,2021.2.3,59.493268936269025,
images/exp1a_trial_119_colour2_distractors19_l.png,l,f,1a,119,2,19,,,,,0,110,110,164,,,,,,,,,,,,,,,,,,,,,,,,,,,,,,,,,,,,,,,,,,,,,,,,,,,,,,,,,,,,,,,,,,,,,,,,,,,,333.4075152019941,None,space,0.22307790999911958,333.4075152019941,None,333.7104883639986,None,f,1,0.6562530549999792,333.7104883639986,None,334.39174712119495,None,None,334.39174712119495,None,,16,001,2021_Oct_07_1107,searchDisc4,2021.2.3,59.493268936269025,
images/exp1a_trial_164_colour1_distractors31_r.png,r,j,1a,164,1,31,,,,,0,111,111,209,,,,,,,,,,,,,,,,,,,,,,,,,,,,,,,,,,,,,,,,,,,,,,,,,,,,,,,,,,,,,,,,,,,,,,,,,,,,334.39161287299794,None,space,0.11107155100035015,334.39161287299794,None,334.5772378039983,None,j,1,0.6055338709993521,334.5772378039983,None,335.2083948731939,None,None,335.2083948731939,None,,16,001,2021_Oct_07_1107,searchDisc4,2021.2.3,59.493268936269025,
images/exp2b_trial_23_colour2_distractors19_l.png,l,f,2b,23,2,19,,,,,0,112,112,644,,,,,,,,,,,,,,,,,,,,,,,,,,,,,,,,,,,,,,,,,,,,,,,,,,,,,,,,,,,,,,,,,,,,,,,,,,,,335.20806682499824,None,space,0.17466247799893608,335.20806682499824,None,335.4491540800009,None,f,1,0.6216603879947797,335.4491540800009,None,336.09132728719635,None,None,336.09132728719635,None,,16,001,2021_Oct_07_1107,searchDisc4,2021.2.3,59.493268936269025,
images/exp1b_trial_33_colour1_distractors4_r.png,r,j,1b,33,1,4,,,,,0,113,113,270,,,,,,,,,,,,,,,,,,,,,,,,,,,,,,,,,,,,,,,,,,,,,,,,,,,,,,,,,,,,,,,,,,,,,,,,,,,,336.09183853099967,None,space,0.154923346999567,336.09183853099967,None,336.3272907099963,None,j,1,0.5035526319989003,336.3272907099963,None,336.8584033501953,None,None,336.8584033501953,None,,16,001,2021_Oct_07_1107,searchDisc4,2021.2.3,59.493268936269025,
images/exp2a_trial_156_colour3_distractors19_l.png,l,f,2a,156,3,19,,,,,0,114,114,585,,,,,,,,,,,,,,,,,,,,,,,,,,,,,,,,,,,,,,,,,,,,,,,,,,,,,,,,,,,,,,,,,,,,,,,,,,,,336.8580900609959,None,space,0.18870845199853648,336.8580900609959,None,337.1273866779957,None,f,1,0.6474057550003636,337.1273866779957,None,337.79204185319907,None,None,337.79204185319907,None,,16,001,2021_Oct_07_1107,searchDisc4,2021.2.3,59.493268936269025,
images/exp2a_trial_30_colour0_distractors0_r.png,r,j,2a,30,0,0,,,,,0,115,115,459,,,,,,,,,,,,,,,,,,,,,,,,,,,,,,,,,,,,,,,,,,,,,,,,,,,,,,,,,,,,,,,,,,,,,,,,,,,,337.7915978069941,None,space,0.15923522299999604,337.7915978069941,None,338.01605633099825,None,j,1,0.4948657490022015,338.01605633099825,None,338.542012187199,None,None,338.542012187199,None,,16,001,2021_Oct_07_1107,searchDisc4,2021.2.3,59.493268936269025,
images/exp2a_trial_35_colour1_distractors19_r.png,r,j,2a,35,1,19,,,,,0,116,116,464,,,,,,,,,,,,,,,,,,,,,,,,,,,,,,,,,,,,,,,,,,,,,,,,,,,,,,,,,,,,,,,,,,,,,,,,,,,,338.54145562499616,None,space,0.19343294199643424,338.54145562499616,None,338.81082268899627,None,f,0,0.5480470820039045,338.81082268899627,None,339.3920759791996,None,None,339.3920759791996,None,,16,001,2021_Oct_07_1107,searchDisc4,2021.2.3,59.493268936269025,
images/exp2b_trial_50_colour1_distractors19_l.png,l,f,2b,50,1,19,,,,,0,117,117,671,,,,,,,,,,,,,,,,,,,,,,,,,,,,,,,,,,,,,,,,,,,,,,,,,,,,,,,,,,,,,,,,,,,,,,,,,,,,339.39139786499436,None,space,0.39944010299950605,339.39139786499436,None,339.8606715919959,None,f,1,0.5623588620001101,339.8606715919959,None,340.44121248520025,None,None,340.44121248520025,None,,16,001,2021_Oct_07_1107,searchDisc4,2021.2.3,59.493268936269025,
images/exp2a_trial_65_colour1_distractors4_r.png,r,j,2a,65,1,4,,,,,0,118,118,494,,,,,,,,,,,,,,,,,,,,,,,,,,,,,,,,,,,,,,,,,,,,,,,,,,,,,,,,,,,,,,,,,,,,,,,,,,,,340.4416447449985,None,space,0.16529931699915323,340.4416447449985,None,340.6770711040008,None,j,1,0.601995242999692,340.6770711040008,None,341.3084636571999,None,None,341.3084636571999,None,,16,001,2021_Oct_07_1107,searchDisc4,2021.2.3,59.493268936269025,
images/exp1b_trial_10_colour3_distractors1_r.png,r,j,1b,10,3,1,,,,,0,119,119,247,,,,,,,,,,,,,,,,,,,,,,,,,,,,,,,,,,,,,,,,,,,,,,,,,,,,,,,,,,,,,,,,,,,,,,,,,,,,341.30824138000025,None,space,0.16273971099872142,341.30824138000025,None,341.5442235149967,None,j,1,0.5028625709965127,341.5442235149967,None,342.0746011739975,None,space,342.0746011739975,None,0.23642421400290914,16,001,2021_Oct_07_1107,searchDisc4,2021.2.3,59.493268936269025,
images/exp2a_trial_69_colour2_distractors1_r.png,r,j,2a,69,2,1,,,,,0,120,120,498,,,,,,,,,,,,,,,,,,,,,,,,,,,,,,,,,,,,,,,,,,,,,,,,,,,,,,,,,,,,,,,,,,,,,,,,,,,,342.3433671370003,None,space,3.9279272530038725,342.3433671370003,None,346.33381754400034,None,j,1,0.6254061660001753,346.33381754400034,None,346.99230997919733,None,None,346.99230997919733,None,,16,001,2021_Oct_07_1107,searchDisc4,2021.2.3,59.493268936269025,
images/exp2c_trial_118_colour2_distractors9_l.png,l,f,2c,118,2,9,,,,,0,121,121,931,,,,,,,,,,,,,,,,,,,,,,,,,,,,,,,,,,,,,,,,,,,,,,,,,,,,,,,,,,,,,,,,,,,,,,,,,,,,346.99157512999955,None,space,0.35970149799686624,346.99157512999955,None,347.4276561269944,None,f,1,0.49967623100383207,347.4276561269944,None,347.9585485511976,None,None,347.9585485511976,None,,16,001,2021_Oct_07_1107,searchDisc4,2021.2.3,59.493268936269025,
images/exp1a_trial_27_colour3_distractors9_l.png,l,f,1a,27,3,9,,,,,0,122,122,72,,,,,,,,,,,,,,,,,,,,,,,,,,,,,,,,,,,,,,,,,,,,,,,,,,,,,,,,,,,,,,,,,,,,,,,,,,,,347.95831949299463,None,space,0.19297394600289408,347.95831949299463,None,348.2276565259963,None,f,1,0.4756998049997492,348.2276565259963,None,348.72495486419723,None,None,348.72495486419723,None,,16,001,2021_Oct_07_1107,searchDisc4,2021.2.3,59.493268936269025,
images/exp2b_trial_84_colour2_distractors1_l.png,l,f,2b,84,2,1,,,,,0,123,123,705,,,,,,,,,,,,,,,,,,,,,,,,,,,,,,,,,,,,,,,,,,,,,,,,,,,,,,,,,,,,,,,,,,,,,,,,,,,,348.72486096999637,None,space,0.2424335429968778,348.72486096999637,None,349.0337768949976,None,f,1,0.517620533995796,349.0337768949976,None,349.5752683231964,None,None,349.5752683231964,None,,16,001,2021_Oct_07_1107,searchDisc4,2021.2.3,59.493268936269025,
images/exp2a_trial_114_colour1_distractors19_l.png,l,f,2a,114,1,19,,,,,0,124,124,543,,,,,,,,,,,,,,,,,,,,,,,,,,,,,,,,,,,,,,,,,,,,,,,,,,,,,,,,,,,,,,,,,,,,,,,,,,,,349.57483046299603,None,space,0.1925103419998777,349.57483046299603,None,349.84435991499777,None,f,1,0.5389936009960365,349.84435991499777,None,350.4087881221982,None,None,350.4087881221982,None,,16,001,2021_Oct_07_1107,searchDisc4,2021.2.3,59.493268936269025,
images/exp2a_trial_157_colour3_distractors31_l.png,l,f,2a,157,3,31,,,,,0,125,125,586,,,,,,,,,,,,,,,,,,,,,,,,,,,,,,,,,,,,,,,,,,,,,,,,,,,,,,,,,,,,,,,,,,,,,,,,,,,,350.40887131999625,None,space,0.23053820800123503,350.40887131999625,None,350.7110025849979,None,f,1,1.0484421119981562,350.7110025849979,None,351.79241653319843,None,None,351.79241653319843,None,,16,001,2021_Oct_07_1107,searchDisc4,2021.2.3,59.493268936269025,
images/exp2b_trial_44_colour3_distractors9_r.png,r,j,2b,44,3,9,,,,,0,126,126,665,,,,,,,,,,,,,,,,,,,,,,,,,,,,,,,,,,,,,,,,,,,,,,,,,,,,,,,,,,,,,,,,,,,,,,,,,,,,351.7919805459969,None,space,0.1594671519997064,351.7919805459969,None,352.0277249360006,None,j,1,0.6358507929980988,352.0277249360006,None,352.6923570211999,None,None,352.6923570211999,None,,16,001,2021_Oct_07_1107,searchDisc4,2021.2.3,59.493268936269025,
images/exp2c_trial_8_colour2_distractors19_r.png,r,j,2c,8,2,19,,,,,0,127,127,821,,,,,,,,,,,,,,,,,,,,,,,,,,,,,,,,,,,,,,,,,,,,,,,,,,,,,,,,,,,,,,,,,,,,,,,,,,,,352.69224044399743,None,space,1.587347624998074,352.69224044399743,None,354.3611967859979,None,j,1,0.5104554650024511,354.3611967859979,None,354.89212390819523,None,None,354.89212390819523,None,,16,001,2021_Oct_07_1107,searchDisc4,2021.2.3,59.493268936269025,
images/exp2b_trial_32_colour1_distractors1_r.png,r,j,2b,32,1,1,,,,,0,128,128,653,,,,,,,,,,,,,,,,,,,,,,,,,,,,,,,,,,,,,,,,,,,,,,,,,,,,,,,,,,,,,,,,,,,,,,,,,,,,354.8916994309984,None,space,0.39588749499671394,354.8916994309984,None,355.3501591909953,None,j,1,0.7775667520036222,355.3501591909953,None,356.1591209341983,None,None,356.1591209341983,None,,16,001,2021_Oct_07_1107,searchDisc4,2021.2.3,59.493268936269025,
images/exp2b_trial_183_colour2_distractors19_l.png,l,f,2b,183,2,19,,,,,0,129,129,804,,,,,,,,,,,,,,,,,,,,,,,,,,,,,,,,,,,,,,,,,,,,,,,,,,,,,,,,,,,,,,,,,,,,,,,,,,,,356.1585094580005,None,space,0.2091698029980762,356.1585094580005,None,356.4336895960005,None,f,1,0.4860757909991662,356.4336895960005,None,356.942468708197,None,None,356.942468708197,None,,16,001,2021_Oct_07_1107,searchDisc4,2021.2.3,59.493268936269025,
images/exp2b_trial_43_colour3_distractors4_r.png,r,j,2b,43,3,4,,,,,0,130,130,664,,,,,,,,,,,,,,,,,,,,,,,,,,,,,,,,,,,,,,,,,,,,,,,,,,,,,,,,,,,,,,,,,,,,,,,,,,,,356.942267284001,None,space,0.33746539799903985,356.942267284001,None,357.3613819329985,None,j,1,0.5104108789964812,357.3613819329985,None,357.8922669711952,None,None,357.8922669711952,None,,16,001,2021_Oct_07_1107,searchDisc4,2021.2.3,59.493268936269025,
images/exp1a_trial_16_colour1_distractors4_l.png,l,f,1a,16,1,4,,,,,0,131,131,61,,,,,,,,,,,,,,,,,,,,,,,,,,,,,,,,,,,,,,,,,,,,,,,,,,,,,,,,,,,,,,,,,,,,,,,,,,,,357.8920031249945,None,space,0.2996486929987441,357.8920031249945,None,358.26124304999394,None,j,0,0.37060126600408694,358.26124304999394,None,358.6591676311997,None,None,358.6591676311997,None,,16,001,2021_Oct_07_1107,searchDisc4,2021.2.3,59.493268936269025,
images/exp1b_trial_162_colour1_distractors9_r.png,r,j,1b,162,1,9,,,,,0,132,132,399,,,,,,,,,,,,,,,,,,,,,,,,,,,,,,,,,,,,,,,,,,,,,,,,,,,,,,,,,,,,,,,,,,,,,,,,,,,,358.65868048499397,None,space,0.5571270669970545,358.65868048499397,None,359.29483544799587,None,j,1,0.664982615999179,359.29483544799587,None,359.9926034461947,None,None,359.9926034461947,None,,16,001,2021_Oct_07_1107,searchDisc4,2021.2.3,59.493268936269025,
images/exp1a_trial_124_colour3_distractors19_l.png,l,f,1a,124,3,19,,,,,0,133,133,169,,,,,,,,,,,,,,,,,,,,,,,,,,,,,,,,,,,,,,,,,,,,,,,,,,,,,,,,,,,,,,,,,,,,,,,,,,,,359.9917759059972,None,space,0.3359844430015073,359.9917759059972,None,360.39489870599937,None,f,1,0.6210831670032348,360.39489870599937,None,361.042778632194,None,None,361.042778632194,None,,16,001,2021_Oct_07_1107,searchDisc4,2021.2.3,59.493268936269025,
images/exp2a_trial_99_colour1_distractors19_r.png,r,j,2a,99,1,19,,,,,0,134,134,528,,,,,,,,,,,,,,,,,,,,,,,,,,,,,,,,,,,,,,,,,,,,,,,,,,,,,,,,,,,,,,,,,,,,,,,,,,,,361.04163595399586,None,space,0.19812655499845278,361.04163595399586,None,361.31130990399834,None,j,1,0.6006819209942478,361.31130990399834,None,361.9426982241981,None,None,361.9426982241981,None,,16,001,2021_Oct_07_1107,searchDisc4,2021.2.3,59.493268936269025,
images/exp2b_trial_5_colour2_distractors1_r.png,r,j,2b,5,2,1,,,,,0,135,135,626,,,,,,,,,,,,,,,,,,,,,,,,,,,,,,,,,,,,,,,,,,,,,,,,,,,,,,,,,,,,,,,,,,,,,,,,,,,,361.94245858999784,None,space,0.23341330299444962,361.94245858999784,None,362.2446211649949,None,j,1,0.50740293799754,362.2446211649949,None,362.7760017011948,None,None,362.7760017011948,None,,16,001,2021_Oct_07_1107,searchDisc4,2021.2.3,59.493268936269025,
images/exp2b_trial_0_colour1_distractors1_r.png,r,j,2b,0,1,1,,,,,0,136,136,621,,,,,,,,,,,,,,,,,,,,,,,,,,,,,,,,,,,,,,,,,,,,,,,,,,,,,,,,,,,,,,,,,,,,,,,,,,,,362.77579714099556,None,space,0.34419911399891134,362.77579714099556,None,363.1946892229971,None,j,1,0.7812897869953304,363.1946892229971,None,363.99281541719904,None,None,363.99281541719904,None,,16,001,2021_Oct_07_1107,searchDisc4,2021.2.3,59.493268936269025,
images/exp2b_trial_167_colour2_distractors9_r.png,r,j,2b,167,2,9,,,,,0,137,137,788,,,,,,,,,,,,,,,,,,,,,,,,,,,,,,,,,,,,,,,,,,,,,,,,,,,,,,,,,,,,,,,,,,,,,,,,,,,,363.99258842499694,None,space,0.49545976200170116,363.99258842499694,None,364.561425105996,None,j,1,0.5427061440059333,364.561425105996,None,365.12569397119444,None,None,365.12569397119444,None,,16,001,2021_Oct_07_1107,searchDisc4,2021.2.3,59.493268936269025,
images/exp1a_trial_172_colour3_distractors9_r.png,r,j,1a,172,3,9,,,,,0,138,138,217,,,,,,,,,,,,,,,,,,,,,,,,,,,,,,,,,,,,,,,,,,,,,,,,,,,,,,,,,,,,,,,,,,,,,,,,,,,,365.125894290999,None,space,0.3381965489970753,365.125894290999,None,365.54453639499843,None,j,1,0.5276518230020883,365.54453639499843,None,366.09276868319796,None,None,366.09276868319796,None,,16,001,2021_Oct_07_1107,searchDisc4,2021.2.3,59.493268936269025,
images/exp2c_trial_34_colour1_distractors9_r.png,r,j,2c,34,1,9,,,,,0,139,139,847,,,,,,,,,,,,,,,,,,,,,,,,,,,,,,,,,,,,,,,,,,,,,,,,,,,,,,,,,,,,,,,,,,,,,,,,,,,,366.09291718799795,None,space,0.39521190999948885,366.09291718799795,None,366.55000159799965,None,j,1,0.7382382540017716,366.55000159799965,None,367.3097943191948,None,None,367.3097943191948,None,,16,001,2021_Oct_07_1107,searchDisc4,2021.2.3,59.493268936269025,
images/exp2c_trial_191_colour0_distractors0_l.png,l,f,2c,191,0,0,,,,,0,140,140,44,,,,,,,,,,,,,,,,,,,,,,,,,,,,,,,,,,,,,,,,,,,,,,,,,,,,,,,,,,,,,,,,,,,,,,,,,,,,367.308914231995,None,space,0.3072323700034758,367.308914231995,None,367.6947835989995,None,f,1,0.43350885399559047,367.6947835989995,None,368.15948348719905,None,None,368.15948348719905,None,,16,001,2021_Oct_07_1107,searchDisc4,2021.2.3,59.493268936269025,
images/exp2b_trial_185_colour3_distractors1_l.png,l,f,2b,185,3,1,,,,,0,141,141,806,,,,,,,,,,,,,,,,,,,,,,,,,,,,,,,,,,,,,,,,,,,,,,,,,,,,,,,,,,,,,,,,,,,,,,,,,,,,368.1592794449971,None,space,0.3528766050003469,368.1592794449971,None,368.5944669809978,None,f,1,0.5418488939976669,368.5944669809978,None,369.15990381619997,None,None,369.15990381619997,None,,16,001,2021_Oct_07_1107,searchDisc4,2021.2.3,59.493268936269025,
images/exp2b_trial_125_colour3_distractors31_l.png,l,f,2b,125,3,31,,,,,0,142,142,746,,,,,,,,,,,,,,,,,,,,,,,,,,,,,,,,,,,,,,,,,,,,,,,,,,,,,,,,,,,,,,,,,,,,,,,,,,,,369.15875791199505,None,space,0.3135139360019821,369.15875791199505,None,369.5448505050008,None,f,1,0.4635172899943427,369.5448505050008,None,370.0261403071978,None,None,370.0261403071978,None,,16,001,2021_Oct_07_1107,searchDisc4,2021.2.3,59.493268936269025,
images/exp1b_trial_134_colour2_distractors4_r.png,r,j,1b,134,2,4,,,,,0,143,143,371,,,,,,,,,,,,,,,,,,,,,,,,,,,,,,,,,,,,,,,,,,,,,,,,,,,,,,,,,,,,,,,,,,,,,,,,,,,,370.0259962609998,None,space,0.318234696998843,370.0259962609998,None,370.41640257700055,None,j,1,0.5280028459965251,370.41640257700055,None,370.9762431441974,None,None,370.9762431441974,None,,16,001,2021_Oct_07_1107,searchDisc4,2021.2.3,59.493268936269025,
images/exp2b_trial_48_colour1_distractors4_l.png,l,f,2b,48,1,4,,,,,0,144,144,669,,,,,,,,,,,,,,,,,,,,,,,,,,,,,,,,,,,,,,,,,,,,,,,,,,,,,,,,,,,,,,,,,,,,,,,,,,,,370.97609392299637,None,space,0.30420760400011204,370.97609392299637,None,371.35145337099675,None,j,0,0.6009872629947495,371.35145337099675,None,371.97636550819664,None,None,371.97636550819664,None,,16,001,2021_Oct_07_1107,searchDisc4,2021.2.3,59.493268936269025,
images/exp2c_trial_94_colour0_distractors0_r.png,r,j,2c,94,0,0,,,,,0,145,145,907,,,,,,,,,,,,,,,,,,,,,,,,,,,,,,,,,,,,,,,,,,,,,,,,,,,,,,,,,,,,,,,,,,,,,,,,,,,,371.97608301599394,None,space,0.45633935400110204,371.97608301599394,None,372.4920709979997,None,j,1,0.5484452719974797,372.4920709979997,None,373.05972851219633,None,None,373.05972851219633,None,,16,001,2021_Oct_07_1107,searchDisc4,2021.2.3,59.493268936269025,
images/exp2c_trial_83_colour1_distractors31_l.png,l,f,2c,83,1,31,,,,,0,146,146,896,,,,,,,,,,,,,,,,,,,,,,,,,,,,,,,,,,,,,,,,,,,,,,,,,,,,,,,,,,,,,,,,,,,,,,,,,,,,373.0586595309942,None,space,0.22985014100413537,373.0586595309942,None,373.351066919,None,f,1,0.5534662229983951,373.351066919,None,373.9260838981987,None,None,373.9260838981987,None,,16,001,2021_Oct_07_1107,searchDisc4,2021.2.3,59.493268936269025,
images/exp1b_trial_80_colour1_distractors4_l.png,l,f,1b,80,1,4,,,,,0,147,147,317,,,,,,,,,,,,,,,,,,,,,,,,,,,,,,,,,,,,,,,,,,,,,,,,,,,,,,,,,,,,,,,,,,,,,,,,,,,,373.92610169999534,None,space,0.31442914399667643,373.92610169999534,None,374.31186861899914,None,f,1,0.664621371004614,374.31186861899914,None,375.00963110119994,None,None,375.00963110119994,None,,16,001,2021_Oct_07_1107,searchDisc4,2021.2.3,59.493268936269025,
images/exp2a_trial_81_colour1_distractors9_l.png,l,f,2a,81,1,9,,,,,0,148,148,510,,,,,,,,,,,,,,,,,,,,,,,,,,,,,,,,,,,,,,,,,,,,,,,,,,,,,,,,,,,,,,,,,,,,,,,,,,,,375.00906560199655,None,space,0.6074911510004313,375.00906560199655,None,375.6948300009972,None,f,1,0.6018007739985478,375.6948300009972,None,376.3264062091963,None,None,376.3264062091963,None,,16,001,2021_Oct_07_1107,searchDisc4,2021.2.3,59.493268936269025,
images/exp1a_trial_77_colour3_distractors19_r.png,r,j,1a,77,3,19,,,,,0,149,149,122,,,,,,,,,,,,,,,,,,,,,,,,,,,,,,,,,,,,,,,,,,,,,,,,,,,,,,,,,,,,,,,,,,,,,,,,,,,,376.32608403299673,None,space,0.24247977199411253,376.32608403299673,None,376.64502429399727,None,j,1,0.7796470190005493,376.64502429399727,None,377.44273686019517,None,None,377.44273686019517,None,,16,001,2021_Oct_07_1107,searchDisc4,2021.2.3,59.493268936269025,
images/exp1b_trial_13_colour3_distractors19_r.png,r,j,1b,13,3,19,,,,,0,150,150,250,,,,,,,,,,,,,,,,,,,,,,,,,,,,,,,,,,,,,,,,,,,,,,,,,,,,,,,,,,,,,,,,,,,,,,,,,,,,377.4429039949973,None,space,0.31771152099827304,377.4429039949973,None,377.8284631669958,None,j,1,0.8523053110038745,377.8284631669958,None,378.7099432861993,None,None,378.7099432861993,None,,16,001,2021_Oct_07_1107,searchDisc4,2021.2.3,59.493268936269025,
images/exp1a_trial_141_colour3_distractors19_r.png,r,j,1a,141,3,19,,,,,0,151,151,186,,,,,,,,,,,,,,,,,,,,,,,,,,,,,,,,,,,,,,,,,,,,,,,,,,,,,,,,,,,,,,,,,,,,,,,,,,,,378.70888130000094,None,space,0.14781774600123754,378.70888130000094,None,378.9285125030001,None,j,1,0.5282478570006788,378.9285125030001,None,379.47594209419697,None,None,379.47594209419697,None,,16,001,2021_Oct_07_1107,searchDisc4,2021.2.3,59.493268936269025,
images/exp1a_trial_132_colour1_distractors31_r.png,r,j,1a,132,1,31,,,,,0,152,152,177,,,,,,,,,,,,,,,,,,,,,,,,,,,,,,,,,,,,,,,,,,,,,,,,,,,,,,,,,,,,,,,,,,,,,,,,,,,,379.4756054269965,None,space,0.2611520050049876,379.4756054269965,None,379.8118518479969,None,j,1,0.5409744369972032,379.8118518479969,None,380.376452017195,None,None,380.376452017195,None,,16,001,2021_Oct_07_1107,searchDisc4,2021.2.3,59.493268936269025,
images/exp2c_trial_110_colour3_distractors31_r.png,r,j,2c,110,3,31,,,,,0,153,153,923,,,,,,,,,,,,,,,,,,,,,,,,,,,,,,,,,,,,,,,,,,,,,,,,,,,,,,,,,,,,,,,,,,,,,,,,,,,,380.37631155999406,None,space,0.20037279000098351,380.37631155999406,None,380.64516550199914,None,j,1,0.6836846730002435,380.64516550199914,None,381.3600107711951,None,None,381.3600107711951,None,,16,001,2021_Oct_07_1107,searchDisc4,2021.2.3,59.493268936269025,
images/exp1a_trial_183_colour2_distractors19_l.png,l,f,1a,183,2,19,,,,,0,154,154,228,,,,,,,,,,,,,,,,,,,,,,,,,,,,,,,,,,,,,,,,,,,,,,,,,,,,,,,,,,,,,,,,,,,,,,,,,,,,381.3597233449982,None,space,0.185149046999868,381.3597233449982,None,381.611860953999,None,f,1,0.6771108579996508,381.611860953999,None,382.3092642202006,None,None,382.3092642202006,None,,16,001,2021_Oct_07_1107,searchDisc4,2021.2.3,59.493268936269025,
images/exp2b_trial_135_colour2_distractors9_r.png,r,j,2b,135,2,9,,,,,0,155,155,756,,,,,,,,,,,,,,,,,,,,,,,,,,,,,,,,,,,,,,,,,,,,,,,,,,,,,,,,,,,,,,,,,,,,,,,,,,,,382.30926584400004,None,space,0.16360405599698424,382.30926584400004,None,382.5343729179949,None,j,1,1.2745890250007506,382.5343729179949,None,383.8266910651997,None,None,383.8266910651997,None,,16,001,2021_Oct_07_1107,searchDisc4,2021.2.3,59.493268936269025,
images/exp2c_trial_74_colour3_distractors1_r.png,r,j,2c,74,3,1,,,,,0,156,156,887,,,,,,,,,,,,,,,,,,,,,,,,,,,,,,,,,,,,,,,,,,,,,,,,,,,,,,,,,,,,,,,,,,,,,,,,,,,,383.82635944399954,None,space,0.2545890519977547,383.82635944399954,None,384.16195288200106,None,j,1,0.7190988459988148,384.16195288200106,None,384.9099387611983,None,None,384.9099387611983,None,,16,001,2021_Oct_07_1107,searchDisc4,2021.2.3,59.493268936269025,
images/exp1a_trial_130_colour1_distractors9_r.png,r,j,1a,130,1,9,,,,,0,157,157,175,,,,,,,,,,,,,,,,,,,,,,,,,,,,,,,,,,,,,,,,,,,,,,,,,,,,,,,,,,,,,,,,,,,,,,,,,,,,384.90962121299526,None,space,0.34738150700286496,384.90962121299526,None,385.3286198679998,None,j,1,0.6404731169968727,385.3286198679998,None,385.99298620519914,None,None,385.99298620519914,None,,16,001,2021_Oct_07_1107,searchDisc4,2021.2.3,59.493268936269025,
images/exp2b_trial_143_colour1_distractors1_l.png,l,f,2b,143,1,1,,,,,0,158,158,764,,,,,,,,,,,,,,,,,,,,,,,,,,,,,,,,,,,,,,,,,,,,,,,,,,,,,,,,,,,,,,,,,,,,,,,,,,,,385.9927549419954,None,space,0.2322291500022402,385.9927549419954,None,386.28446014499787,None,f,1,0.6446725409987266,386.28446014499787,None,386.96000342719856,None,None,386.96000342719856,None,,16,001,2021_Oct_07_1107,searchDisc4,2021.2.3,59.493268936269025,
images/exp2c_trial_45_colour3_distractors19_r.png,r,j,2c,45,3,19,,,,,0,159,159,858,,,,,,,,,,,,,,,,,,,,,,,,,,,,,,,,,,,,,,,,,,,,,,,,,,,,,,,,,,,,,,,,,,,,,,,,,,,,386.95967772199947,None,space,0.2894201550006983,386.95967772199947,None,387.32866990199545,None,j,1,0.5765134329994908,387.32866990199545,None,387.92671601819677,None,None,387.92671601819677,None,,16,001,2021_Oct_07_1107,searchDisc4,2021.2.3,59.493268936269025,
images/exp1a_trial_5_colour2_distractors1_r.png,r,j,1a,5,2,1,,,,,0,160,160,50,,,,,,,,,,,,,,,,,,,,,,,,,,,,,,,,,,,,,,,,,,,,,,,,,,,,,,,,,,,,,,,,,,,,,,,,,,,,387.9265543329966,None,space,0.28252734799752943,387.9265543329966,None,388.27870881700073,None,f,0,1.2665489760038326,388.27870881700073,None,389.576831591197,None,None,389.576831591197,None,,16,001,2021_Oct_07_1107,searchDisc4,2021.2.3,59.493268936269025,
images/exp2c_trial_78_colour3_distractors31_r.png,r,j,2c,78,3,31,,,,,0,161,161,891,,,,,,,,,,,,,,,,,,,,,,,,,,,,,,,,,,,,,,,,,,,,,,,,,,,,,,,,,,,,,,,,,,,,,,,,,,,,389.57693416799884,None,space,1.8483365080028307,389.57693416799884,None,391.4954740510002,None,j,1,0.41789300100208493,391.4954740510002,None,391.9435337551964,None,None,391.9435337551964,None,,16,001,2021_Oct_07_1107,searchDisc4,2021.2.3,59.493268936269025,
images/exp2a_trial_152_colour2_distractors31_l.png,l,f,2a,152,2,31,,,,,0,162,162,581,,,,,,,,,,,,,,,,,,,,,,,,,,,,,,,,,,,,,,,,,,,,,,,,,,,,,,,,,,,,,,,,,,,,,,,,,,,,391.9424677559946,None,space,0.9469610369997099,391.9424677559946,None,392.96232070100086,None,j,0,0.3671197750009014,392.96232070100086,None,393.3601066631942,None,None,393.3601066631942,None,,16,001,2021_Oct_07_1107,searchDisc4,2021.2.3,59.493268936269025,
images/exp1a_trial_67_colour1_distractors19_r.png,r,j,1a,67,1,19,,,,,0,163,163,112,,,,,,,,,,,,,,,,,,,,,,,,,,,,,,,,,,,,,,,,,,,,,,,,,,,,,,,,,,,,,,,,,,,,,,,,,,,,393.35984563500097,None,space,0.8335816740000155,393.35984563500097,None,394.2624549369939,None,j,1,0.5630669589954778,394.2624549369939,None,394.84327004119916,None,None,394.84327004119916,None,,16,001,2021_Oct_07_1107,searchDisc4,2021.2.3,59.493268936269025,
images/exp1a_trial_88_colour2_distractors31_l.png,l,f,1a,88,2,31,,,,,0,164,164,133,,,,,,,,,,,,,,,,,,,,,,,,,,,,,,,,,,,,,,,,,,,,,,,,,,,,,,,,,,,,,,,,,,,,,,,,,,,,394.8431321639946,None,space,0.542349039002147,394.8431321639946,None,395.462425822996,None,f,1,0.6911386049978319,395.462425822996,None,396.1769389991947,None,None,396.1769389991947,None,,16,001,2021_Oct_07_1107,searchDisc4,2021.2.3,59.493268936269025,
images/exp2b_trial_7_colour2_distractors9_r.png,r,j,2b,7,2,9,,,,,0,165,165,628,,,,,,,,,,,,,,,,,,,,,,,,,,,,,,,,,,,,,,,,,,,,,,,,,,,,,,,,,,,,,,,,,,,,,,,,,,,,396.17697392699483,None,space,0.26450351499806857,396.17697392699483,None,396.5000247759963,None,j,1,0.5815849840000737,396.5000247759963,None,397.11027392819744,None,None,397.11027392819744,None,,16,001,2021_Oct_07_1107,searchDisc4,2021.2.3,59.493268936269025,
images/exp2a_trial_3_colour1_distractors19_r.png,r,j,2a,3,1,19,,,,,0,166,166,432,,,,,,,,,,,,,,,,,,,,,,,,,,,,,,,,,,,,,,,,,,,,,,,,,,,,,,,,,,,,,,,,,,,,,,,,,,,,397.1100230739976,None,space,0.48360158300056355,397.1100230739976,None,397.6623004439971,None,j,1,0.5393561550008599,397.6623004439971,None,398.22667465219786,None,None,398.22667465219786,None,,16,001,2021_Oct_07_1107,searchDisc4,2021.2.3,59.493268936269025,
images/exp2a_trial_1_colour1_distractors4_r.png,r,j,2a,1,1,4,,,,,0,167,167,430,,,,,,,,,,,,,,,,,,,,,,,,,,,,,,,,,,,,,,,,,,,,,,,,,,,,,,,,,,,,,,,,,,,,,,,,,,,,398.2265791519967,None,space,0.35903253400465474,398.2265791519967,None,398.65110748000006,None,j,1,0.5746184219970019,398.65110748000006,None,399.24364667819975,None,None,399.24364667819975,None,,16,001,2021_Oct_07_1107,searchDisc4,2021.2.3,59.493268936269025,
images/exp1b_trial_116_colour2_distractors1_l.png,l,f,1b,116,2,1,,,,,0,168,168,353,,,,,,,,,,,,,,,,,,,,,,,,,,,,,,,,,,,,,,,,,,,,,,,,,,,,,,,,,,,,,,,,,,,,,,,,,,,,399.2433744519949,None,space,0.41428844700567424,399.2433744519949,None,399.7177941789996,None,f,1,0.6119763999959105,399.7177941789996,None,400.36029924819525,None,None,400.36029924819525,None,,16,001,2021_Oct_07_1107,searchDisc4,2021.2.3,59.493268936269025,
images/exp2b_trial_97_colour1_distractors4_r.png,r,j,2b,97,1,4,,,,,0,169,169,718,,,,,,,,,,,,,,,,,,,,,,,,,,,,,,,,,,,,,,,,,,,,,,,,,,,,,,,,,,,,,,,,,,,,,,,,,,,,400.3602430019964,None,space,0.22545824400003767,400.3602430019964,None,400.6514153359967,None,j,1,0.6944019639995531,400.6514153359967,None,401.37715469419857,None,None,401.37715469419857,None,,16,001,2021_Oct_07_1107,searchDisc4,2021.2.3,59.493268936269025,
images/exp1b_trial_61_colour3_distractors31_l.png,l,f,1b,61,3,31,,,,,0,170,170,298,,,,,,,,,,,,,,,,,,,,,,,,,,,,,,,,,,,,,,,,,,,,,,,,,,,,,,,,,,,,,,,,,,,,,,,,,,,,401.3768366699951,None,space,0.14485146300285123,401.3768366699951,None,401.595663823995,None,f,1,1.2141009890037822,401.595663823995,None,402.8271642382002,None,None,402.8271642382002,None,,16,001,2021_Oct_07_1107,searchDisc4,2021.2.3,59.493268936269025,
images/exp2a_trial_109_colour3_distractors19_r.png,r,j,2a,109,3,19,,,,,0,171,171,538,,,,,,,,,,,,,,,,,,,,,,,,,,,,,,,,,,,,,,,,,,,,,,,,,,,,,,,,,,,,,,,,,,,,,,,,,,,,402.82697408999957,None,space,1.670896249001089,402.82697408999957,None,404.5790359229941,None,j,1,0.3908983039946179,404.5790359229941,None,404.99374813819816,None,None,404.99374813819816,None,,16,001,2021_Oct_07_1107,searchDisc4,2021.2.3,59.493268936269025,
images/exp2c_trial_188_colour3_distractors19_l.png,l,f,2c,188,3,19,,,,,0,172,172,41,,,,,,,,,,,,,,,,,,,,,,,,,,,,,,,,,,,,,,,,,,,,,,,,,,,,,,,,,,,,,,,,,,,,,,,,,,,,404.99309820399503,None,space,1.1688584900039132,404.99309820399503,None,406.2293001259968,None,f,1,0.364635999998427,406.2293001259968,None,406.62733447719586,None,None,406.62733447719586,None,,16,001,2021_Oct_07_1107,searchDisc4,2021.2.3,59.493268936269025,
images/exp1b_trial_154_colour3_distractors4_l.png,l,f,1b,154,3,4,,,,,0,173,173,391,,,,,,,,,,,,,,,,,,,,,,,,,,,,,,,,,,,,,,,,,,,,,,,,,,,,,,,,,,,,,,,,,,,,,,,,,,,,406.6266189589951,None,space,0.9033434779994423,406.6266189589951,None,407.60002628399525,None,j,0,0.3939975730027072,407.60002628399525,None,408.01090077519405,None,None,408.01090077519405,None,,16,001,2021_Oct_07_1107,searchDisc4,2021.2.3,59.493268936269025,
images/exp2b_trial_160_colour1_distractors1_r.png,r,j,2b,160,1,1,,,,,0,174,174,781,,,,,,,,,,,,,,,,,,,,,,,,,,,,,,,,,,,,,,,,,,,,,,,,,,,,,,,,,,,,,,,,,,,,,,,,,,,,408.009632178997,None,space,1.0484444449975854,408.009632178997,None,409.110564401999,None,j,1,0.5156388350005727,409.110564401999,None,409.6439652382011,None,None,409.6439652382011,None,,16,001,2021_Oct_07_1107,searchDisc4,2021.2.3,59.493268936269025,
images/exp2b_trial_46_colour3_distractors31_r.png,r,j,2b,46,3,31,,,,,0,175,175,667,,,,,,,,,,,,,,,,,,,,,,,,,,,,,,,,,,,,,,,,,,,,,,,,,,,,,,,,,,,,,,,,,,,,,,,,,,,,409.64380599799915,None,space,0.9743607150012394,409.64380599799915,None,410.6959690099975,None,j,1,0.7302814869981376,410.6959690099975,None,411.44403451619803,None,None,411.44403451619803,None,,16,001,2021_Oct_07_1107,searchDisc4,2021.2.3,59.493268936269025,
images/exp2b_trial_83_colour1_distractors31_l.png,l,f,2b,83,1,31,,,,,0,176,176,704,,,,,,,,,,,,,,,,,,,,,,,,,,,,,,,,,,,,,,,,,,,,,,,,,,,,,,,,,,,,,,,,,,,,,,,,,,,,411.444111564997,None,space,0.902058070001658,411.444111564997,None,412.42960789099743,None,f,1,0.7087281490021269,412.42960789099743,None,413.1600106101956,None,None,413.1600106101956,None,,16,001,2021_Oct_07_1107,searchDisc4,2021.2.3,59.493268936269025,
images/exp1b_trial_54_colour2_distractors9_l.png,l,f,1b,54,2,9,,,,,0,177,177,291,,,,,,,,,,,,,,,,,,,,,,,,,,,,,,,,,,,,,,,,,,,,,,,,,,,,,,,,,,,,,,,,,,,,,,,,,,,,413.15997871099535,None,space,0.9862424279999686,413.15997871099535,None,414.2186678049984,None,f,1,0.6397527840017574,414.2186678049984,None,414.87656859519996,None,None,414.87656859519996,None,,16,001,2021_Oct_07_1107,searchDisc4,2021.2.3,59.493268936269025,
images/exp2a_trial_85_colour2_distractors4_l.png,l,f,2a,85,2,4,,,,,0,178,178,514,,,,,,,,,,,,,,,,,,,,,,,,,,,,,,,,,,,,,,,,,,,,,,,,,,,,,,,,,,,,,,,,,,,,,,,,,,,,414.87732159299776,None,space,0.7490535489996546,414.87732159299776,None,415.696260273995,None,f,1,0.4422154260028037,415.696260273995,None,416.1601358311942,None,None,416.1601358311942,None,,16,001,2021_Oct_07_1107,searchDisc4,2021.2.3,59.493268936269025,
images/exp1a_trial_115_colour1_distractors31_l.png,l,f,1a,115,1,31,,,,,0,179,179,160,,,,,,,,,,,,,,,,,,,,,,,,,,,,,,,,,,,,,,,,,,,,,,,,,,,,,,,,,,,,,,,,,,,,,,,,,,,,416.1606138569987,None,space,0.7779007829958573,416.1606138569987,None,417.0128669229962,None,f,1,0.45366177600226365,417.0128669229962,None,417.49414272319484,None,None,417.49414272319484,None,,16,001,2021_Oct_07_1107,searchDisc4,2021.2.3,59.493268936269025,
images/exp2c_trial_33_colour1_distractors4_r.png,r,j,2c,33,1,4,,,,,0,180,180,846,,,,,,,,,,,,,,,,,,,,,,,,,,,,,,,,,,,,,,,,,,,,,,,,,,,,,,,,,,,,,,,,,,,,,,,,,,,,417.49382557199715,None,space,0.7166870169967297,417.49382557199715,None,418.2689880139951,None,j,1,0.38959728999907384,418.2689880139951,None,418.67657396619836,None,None,418.67657396619836,None,,16,001,2021_Oct_07_1107,searchDisc4,2021.2.3,59.493268936269025,
images/exp2c_trial_69_colour2_distractors1_r.png,r,j,2c,69,2,1,,,,,0,181,181,882,,,,,,,,,,,,,,,,,,,,,,,,,,,,,,,,,,,,,,,,,,,,,,,,,,,,,,,,,,,,,,,,,,,,,,,,,,,,418.67731368499517,None,space,0.7491725489962846,418.67731368499517,None,419.4964127829953,None,j,1,0.42623877200094284,419.4964127829953,None,419.94423356019763,None,None,419.94423356019763,None,,16,001,2021_Oct_07_1107,searchDisc4,2021.2.3,59.493268936269025,
images/exp2a_trial_106_colour3_distractors1_r.png,r,j,2a,106,3,1,,,,,0,182,182,535,,,,,,,,,,,,,,,,,,,,,,,,,,,,,,,,,,,,,,,,,,,,,,,,,,,,,,,,,,,,,,,,,,,,,,,,,,,,419.9440176009957,None,space,0.578610567994474,419.9440176009957,None,420.58578830400074,None,j,1,0.504932176998409,420.58578830400074,None,421.11120612719753,None,None,421.11120612719753,None,,16,001,2021_Oct_07_1107,searchDisc4,2021.2.3,59.493268936269025,
images/exp2a_trial_15_colour1_distractors1_l.png,l,f,2a,15,1,1,,,,,0,183,183,444,,,,,,,,,,,,,,,,,,,,,,,,,,,,,,,,,,,,,,,,,,,,,,,,,,,,,,,,,,,,,,,,,,,,,,,,,,,,421.1108694020004,None,space,0.547769775002962,421.1108694020004,None,421.71788840699446,None,f,1,0.47678248600277584,421.71788840699446,None,422.22772617919475,None,None,422.22772617919475,None,,16,001,2021_Oct_07_1107,searchDisc4,2021.2.3,59.493268936269025,
images/exp1a_trial_137_colour2_distractors31_r.png,r,j,1a,137,2,31,,,,,0,184,184,182,,,,,,,,,,,,,,,,,,,,,,,,,,,,,,,,,,,,,,,,,,,,,,,,,,,,,,,,,,,,,,,,,,,,,,,,,,,,422.22744982999575,None,space,0.5593018580038915,422.22744982999575,None,422.8630527649948,None,j,1,0.5476338939988636,422.8630527649948,None,423.444299739194,None,None,423.444299739194,None,,16,001,2021_Oct_07_1107,searchDisc4,2021.2.3,59.493268936269025,
images/exp1b_trial_146_colour1_distractors19_l.png,l,f,1b,146,1,19,,,,,0,185,185,383,,,,,,,,,,,,,,,,,,,,,,,,,,,,,,,,,,,,,,,,,,,,,,,,,,,,,,,,,,,,,,,,,,,,,,,,,,,,423.443821902998,None,space,0.3509266969995224,423.443821902998,None,423.8630151899997,None,f,1,0.5717917690053582,423.8630151899997,None,424.4609302911973,None,None,424.4609302911973,None,,16,001,2021_Oct_07_1107,searchDisc4,2021.2.3,59.493268936269025,
images/exp2c_trial_68_colour1_distractors31_r.png,r,j,2c,68,1,31,,,,,0,186,186,881,,,,,,,,,,,,,,,,,,,,,,,,,,,,,,,,,,,,,,,,,,,,,,,,,,,,,,,,,,,,,,,,,,,,,,,,,,,,424.4609720649969,None,space,0.2617894499999238,424.4609720649969,None,424.79632240099454,None,j,1,0.6146086869994178,424.79632240099454,None,425.4278966432008,None,None,425.4278966432008,None,,16,001,2021_Oct_07_1107,searchDisc4,2021.2.3,59.493268936269025,
images/exp1a_trial_111_colour1_distractors1_l.png,l,f,1a,111,1,1,,,,,0,187,187,156,,,,,,,,,,,,,,,,,,,,,,,,,,,,,,,,,,,,,,,,,,,,,,,,,,,,,,,,,,,,,,,,,,,,,,,,,,,,425.4278900989957,None,space,0.24692679100553505,425.4278900989957,None,425.74633234499925,None,j,0,0.5766089349999675,425.74633234499925,None,426.34441704019775,None,None,426.34441704019775,None,,16,001,2021_Oct_07_1107,searchDisc4,2021.2.3,59.493268936269025,
images/exp1b_trial_72_colour2_distractors19_r.png,r,j,1b,72,2,19,,,,,0,188,188,309,,,,,,,,,,,,,,,,,,,,,,,,,,,,,,,,,,,,,,,,,,,,,,,,,,,,,,,,,,,,,,,,,,,,,,,,,,,,426.3442682639943,None,space,0.45048381100059487,426.3442682639943,None,426.86307565999596,None,j,1,0.6359408970020013,426.86307565999596,None,427.52787867019435,None,None,427.52787867019435,None,,16,001,2021_Oct_07_1107,searchDisc4,2021.2.3,59.493268936269025,
images/exp2a_trial_47_colour1_distractors1_l.png,l,f,2a,47,1,1,,,,,0,189,189,476,,,,,,,,,,,,,,,,,,,,,,,,,,,,,,,,,,,,,,,,,,,,,,,,,,,,,,,,,,,,,,,,,,,,,,,,,,,,427.5268547989981,None,space,0.2280480900008115,427.5268547989981,None,427.8190782019956,None,f,1,0.5999553410001681,427.8190782019956,None,428.44444370220083,None,None,428.44444370220083,None,,16,001,2021_Oct_07_1107,searchDisc4,2021.2.3,59.493268936269025,
images/exp2a_trial_58_colour3_distractors4_l.png,l,f,2a,58,3,4,,,,,0,190,190,487,,,,,,,,,,,,,,,,,,,,,,,,,,,,,,,,,,,,,,,,,,,,,,,,,,,,,,,,,,,,,,,,,,,,,,,,,,,,428.44378003699967,None,space,0.31914501600113,428.44378003699967,None,428.8298490640009,None,f,1,0.5491900389970397,428.8298490640009,None,429.4112276762004,None,None,429.4112276762004,None,,16,001,2021_Oct_07_1107,searchDisc4,2021.2.3,59.493268936269025,
images/exp2a_trial_4_colour1_distractors31_r.png,r,j,2a,4,1,31,,,,,0,191,191,433,,,,,,,,,,,,,,,,,,,,,,,,,,,,,,,,,,,,,,,,,,,,,,,,,,,,,,,,,,,,,,,,,,,,,,,,,,,,429.4110107439992,None,space,0.30402308799966704,429.4110107439992,None,429.79654706199653,None,j,1,0.5745425190034439,429.79654706199653,None,430.3945238151988,None,None,430.3945238151988,None,,16,001,2021_Oct_07_1107,searchDisc4,2021.2.3,59.493268936269025,
images/exp1b_trial_100_colour1_distractors31_r.png,r,j,1b,100,1,31,,,,,0,192,192,337,,,,,,,,,,,,,,,,,,,,,,,,,,,,,,,,,,,,,,,,,,,,,,,,,,,,,,,,,,,,,,,,,,,,,,,,,,,,430.3942812489986,None,space,0.2567982629989274,430.3942812489986,None,430.73001526499866,None,j,1,0.6171328440032084,430.73001526499866,None,431.37788774319563,None,None,431.37788774319563,None,,16,001,2021_Oct_07_1107,searchDisc4,2021.2.3,59.493268936269025,
images/exp1b_trial_0_colour1_distractors1_r.png,r,j,1b,0,1,1,,,,,0,193,193,237,,,,,,,,,,,,,,,,,,,,,,,,,,,,,,,,,,,,,,,,,,,,,,,,,,,,,,,,,,,,,,,,,,,,,,,,,,,,431.3776526139991,None,space,0.32144117400457617,431.3776526139991,None,431.7693740449977,None,j,1,0.5938260650000302,431.7693740449977,None,432.3945465171979,None,None,432.3945465171979,None,,16,001,2021_Oct_07_1107,searchDisc4,2021.2.3,59.493268936269025,
images/exp1a_trial_26_colour3_distractors4_l.png,l,f,1a,26,3,4,,,,,0,194,194,71,,,,,,,,,,,,,,,,,,,,,,,,,,,,,,,,,,,,,,,,,,,,,,,,,,,,,,,,,,,,,,,,,,,,,,,,,,,,432.39437099999486,None,space,0.3287436760001583,432.39437099999486,None,432.7965673459985,None,f,1,0.7427436759971897,432.7965673459985,None,433.5609054731955,None,None,433.5609054731955,None,,16,001,2021_Oct_07_1107,searchDisc4,2021.2.3,59.493268936269025,
images/exp1a_trial_161_colour1_distractors4_r.png,r,j,1a,161,1,4,,,,,0,195,195,206,,,,,,,,,,,,,,,,,,,,,,,,,,,,,,,,,,,,,,,,,,,,,,,,,,,,,,,,,,,,,,,,,,,,,,,,,,,,433.56129528900055,None,space,0.23392543400404975,433.56129528900055,None,433.8633558099973,None,j,1,0.6919595409999602,433.8633558099973,None,434.57801421619445,None,None,434.57801421619445,None,,16,001,2021_Oct_07_1107,searchDisc4,2021.2.3,59.493268936269025,
images/exp2c_trial_176_colour1_distractors4_l.png,l,f,2c,176,1,4,,,,,0,196,196,29,,,,,,,,,,,,,,,,,,,,,,,,,,,,,,,,,,,,,,,,,,,,,,,,,,,,,,,,,,,,,,,,,,,,,,,,,,,,434.57777666599577,None,space,0.20146538999688346,434.57777666599577,None,434.8347207689949,None,f,1,0.49662463800632395,434.8347207689949,None,435.3612672091964,None,None,435.3612672091964,None,,16,001,2021_Oct_07_1107,searchDisc4,2021.2.3,59.493268936269025,
images/exp1a_trial_14_colour3_distractors31_r.png,r,j,1a,14,3,31,,,,,0,197,197,59,,,,,,,,,,,,,,,,,,,,,,,,,,,,,,,,,,,,,,,,,,,,,,,,,,,,,,,,,,,,,,,,,,,,,,,,,,,,435.3610862849964,None,space,0.6422562030056724,435.3610862849964,None,436.080169724999,None,j,1,0.4192285509998328,436.080169724999,None,436.52805927819793,None,None,436.52805927819793,None,,16,001,2021_Oct_07_1107,searchDisc4,2021.2.3,59.493268936269025,
images/exp1b_trial_150_colour2_distractors9_l.png,l,f,1b,150,2,9,,,,,0,198,198,387,,,,,,,,,,,,,,,,,,,,,,,,,,,,,,,,,,,,,,,,,,,,,,,,,,,,,,,,,,,,,,,,,,,,,,,,,,,,436.5277595189982,None,space,0.5956012590031605,436.5277595189982,None,437.1967115119987,None,f,1,0.4707572999977856,437.1967115119987,None,437.6947550601959,None,None,437.6947550601959,None,,16,001,2021_Oct_07_1107,searchDisc4,2021.2.3,59.493268936269025,
images/exp1a_trial_182_colour2_distractors9_l.png,l,f,1a,182,2,9,,,,,0,199,199,227,,,,,,,,,,,,,,,,,,,,,,,,,,,,,,,,,,,,,,,,,,,,,,,,,,,,,,,,,,,,,,,,,,,,,,,,,,,,437.69382730999496,None,space,0.3016648519987939,437.69382730999496,None,438.063412937001,None,j,0,0.6839885060035158,438.063412937001,None,438.7782542521942,None,None,438.7782542521942,None,,16,001,2021_Oct_07_1107,searchDisc4,2021.2.3,59.493268936269025,
images/exp2b_trial_187_colour3_distractors9_l.png,l,f,2b,187,3,9,,,,,0,200,200,808,,,,,,,,,,,,,,,,,,,,,,,,,,,,,,,,,,,,,,,,,,,,,,,,,,,,,,,,,,,,,,,,,,,,,,,,,,,,438.7779817929986,None,space,0.28142934299830813,438.7779817929986,None,439.13032759699854,None,f,1,0.44921113299642457,439.13032759699854,None,439.6117184591982,None,None,439.6117184591982,None,,16,001,2021_Oct_07_1107,searchDisc4,2021.2.3,59.493268936269025,
images/exp1b_trial_147_colour1_distractors31_l.png,l,f,1b,147,1,31,,,,,0,201,201,384,,,,,,,,,,,,,,,,,,,,,,,,,,,,,,,,,,,,,,,,,,,,,,,,,,,,,,,,,,,,,,,,,,,,,,,,,,,,439.61057736899966,None,space,0.3289285690043471,439.61057736899966,None,440.0135707820009,None,j,0,0.5340378949986189,440.0135707820009,None,440.57813776119804,None,None,440.57813776119804,None,,16,001,2021_Oct_07_1107,searchDisc4,2021.2.3,59.493268936269025,
images/exp1a_trial_125_colour3_distractors31_l.png,l,f,1a,125,3,31,,,,,0,202,202,170,,,,,,,,,,,,,,,,,,,,,,,,,,,,,,,,,,,,,,,,,,,,,,,,,,,,,,,,,,,,,,,,,,,,,,,,,,,,440.5779381179964,None,space,0.5935896020018845,440.5779381179964,None,441.24687498300045,None,f,1,0.7007865380001022,441.24687498300045,None,441.9781664531962,None,None,441.9781664531962,None,,16,001,2021_Oct_07_1107,searchDisc4,2021.2.3,59.493268936269025,
images/exp1a_trial_189_colour3_distractors31_l.png,l,f,1a,189,3,31,,,,,0,203,203,234,,,,,,,,,,,,,,,,,,,,,,,,,,,,,,,,,,,,,,,,,,,,,,,,,,,,,,,,,,,,,,,,,,,,,,,,,,,,441.9781170599963,None,space,0.33752485400327714,441.9781170599963,None,442.3968801209994,None,j,0,0.6388365910024731,442.3968801209994,None,443.06148753619857,None,None,443.06148753619857,None,,16,001,2021_Oct_07_1107,searchDisc4,2021.2.3,59.493268936269025,
images/exp2b_trial_49_colour1_distractors9_l.png,l,f,2b,49,1,9,,,,,0,204,204,670,,,,,,,,,,,,,,,,,,,,,,,,,,,,,,,,,,,,,,,,,,,,,,,,,,,,,,,,,,,,,,,,,,,,,,,,,,,,443.0612014139988,None,space,0.40642301499610767,443.0612014139988,None,443.5468610289972,None,f,1,1.056911243002105,443.5468610289972,None,444.62835607219824,None,None,444.62835607219824,None,,16,001,2021_Oct_07_1107,searchDisc4,2021.2.3,59.493268936269025,
images/exp1a_trial_32_colour1_distractors1_r.png,r,j,1a,32,1,1,,,,,0,205,205,77,,,,,,,,,,,,,,,,,,,,,,,,,,,,,,,,,,,,,,,,,,,,,,,,,,,,,,,,,,,,,,,,,,,,,,,,,,,,444.6280431529958,None,space,0.22370584000600502,444.6280431529958,None,444.91746639499615,None,j,1,0.8623057630029507,444.91746639499615,None,445.811674349197,None,None,445.811674349197,None,,16,001,2021_Oct_07_1107,searchDisc4,2021.2.3,59.493268936269025,
images/exp2b_trial_90_colour3_distractors4_l.png,l,f,2b,90,3,4,,,,,0,206,206,711,,,,,,,,,,,,,,,,,,,,,,,,,,,,,,,,,,,,,,,,,,,,,,,,,,,,,,,,,,,,,,,,,,,,,,,,,,,,445.81171067399555,None,space,0.19208908300061012,445.81171067399555,None,446.069559921998,None,f,1,0.6783216559997527,446.069559921998,None,446.7782588292008,None,None,446.7782588292008,None,,16,001,2021_Oct_07_1107,searchDisc4,2021.2.3,59.493268936269025,
images/exp1a_trial_121_colour3_distractors1_l.png,l,f,1a,121,3,1,,,,,0,207,207,166,,,,,,,,,,,,,,,,,,,,,,,,,,,,,,,,,,,,,,,,,,,,,,,,,,,,,,,,,,,,,,,,,,,,,,,,,,,,446.7779830199943,None,space,0.13786585599882528,446.7779830199943,None,446.9858333499942,None,j,0,0.5700925269993604,446.9858333499942,None,447.5786307091963,None,None,447.5786307091963,None,,16,001,2021_Oct_07_1107,searchDisc4,2021.2.3,59.493268936269025,
images/exp2a_trial_38_colour2_distractors4_r.png,r,j,2a,38,2,4,,,,,0,208,208,467,,,,,,,,,,,,,,,,,,,,,,,,,,,,,,,,,,,,,,,,,,,,,,,,,,,,,,,,,,,,,,,,,,,,,,,,,,,,447.577576675998,None,space,0.47427203400002327,447.577576675998,None,448.13042167099775,None,j,1,0.5535569639978348,448.13042167099775,None,448.7116806671962,None,None,448.7116806671962,None,,16,001,2021_Oct_07_1107,searchDisc4,2021.2.3,59.493268936269025,
images/exp2b_trial_69_colour2_distractors1_r.png,r,j,2b,69,2,1,,,,,0,209,209,690,,,,,,,,,,,,,,,,,,,,,,,,,,,,,,,,,,,,,,,,,,,,,,,,,,,,,,,,,,,,,,,,,,,,,,,,,,,,448.71150400199986,None,space,0.40443642500031274,448.71150400199986,None,449.1861174919977,None,j,1,0.6979074319970096,449.1861174919977,None,449.91175835019897,None,None,449.91175835019897,None,,16,001,2021_Oct_07_1107,searchDisc4,2021.2.3,59.493268936269025,
images/exp2b_trial_150_colour2_distractors9_l.png,l,f,2b,150,2,9,,,,,0,210,210,771,,,,,,,,,,,,,,,,,,,,,,,,,,,,,,,,,,,,,,,,,,,,,,,,,,,,,,,,,,,,,,,,,,,,,,,,,,,,449.9118000879971,None,space,0.22014571799809346,449.9118000879971,None,450.20209780000005,None,f,1,0.4899790120034595,450.20209780000005,None,450.711271282196,None,None,450.711271282196,None,,16,001,2021_Oct_07_1107,searchDisc4,2021.2.3,59.493268936269025,
images/exp2b_trial_56_colour2_distractors31_l.png,l,f,2b,56,2,31,,,,,0,211,211,677,,,,,,,,,,,,,,,,,,,,,,,,,,,,,,,,,,,,,,,,,,,,,,,,,,,,,,,,,,,,,,,,,,,,,,,,,,,,450.71082325499447,None,space,0.3091954759947839,450.71082325499447,None,451.0855566190003,None,j,0,0.5345521850031218,451.0855566190003,None,451.64506022619537,None,None,451.64506022619537,None,,16,001,2021_Oct_07_1107,searchDisc4,2021.2.3,59.493268936269025,
images/exp2c_trial_19_colour1_distractors31_l.png,l,f,2c,19,1,31,,,,,0,212,212,832,,,,,,,,,,,,,,,,,,,,,,,,,,,,,,,,,,,,,,,,,,,,,,,,,,,,,,,,,,,,,,,,,,,,,,,,,,,,451.6449631899959,None,space,1.8950771649979288,451.6449631899959,None,453.6140325230008,None,f,1,0.5022100560017861,453.6140325230008,None,454.14525496419594,None,None,454.14525496419594,None,,16,001,2021_Oct_07_1107,searchDisc4,2021.2.3,59.493268936269025,
images/exp2b_trial_78_colour3_distractors31_r.png,r,j,2b,78,3,31,,,,,0,213,213,699,,,,,,,,,,,,,,,,,,,,,,,,,,,,,,,,,,,,,,,,,,,,,,,,,,,,,,,,,,,,,,,,,,,,,,,,,,,,454.14532679200056,None,space,0.20277758400334278,454.14532679200056,None,454.4305973329974,None,j,1,0.7336765360014397,454.4305973329974,None,455.19454346319765,None,None,455.19454346319765,None,,16,001,2021_Oct_07_1107,searchDisc4,2021.2.3,59.493268936269025,
images/exp2c_trial_99_colour1_distractors19_r.png,r,j,2c,99,1,19,,,,,0,214,214,912,,,,,,,,,,,,,,,,,,,,,,,,,,,,,,,,,,,,,,,,,,,,,,,,,,,,,,,,,,,,,,,,,,,,,,,,,,,,455.1946623979966,None,space,0.4815739140030928,455.1946623979966,None,455.73621688099956,None,j,1,0.7640927530010231,455.73621688099956,None,456.52862122619774,None,None,456.52862122619774,None,,16,001,2021_Oct_07_1107,searchDisc4,2021.2.3,59.493268936269025,
images/exp1a_trial_185_colour3_distractors1_l.png,l,f,1a,185,3,1,,,,,0,215,215,230,,,,,,,,,,,,,,,,,,,,,,,,,,,,,,,,,,,,,,,,,,,,,,,,,,,,,,,,,,,,,,,,,,,,,,,,,,,,456.5284279010011,None,space,0.30782400199677795,456.5284279010011,None,456.90287500499835,None,f,1,0.5894788350051385,456.90287500499835,None,457.5115483311944,None,None,457.5115483311944,None,,16,001,2021_Oct_07_1107,searchDisc4,2021.2.3,59.493268936269025,
