ImageFile,targ_side,correctAnswer,colour,distNo,targetType,trials_2.thisRepN,trials_2.thisTrialN,trials_2.thisN,trials_2.thisIndex,trials.thisRepN,trials.thisTrialN,trials.thisN,trials.thisIndex,text_6.started,text_6.stopped,buttonBox.keys,buttonBox.rt,buttonBox.started,buttonBox.stopped,text_7.started,text_7.stopped,buttonBox_3.keys,buttonBox_3.rt,buttonBox_3.started,buttonBox_3.stopped,text_8.started,text_8.stopped,buttonBox_4.keys,buttonBox_4.rt,buttonBox_4.started,buttonBox_4.stopped,text_9.started,text_9.stopped,buttonBox_5.keys,buttonBox_5.rt,buttonBox_5.started,buttonBox_5.stopped,text_2.started,text_2.stopped,buttonBox_6.keys,buttonBox_6.rt,buttonBox_6.started,buttonBox_6.stopped,text_5.started,text_5.stopped,buttonBox_7.keys,buttonBox_7.rt,image_2.started,image_2.stopped,image_3.started,image_3.stopped,buttonBox_8.keys,buttonBox_8.rt,buttonBox_8.started,buttonBox_8.stopped,polygon.started,polygon.stopped,buttonBox_9.keys,buttonBox_9.rt,buttonBox_9.started,buttonBox_9.stopped,image.started,image.stopped,buttonBox_10.keys,buttonBox_10.corr,buttonBox_10.rt,buttonBox_10.started,buttonBox_10.stopped,text_4.started,text_4.stopped,text.started,text.stopped,buttonBox_11.keys,buttonBox_11.rt,buttonBox_11.started,buttonBox_11.stopped,targetTypeInstruction.started,targetTypeInstruction.stopped,buttonBox_2.keys,buttonBox_2.rt,buttonBox_2.started,buttonBox_2.stopped,dispStimuli.started,dispStimuli.stopped,buttonBox_12.keys,buttonBox_12.corr,buttonBox_12.rt,buttonBox_12.started,buttonBox_12.stopped,breakMessage.started,breakMessage.stopped,buttonBox_13.keys,buttonBox_13.started,buttonBox_13.stopped,buttonBox_13.rt,participant,session,date,expName,psychopyVersion,frameRate,
,,,,,,,,,,,,,,8.506639109000389,None,2,10.15483613700053,8.506639109000389,None,,,,,,,,,,,,,,,,,,,,,,,,,,,,,,,,,,,,,,,,,,,,,,,,,,,,,,,,,,,,,,,,,,,,,,,,,,,,,32,001,2022_Dec_12_1433,searchDisc5,2021.2.3,60.00064428736261,
,,,,,,,,,,,,,,,,,,,,18.657136519999767,None,2,5.216564242999084,18.657136519999767,None,,,,,,,,,,,,,,,,,,,,,,,,,,,,,,,,,,,,,,,,,,,,,,,,,,,,,,,,,,,,,,,,,,,,,,,32,001,2022_Dec_12_1433,searchDisc5,2021.2.3,60.00064428736261,
,,,,,,,,,,,,,,,,,,,,,,,,,,23.87394209299964,None,2,1.5974958349997905,23.87394209299964,None,,,,,,,,,,,,,,,,,,,,,,,,,,,,,,,,,,,,,,,,,,,,,,,,,,,,,,,,,,,,,,,,,32,001,2022_Dec_12_1433,searchDisc5,2021.2.3,60.00064428736261,
,,,,,,,,,,,,,,,,,,,,,,,,,,,,,,,,25.473807358999693,None,2,3.029327377998925,25.473807358999693,None,,,,,,,,,,,,,,,,,,,,,,,,,,,,,,,,,,,,,,,,,,,,,,,,,,,,,,,,,,,32,001,2022_Dec_12_1433,searchDisc5,2021.2.3,60.00064428736261,
,,,,,,,,,,,,,,,,,,,,,,,,,,,,,,,,,,,,,,28.505467191000207,None,2,4.9500688330008416,29.490139677000116,None,,,,,,,,,,,,,,,,,,,,,,,,,,,,,,,,,,,,,,,,,,,,,,,,,,,,,32,001,2022_Dec_12_1433,searchDisc5,2021.2.3,60.00064428736261,
,,,,,,,,,,,,,,,,,,,,,,,,,,,,,,,,,,,,,,,,,,,,34.4408740380004,None,2,6.081533987000512,,,,,,,,,,,,,,,,,,,,,,,,,,,,,,,,,,,,,,,,,,,,,,,,,32,001,2022_Dec_12_1433,searchDisc5,2021.2.3,60.00064428736261,
,,,,,,,,,,,,,,,,,,,,,,,,,,,,,,,,,,,,,,,,,,,,,,,,43.52257674199973,None,43.52257674199973,None,2,5.8144581070009735,43.52257674199973,None,,,,,,,,,,,,,,,,,,,,,,,,,,,,,,,,,,,,,,,,,32,001,2022_Dec_12_1433,searchDisc5,2021.2.3,60.00064428736261,
Practice arrays/exp1a_trial_30_colour0_distractors0_r.png,r,3,,,,0,0,0,14,,,,,,,,,,,,,,,,,,,,,,,,,,,,,,,,,,,,,,,,,,,,,,,49.35540156800016,None,2,1.536182635001751,49.35540156800016,None,50.9583561569998,None,3,1,0.8873470459984674,50.9583561569998,None,51.83879834500112,None,,,,,,,,,,,,,,,,,,,,,,,,,,32,001,2022_Dec_12_1433,searchDisc5,2021.2.3,60.00064428736261,
Practice arrays/exp1a_trial_27_colour3_distractors9_l.png,l,1,,,,0,1,1,12,,,,,,,,,,,,,,,,,,,,,,,,,,,,,,,,,,,,,,,,,,,,,,,53.8411820729998,None,2,0.5159169159996964,53.8411820729998,None,54.40609508000125,None,1,1,1.1982194430001982,54.40609508000125,None,55.60604803699971,None,,,,,,,,,,,,,,,,,,,,,,,,,,32,001,2022_Dec_12_1433,searchDisc5,2021.2.3,60.00064428736261,
Practice arrays/exp1a_trial_1_colour1_distractors4_r.png,r,3,,,,0,2,2,1,,,,,,,,,,,,,,,,,,,,,,,,,,,,,,,,,,,,,,,,,,,,,,,57.60825122599999,None,2,0.4991687420006201,57.60825122599999,None,58.157734972999606,None,3,1,0.8515359220000391,58.157734972999606,None,59.006329953001114,None,,,,,,,,,,,,,,,,,,,,,,,,,,32,001,2022_Dec_12_1433,searchDisc5,2021.2.3,60.00064428736261,
Practice arrays/exp1a_trial_12_colour3_distractors9_r.png,r,3,,,,0,3,3,5,,,,,,,,,,,,,,,,,,,,,,,,,,,,,,,,,,,,,,,,,,,,,,,61.00828443499995,None,2,0.4492844470005366,61.00828443499995,None,61.50850086900027,None,3,1,0.898365670000203,61.50850086900027,None,62.40627547599979,None,,,,,,,,,,,,,,,,,,,,,,,,,,32,001,2022_Dec_12_1433,searchDisc5,2021.2.3,60.00064428736261,
Practice arrays/exp1a_trial_10_colour3_distractors1_r.png,r,3,,,,0,4,4,4,,,,,,,,,,,,,,,,,,,,,,,,,,,,,,,,,,,,,,,,,,,,,,,64.40830906799965,None,2,0.4142274370005907,64.40830906799965,None,64.87286730000051,None,3,1,1.084801773999061,64.87286730000051,None,65.95589924600063,None,,,,,,,,,,,,,,,,,,,,,,,,,,32,001,2022_Dec_12_1433,searchDisc5,2021.2.3,60.00064428736261,
Practice arrays/exp1a_trial_31_colour0_distractors0_l.png,l,1,,,,0,5,5,15,,,,,,,,,,,,,,,,,,,,,,,,,,,,,,,,,,,,,,,,,,,,,,,67.95802406599978,None,2,0.49716347899993707,67.95802406599978,None,68.50625423200108,None,1,1,0.9547835079993092,68.50625423200108,None,69.45834341699992,None,,,,,,,,,,,,,,,,,,,,,,,,,,32,001,2022_Dec_12_1433,searchDisc5,2021.2.3,60.00064428736261,
Practice arrays/exp1a_trial_23_colour2_distractors19_l.png,l,1,,,,0,6,6,10,,,,,,,,,,,,,,,,,,,,,,,,,,,,,,,,,,,,,,,,,,,,,,,71.45805784000004,None,2,0.44934931799980404,71.45805784000004,None,71.9601858269998,None,1,1,1.0639904159997968,71.9601858269998,None,73.02314513800047,None,,,,,,,,,,,,,,,,,,,,,,,,,,32,001,2022_Dec_12_1433,searchDisc5,2021.2.3,60.00064428736261,
Practice arrays/exp1a_trial_14_colour3_distractors31_r.png,r,3,,,,0,7,7,6,,,,,,,,,,,,,,,,,,,,,,,,,,,,,,,,,,,,,,,,,,,,,,,75.02540180899996,None,2,0.3675264249995962,75.02540180899996,None,75.4458984619996,None,3,1,0.7109665160005534,75.4458984619996,None,76.15655921500002,None,,,,,,,,,,,,,,,,,,,,,,,,,,32,001,2022_Dec_12_1433,searchDisc5,2021.2.3,60.00064428736261,
Practice arrays/exp1a_trial_0_colour1_distractors1_r.png,r,3,,,,0,8,8,0,,,,,,,,,,,,,,,,,,,,,,,,,,,,,,,,,,,,,,,,,,,,,,,78.158795405001,None,2,0.4138712550011405,78.158795405001,None,78.62554786100009,None,3,1,0.8015747729987197,78.62554786100009,None,79.42324969600122,None,,,,,,,,,,,,,,,,,,,,,,,,,,32,001,2022_Dec_12_1433,searchDisc5,2021.2.3,60.00064428736261,
Practice arrays/exp1a_trial_21_colour2_distractors4_l.png,l,1,,,,0,9,9,9,,,,,,,,,,,,,,,,,,,,,,,,,,,,,,,,,,,,,,,,,,,,,,,81.42558150100012,None,2,0.4804728550006985,81.42558150100012,None,81.95848422699964,None,1,1,1.0150120119997155,81.95848422699964,None,82.97351141699983,None,,,,,,,,,,,,,,,,,,,,,,,,,,32,001,2022_Dec_12_1433,searchDisc5,2021.2.3,60.00064428736261,
Practice arrays/exp1a_trial_7_colour2_distractors9_r.png,r,3,,,,0,10,10,2,,,,,,,,,,,,,,,,,,,,,,,,,,,,,,,,,,,,,,,,,,,,,,,84.97562864700012,None,2,0.39679748799972003,84.97562864700012,None,85.42367700500108,None,1,0,1.1525688159999845,85.42367700500108,None,86.57557062100022,None,,,,,,,,,,,,,,,,,,,,,,,,,,32,001,2022_Dec_12_1433,searchDisc5,2021.2.3,60.00064428736261,
Practice arrays/exp1a_trial_8_colour2_distractors19_r.png,r,3,,,,0,11,11,3,,,,,,,,,,,,,,,,,,,,,,,,,,,,,,,,,,,,,,,,,,,,,,,88.59225484099989,None,2,0.5682234910000261,88.59225484099989,None,89.20648329700089,None,3,1,0.662664344001314,89.20648329700089,None,89.87365986199984,None,,,,,,,,,,,,,,,,,,,,,,,,,,32,001,2022_Dec_12_1433,searchDisc5,2021.2.3,60.00064428736261,
Practice arrays/exp1a_trial_17_colour1_distractors9_l.png,l,1,,,,0,12,12,7,,,,,,,,,,,,,,,,,,,,,,,,,,,,,,,,,,,,,,,,,,,,,,,91.87529979800092,None,2,0.396933297999567,91.87529979800092,None,92.32379839200075,None,1,1,1.3336883100000705,92.32379839200075,None,93.65704754500075,None,,,,,,,,,,,,,,,,,,,,,,,,,,32,001,2022_Dec_12_1433,searchDisc5,2021.2.3,60.00064428736261,
Practice arrays/exp1a_trial_18_colour1_distractors19_l.png,l,1,,,,0,13,13,8,,,,,,,,,,,,,,,,,,,,,,,,,,,,,,,,,,,,,,,,,,,,,,,95.6592099419995,None,2,0.46371799699954863,95.6592099419995,None,96.17594501700114,None,1,1,0.9491607489999296,96.17594501700114,None,97.123563698,None,,,,,,,,,,,,,,,,,,,,,,,,,,32,001,2022_Dec_12_1433,searchDisc5,2021.2.3,60.00064428736261,
Practice arrays/exp1a_trial_25_colour3_distractors1_l.png,l,1,,,,0,14,14,11,,,,,,,,,,,,,,,,,,,,,,,,,,,,,,,,,,,,,,,,,,,,,,,99.12588850999964,None,2,0.38435730900164344,99.12588850999964,None,99.55708237500039,None,1,1,1.1347336359995097,99.55708237500039,None,100.69270856399999,None,,,,,,,,,,,,,,,,,,,,,,,,,,32,001,2022_Dec_12_1433,searchDisc5,2021.2.3,60.00064428736261,
Practice arrays/exp1a_trial_16_colour1_distractors4_l.png,l,1,,,,0,15,15,13,,,,,,,,,,,,,,,,,,,,,,,,,,,,,,,,,,,,,,,,,,,,,,,102.69235629200011,None,2,0.4333559709994006,102.69235629200011,None,103.17641046599965,None,1,1,1.0637008260000584,103.17641046599965,None,104.24077242900057,None,,,,,,,,,,,,,,,,,,,,,,,,,,32,001,2022_Dec_12_1433,searchDisc5,2021.2.3,60.00064428736261,
,,,,,,,,,,,,,,,,,,,,,,,,,,,,,,,,,,,,,,,,,,,,,,,,,,,,,,,,,,,,,,,,,,,,,,,106.32598993600004,None,2,7.4658226070005185,107.30937936600094,None,,,,,,,,,,,,,,,,,,,,32,001,2022_Dec_12_1433,searchDisc5,2021.2.3,60.00064428736261,
images/exp2b_trial_289_colour1_distractors4_r.png,r,3,1,4,0,,,,,0,0,0,0,,,,,,,,,,,,,,,,,,,,,,,,,,,,,,,,,,,,,,,,,,,123.22422925399951,None,2,1.36441364699931,123.22422925399951,None,,,,,,,,,,,,,,,,115.37574573399979,None,2,5.864874308999788,117.35965045000012,None,124.65440106599999,None,3,1,0.7264933240003302,124.65440106599999,None,125.39164035199974,None,None,None,None,,32,001,2022_Dec_12_1433,searchDisc5,2021.2.3,60.00064428736261,
images/exp2c_trial_131_colour1_distractors19_r.png,r,3,1,19,0,,,,,0,1,1,1,,,,,,,,,,,,,,,,,,,,,,,,,,,,,,,,,,,,,,,,,,,125.40785674000108,None,2,0.7720305610000651,125.40785674000108,None,,,,,,,,,,,,,,,,None,None,None,,None,None,126.22681199399995,None,3,1,0.7843824789997598,126.22681199399995,None,127.00791650850078,None,None,None,None,,32,001,2022_Dec_12_1433,searchDisc5,2021.2.3,60.00064428736261,
images/exp2c_trial_156_colour3_distractors19_l.png,l,1,3,19,0,,,,,0,2,2,2,,,,,,,,,,,,,,,,,,,,,,,,,,,,,,,,,,,,,,,,,,,127.02400769900123,None,2,0.7012334510000073,127.02400769900123,None,,,,,,,,,,,,,,,,None,None,None,,None,None,127.77634247300011,None,1,1,0.835002286999952,127.77634247300011,None,128.60802351450002,None,None,None,None,,32,001,2022_Dec_12_1433,searchDisc5,2021.2.3,60.00064428736261,
images/exp2c_trial_25_colour3_distractors1_l.png,l,1,3,1,0,,,,,0,3,3,3,,,,,,,,,,,,,,,,,,,,,,,,,,,,,,,,,,,,,,,,,,,128.624722691,None,2,0.7204585740000766,128.624722691,None,,,,,,,,,,,,,,,,None,None,None,,None,None,129.39354084300066,None,1,1,1.0026165029994445,129.39354084300066,None,130.39161058850004,None,None,None,None,,32,001,2022_Dec_12_1433,searchDisc5,2021.2.3,60.00064428736261,
images/exp2c_trial_155_colour3_distractors9_l.png,l,1,3,9,0,,,,,0,4,4,4,,,,,,,,,,,,,,,,,,,,,,,,,,,,,,,,,,,,,,,,,,,130.40793722400122,None,2,0.6722645820009348,130.40793722400122,None,,,,,,,,,,,,,,,,None,None,None,,None,None,131.1268809840003,None,1,1,1.0193035900010727,131.1268809840003,None,132.14141184649998,None,None,None,None,,32,001,2022_Dec_12_1433,searchDisc5,2021.2.3,60.00064428736261,
images/exp2a_trial_92_colour3_distractors19_l.png,l,1,3,19,0,,,,,0,5,5,5,,,,,,,,,,,,,,,,,,,,,,,,,,,,,,,,,,,,,,,,,,,132.15755397700013,None,2,0.9682004779988347,132.15755397700013,None,,,,,,,,,,,,,,,,None,None,None,,None,None,133.17515554999954,None,1,1,1.0496343949998845,133.17515554999954,None,134.22455374449964,None,None,None,None,,32,001,2022_Dec_12_1433,searchDisc5,2021.2.3,60.00064428736261,
images/exp2a_trial_210_colour1_distractors19_l.png,l,1,1,19,0,,,,,0,6,6,6,,,,,,,,,,,,,,,,,,,,,,,,,,,,,,,,,,,,,,,,,,,134.2412772080006,None,2,2.287613419999616,134.2412772080006,None,,,,,,,,,,,,,,,,None,None,None,,None,None,136.57708646500032,None,1,1,1.1344818199995643,136.57708646500032,None,137.7082583145002,None,None,None,None,,32,001,2022_Dec_12_1433,searchDisc5,2021.2.3,60.00064428736261,
images/exp2b_trial_200_colour2_distractors19_r.png,r,3,2,19,0,,,,,0,7,7,7,,,,,,,,,,,,,,,,,,,,,,,,,,,,,,,,,,,,,,,,,,,137.72486384200056,None,2,1.3400535490000038,137.72486384200056,None,,,,,,,,,,,,,,,,None,None,None,,None,None,139.11058093300016,None,3,1,0.9646220969989372,139.11058093300016,None,140.07513577850114,None,None,None,None,,32,001,2022_Dec_12_1433,searchDisc5,2021.2.3,60.00064428736261,
images/exp2c_trial_134_colour2_distractors4_r.png,r,3,2,4,0,,,,,0,8,8,8,,,,,,,,,,,,,,,,,,,,,,,,,,,,,,,,,,,,,,,,,,,140.09149566199994,None,2,1.1876908879985422,140.09149566199994,None,,,,,,,,,,,,,,,,None,None,None,,None,None,141.3270823849998,None,3,1,0.9856882579988451,141.3270823849998,None,142.3082850715,None,None,None,None,,32,001,2022_Dec_12_1433,searchDisc5,2021.2.3,60.00064428736261,
images/exp1a_trial_206_colour3_distractors31_r.png,r,3,3,31,0,,,,,0,9,9,9,,,,,,,,,,,,,,,,,,,,,,,,,,,,,,,,,,,,,,,,,,,142.32492557000114,None,2,0.6568024160005734,142.32492557000114,None,,,,,,,,,,,,,,,,None,None,None,,None,None,143.02894003100118,None,3,1,1.0815804199992272,143.02894003100118,None,144.10842399549983,None,None,None,None,,32,001,2022_Dec_12_1433,searchDisc5,2021.2.3,60.00064428736261,
images/exp2c_trial_91_colour3_distractors9_l.png,l,1,3,9,0,,,,,0,10,10,10,,,,,,,,,,,,,,,,,,,,,,,,,,,,,,,,,,,,,,,,,,,144.12499076899985,None,2,0.5877223179995781,144.12499076899985,None,,,,,,,,,,,,,,,,None,None,None,,None,None,144.75792526700025,None,1,1,1.1335689970001113,144.75792526700025,None,145.89171512850044,None,None,None,None,,32,001,2022_Dec_12_1433,searchDisc5,2021.2.3,60.00064428736261,
images/exp2c_trial_298_colour3_distractors1_r.png,r,3,3,1,0,,,,,0,11,11,11,,,,,,,,,,,,,,,,,,,,,,,,,,,,,,,,,,,,,,,,,,,145.9081697319998,None,2,1.0564052419995278,145.9081697319998,None,,,,,,,,,,,,,,,,None,None,None,,None,None,147.01081803000125,None,3,1,4.301202029999331,147.01081803000125,None,151.30869951550085,None,None,None,None,,32,001,2022_Dec_12_1433,searchDisc5,2021.2.3,60.00064428736261,
images/exp2c_trial_297_colour2_distractors31_r.png,r,3,2,31,0,,,,,0,12,12,12,,,,,,,,,,,,,,,,,,,,,,,,,,,,,,,,,,,,,,,,,,,151.3255085310011,None,2,0.5401445949992194,151.3255085310011,None,,,,,,,,,,,,,,,,None,None,None,,None,None,151.90886206100004,None,3,1,0.7313869919998979,151.90886206100004,None,152.6420503975005,None,None,None,None,,32,001,2022_Dec_12_1433,searchDisc5,2021.2.3,60.00064428736261,
images/exp1a_trial_83_colour1_distractors31_l.png,l,1,1,31,0,,,,,0,13,13,13,,,,,,,,,,,,,,,,,,,,,,,,,,,,,,,,,,,,,,,,,,,152.65831056299976,None,2,0.5043528499991226,152.65831056299976,None,,,,,,,,,,,,,,,,None,None,None,,None,None,153.21528203300113,None,1,1,1.0769819140004984,153.21528203300113,None,154.29211417149963,None,None,None,None,,32,001,2022_Dec_12_1433,searchDisc5,2021.2.3,60.00064428736261,
images/exp2a_trial_25_colour3_distractors1_l.png,l,1,3,1,0,,,,,0,14,14,14,,,,,,,,,,,,,,,,,,,,,,,,,,,,,,,,,,,,,,,,,,,154.30864672999996,None,2,0.5545971570008987,154.30864672999996,None,,,,,,,,,,,,,,,,None,None,None,,None,None,154.9102669820004,None,1,1,0.733241960999294,154.9102669820004,None,155.64215630550098,None,None,None,None,,32,001,2022_Dec_12_1433,searchDisc5,2021.2.3,60.00064428736261,
images/exp2b_trial_58_colour3_distractors4_l.png,l,1,3,4,0,,,,,0,15,15,15,,,,,,,,,,,,,,,,,,,,,,,,,,,,,,,,,,,,,,,,,,,155.66024388699952,None,2,0.6233864480000193,155.66024388699952,None,,,,,,,,,,,,,,,,None,None,None,,None,None,156.32797727800062,None,1,1,0.6686720090001472,156.32797727800062,None,156.99230096249994,None,None,None,None,,32,001,2022_Dec_12_1433,searchDisc5,2021.2.3,60.00064428736261,
images/exp1a_trial_127_colour0_distractors0_l.png,l,1,0,0,0,,,,,0,16,16,16,,,,,,,,,,,,,,,,,,,,,,,,,,,,,,,,,,,,,,,,,,,157.00847330299985,None,2,0.6210887389988784,157.00847330299985,None,,,,,,,,,,,,,,,,None,None,None,,None,None,157.67548458900092,None,1,1,0.605840869999156,157.67548458900092,None,158.27555637250043,None,None,None,None,,32,001,2022_Dec_12_1433,searchDisc5,2021.2.3,60.00064428736261,
images/exp2b_trial_29_colour3_distractors31_l.png,l,1,3,31,0,,,,,0,17,17,17,,,,,,,,,,,,,,,,,,,,,,,,,,,,,,,,,,,,,,,,,,,158.29224869300015,None,2,0.5887530969994259,158.29224869300015,None,,,,,,,,,,,,,,,,None,None,None,,None,None,158.9255674520009,None,1,1,0.8997442970012344,158.9255674520009,None,159.82561076750062,None,None,None,None,,32,001,2022_Dec_12_1433,searchDisc5,2021.2.3,60.00064428736261,
images/exp1a_trial_233_colour2_distractors31_r.png,r,3,2,31,0,,,,,0,18,18,18,,,,,,,,,,,,,,,,,,,,,,,,,,,,,,,,,,,,,,,,,,,159.8422081000008,None,2,0.6221692979997897,159.8422081000008,None,,,,,,,,,,,,,,,,None,None,None,,None,None,160.50890433099994,None,3,1,0.6620736709992343,160.50890433099994,None,161.17564524750014,None,None,None,None,,32,001,2022_Dec_12_1433,searchDisc5,2021.2.3,60.00064428736261,
images/exp2b_trial_231_colour2_distractors9_r.png,r,3,2,9,0,,,,,0,19,19,19,,,,,,,,,,,,,,,,,,,,,,,,,,,,,,,,,,,,,,,,,,,161.19184370200128,None,2,0.6874704709989601,161.19184370200128,None,,,,,,,,,,,,,,,,None,None,None,,None,None,161.92556554600014,None,3,1,0.8375483060008264,161.92556554600014,None,162.76128545150095,None,None,None,None,,32,001,2022_Dec_12_1433,searchDisc5,2021.2.3,60.00064428736261,
images/exp2a_trial_273_colour1_distractors9_l.png,l,1,1,9,0,,,,,0,20,20,20,,,,,,,,,,,,,,,,,,,,,,,,,,,,,,,,,,,,,,,,,,,162.7777915300012,None,2,0.6687080520005111,162.7777915300012,None,,,,,,,,,,,,,,,,None,None,None,,None,None,163.49397566399966,None,1,1,0.5852074529993843,163.49397566399966,None,164.0754349555009,None,None,None,None,,32,001,2022_Dec_12_1433,searchDisc5,2021.2.3,60.00064428736261,
images/exp2a_trial_1_colour1_distractors4_r.png,r,3,1,4,0,,,,,0,21,21,21,,,,,,,,,,,,,,,,,,,,,,,,,,,,,,,,,,,,,,,,,,,164.09216425200066,None,2,0.8370268160015257,164.09216425200066,None,,,,,,,,,,,,,,,,None,None,None,,None,None,164.97534046200053,None,3,1,1.1539661590013566,164.97534046200053,None,166.12605821950092,None,None,None,None,,32,001,2022_Dec_12_1433,searchDisc5,2021.2.3,60.00064428736261,
images/exp2a_trial_310_colour2_distractors9_l.png,l,1,2,9,0,,,,,0,22,22,22,,,,,,,,,,,,,,,,,,,,,,,,,,,,,,,,,,,,,,,,,,,166.14423294399967,None,2,0.6226153610004985,166.14423294399967,None,,,,,,,,,,,,,,,,None,None,None,,None,None,166.81235796700093,None,1,1,0.5968152090008516,166.81235796700093,None,167.40909252550045,None,None,None,None,,32,001,2022_Dec_12_1433,searchDisc5,2021.2.3,60.00064428736261,
images/exp2b_trial_318_colour0_distractors0_r.png,r,3,0,0,0,,,,,0,23,23,23,,,,,,,,,,,,,,,,,,,,,,,,,,,,,,,,,,,,,,,,,,,167.42706761699992,None,2,0.6380596260005404,167.42706761699992,None,,,,,,,,,,,,,,,,None,None,None,,None,None,168.10938303200055,None,3,1,0.6206310409997968,168.10938303200055,None,168.7258457525004,None,None,None,None,,32,001,2022_Dec_12_1433,searchDisc5,2021.2.3,60.00064428736261,
images/exp2b_trial_259_colour1_distractors19_r.png,r,3,1,19,0,,,,,0,24,24,24,,,,,,,,,,,,,,,,,,,,,,,,,,,,,,,,,,,,,,,,,,,168.74219984699994,None,2,0.5567772610011161,168.74219984699994,None,,,,,,,,,,,,,,,,None,None,None,,None,None,169.34279439900092,None,3,1,0.8520790750008018,169.34279439900092,None,170.1926521485002,None,None,None,None,,32,001,2022_Dec_12_1433,searchDisc5,2021.2.3,60.00064428736261,
images/exp2b_trial_148_colour2_distractors1_l.png,l,1,2,1,0,,,,,0,25,25,25,,,,,,,,,,,,,,,,,,,,,,,,,,,,,,,,,,,,,,,,,,,170.208880563001,None,2,0.5705903650014079,170.208880563001,None,,,,,,,,,,,,,,,,None,None,None,,None,None,170.82747741000094,None,1,1,0.552635404999819,170.82747741000094,None,171.37581250550102,None,None,None,None,,32,001,2022_Dec_12_1433,searchDisc5,2021.2.3,60.00064428736261,
images/exp2c_trial_296_colour2_distractors19_r.png,r,3,2,19,0,,,,,0,26,26,26,,,,,,,,,,,,,,,,,,,,,,,,,,,,,,,,,,,,,,,,,,,171.39187015400057,None,2,0.5547733240000525,171.39187015400057,None,,,,,,,,,,,,,,,,None,None,None,,None,None,171.99456836600075,None,3,1,0.5493683219992818,171.99456836600075,None,172.54270639649985,None,None,None,None,,32,001,2022_Dec_12_1433,searchDisc5,2021.2.3,60.00064428736261,
images/exp2a_trial_142_colour3_distractors31_r.png,r,3,3,31,0,,,,,0,27,27,27,,,,,,,,,,,,,,,,,,,,,,,,,,,,,,,,,,,,,,,,,,,172.558817825,None,2,0.5713159249989985,172.558817825,None,,,,,,,,,,,,,,,,None,None,None,,None,None,173.17590447600014,None,3,1,0.8161712090004585,173.17590447600014,None,173.99263768550009,None,None,None,None,,32,001,2022_Dec_12_1433,searchDisc5,2021.2.3,60.00064428736261,
images/exp2c_trial_33_colour1_distractors4_r.png,r,3,1,4,0,,,,,0,28,28,28,,,,,,,,,,,,,,,,,,,,,,,,,,,,,,,,,,,,,,,,,,,174.00902687800044,None,2,0.5542995190007787,174.00902687800044,None,,,,,,,,,,,,,,,,None,None,None,,None,None,174.60919526500038,None,3,1,0.6537823180005944,174.60919526500038,None,175.2594892895013,None,None,None,None,,32,001,2022_Dec_12_1433,searchDisc5,2021.2.3,60.00064428736261,
images/exp2a_trial_150_colour2_distractors9_l.png,l,1,2,9,0,,,,,0,29,29,29,,,,,,,,,,,,,,,,,,,,,,,,,,,,,,,,,,,,,,,,,,,175.27556089000063,None,2,0.537434577001477,175.27556089000063,None,,,,,,,,,,,,,,,,None,None,None,,None,None,175.8611082410007,None,1,1,0.5989685299991834,175.8611082410007,None,176.45940076149964,None,None,None,None,,32,001,2022_Dec_12_1433,searchDisc5,2021.2.3,60.00064428736261,
images/exp2c_trial_88_colour2_distractors31_l.png,l,1,2,31,0,,,,,0,30,30,30,,,,,,,,,,,,,,,,,,,,,,,,,,,,,,,,,,,,,,,,,,,176.47814167900106,None,2,0.553489351999815,176.47814167900106,None,,,,,,,,,,,,,,,,None,None,None,,None,None,177.07575645900033,None,1,1,0.9700279770004272,177.07575645900033,None,178.04274824350068,None,None,None,None,,32,001,2022_Dec_12_1433,searchDisc5,2021.2.3,60.00064428736261,
images/exp2a_trial_279_colour2_distractors19_l.png,l,1,2,19,0,,,,,0,31,31,31,,,,,,,,,,,,,,,,,,,,,,,,,,,,,,,,,,,,,,,,,,,178.05916453999998,None,2,0.635566769999059,178.05916453999998,None,,,,,,,,,,,,,,,,None,None,None,,None,None,178.7419464120012,None,1,1,0.6444974719997845,178.7419464120012,None,179.3928438335006,None,None,None,None,,32,001,2022_Dec_12_1433,searchDisc5,2021.2.3,60.00064428736261,
images/exp1a_trial_198_colour2_distractors4_r.png,r,3,2,4,0,,,,,0,32,32,32,,,,,,,,,,,,,,,,,,,,,,,,,,,,,,,,,,,,,,,,,,,179.40916243600077,None,2,0.5398172230015916,179.40916243600077,None,,,,,,,,,,,,,,,,None,None,None,,None,None,179.99468029400123,None,3,1,0.5337342850016285,179.99468029400123,None,180.52615733650055,None,None,None,None,,32,001,2022_Dec_12_1433,searchDisc5,2021.2.3,60.00064428736261,
images/exp2c_trial_198_colour2_distractors4_r.png,r,3,2,4,0,,,,,0,33,33,33,,,,,,,,,,,,,,,,,,,,,,,,,,,,,,,,,,,,,,,,,,,180.54265341100108,None,2,0.5714401040004304,180.54265341100108,None,,,,,,,,,,,,,,,,None,None,None,,None,None,181.16086334400097,None,3,1,0.7029770919998555,181.16086334400097,None,181.85960477250046,None,None,None,None,,32,001,2022_Dec_12_1433,searchDisc5,2021.2.3,60.00064428736261,
images/exp2c_trial_121_colour3_distractors1_l.png,l,1,3,1,0,,,,,0,34,34,34,,,,,,,,,,,,,,,,,,,,,,,,,,,,,,,,,,,,,,,,,,,181.87593895999998,None,2,0.4562147550004738,181.87593895999998,None,,,,,,,,,,,,,,,,None,None,None,,None,None,182.37838384800125,None,1,1,0.8010851910003112,182.37838384800125,None,183.17552040050032,None,None,None,None,,32,001,2022_Dec_12_1433,searchDisc5,2021.2.3,60.00064428736261,
images/exp2c_trial_253_colour3_distractors31_l.png,l,1,3,31,0,,,,,0,35,35,35,,,,,,,,,,,,,,,,,,,,,,,,,,,,,,,,,,,,,,,,,,,183.19261201600057,None,2,0.5886488930009364,183.19261201600057,None,,,,,,,,,,,,,,,,None,None,None,,None,None,183.8262401330012,None,1,1,0.9854671310004051,183.8262401330012,None,184.80976112850112,None,None,None,None,,32,001,2022_Dec_12_1433,searchDisc5,2021.2.3,60.00064428736261,
images/exp2b_trial_124_colour3_distractors19_l.png,l,1,3,19,0,,,,,0,36,36,36,,,,,,,,,,,,,,,,,,,,,,,,,,,,,,,,,,,,,,,,,,,184.8256729780005,None,2,0.5692877639994549,184.8256729780005,None,,,,,,,,,,,,,,,,None,None,None,,None,None,185.44512410700008,None,1,1,0.7514419710005313,185.44512410700008,None,186.19221881550038,None,None,None,None,,32,001,2022_Dec_12_1433,searchDisc5,2021.2.3,60.00064428736261,
images/exp2b_trial_113_colour1_distractors9_l.png,l,1,1,9,0,,,,,0,37,37,37,,,,,,,,,,,,,,,,,,,,,,,,,,,,,,,,,,,,,,,,,,,186.209295355,None,2,0.6068216879993997,186.209295355,None,,,,,,,,,,,,,,,,None,None,None,,None,None,186.85973651899985,None,1,1,0.9351614500010328,186.85973651899985,None,187.79324665450076,None,None,None,None,,32,001,2022_Dec_12_1433,searchDisc5,2021.2.3,60.00064428736261,
images/exp1a_trial_74_colour3_distractors1_r.png,r,3,3,1,0,,,,,0,38,38,38,,,,,,,,,,,,,,,,,,,,,,,,,,,,,,,,,,,,,,,,,,,187.809340668,None,2,0.555456245001551,187.809340668,None,,,,,,,,,,,,,,,,None,None,None,,None,None,188.40906140600055,None,3,1,0.786385497000083,188.40906140600055,None,189.19316877550045,None,None,None,None,,32,001,2022_Dec_12_1433,searchDisc5,2021.2.3,60.00064428736261,
images/exp2a_trial_255_colour0_distractors0_l.png,l,1,0,0,0,,,,,0,39,39,39,,,,,,,,,,,,,,,,,,,,,,,,,,,,,,,,,,,,,,,,,,,189.2094073770004,None,2,0.589985976999742,189.2094073770004,None,,,,,,,,,,,,,,,,None,None,None,,None,None,189.84518064999975,None,1,1,0.6196023680004146,189.84518064999975,None,190.4598661175005,None,None,None,None,,32,001,2022_Dec_12_1433,searchDisc5,2021.2.3,60.00064428736261,
images/exp1a_trial_190_colour0_distractors0_r.png,r,3,0,0,0,,,,,0,40,40,40,,,,,,,,,,,,,,,,,,,,,,,,,,,,,,,,,,,,,,,,,,,190.47618757700002,None,2,0.5707424579995859,190.47618757700002,None,,,,,,,,,,,,,,,,None,None,None,,None,None,191.09322233500097,None,3,1,0.6212481300008221,191.09322233500097,None,191.70971351049957,None,None,None,None,,32,001,2022_Dec_12_1433,searchDisc5,2021.2.3,60.00064428736261,
images/exp2c_trial_125_colour3_distractors31_l.png,l,1,3,31,0,,,,,0,41,41,41,,,,,,,,,,,,,,,,,,,,,,,,,,,,,,,,,,,,,,,,,,,191.72566575600104,None,2,0.6205866960008279,191.72566575600104,None,,,,,,,,,,,,,,,,None,None,None,,None,None,192.3934130159996,None,1,1,0.6008598680000432,192.3934130159996,None,192.99305143150013,None,None,None,None,,32,001,2022_Dec_12_1433,searchDisc5,2021.2.3,60.00064428736261,
images/exp1a_trial_249_colour3_distractors1_l.png,l,1,3,1,0,,,,,0,42,42,42,,,,,,,,,,,,,,,,,,,,,,,,,,,,,,,,,,,,,,,,,,,193.00957975100027,None,2,0.6234428740008298,193.00957975100027,None,,,,,,,,,,,,,,,,None,None,None,,None,None,193.67850497400104,None,1,1,0.7026539319995209,193.67850497400104,None,194.37669152550006,None,None,None,None,,32,001,2022_Dec_12_1433,searchDisc5,2021.2.3,60.00064428736261,
images/exp2a_trial_99_colour1_distractors19_r.png,r,3,1,19,0,,,,,0,43,43,43,,,,,,,,,,,,,,,,,,,,,,,,,,,,,,,,,,,,,,,,,,,194.39294760400117,None,2,0.5878720520013303,194.39294760400117,None,,,,,,,,,,,,,,,,None,None,None,,None,None,195.0260351779998,None,3,1,0.767973477999476,195.0260351779998,None,195.79346988749967,None,None,None,None,,32,001,2022_Dec_12_1433,searchDisc5,2021.2.3,60.00064428736261,
images/exp2a_trial_250_colour3_distractors4_l.png,l,1,3,4,0,,,,,0,44,44,44,,,,,,,,,,,,,,,,,,,,,,,,,,,,,,,,,,,,,,,,,,,195.80976558200018,None,2,0.6208725680007774,195.80976558200018,None,,,,,,,,,,,,,,,,None,None,None,,None,None,196.47856101100115,None,1,1,0.536384420000104,196.47856101100115,None,197.0099303725001,None,None,None,None,,32,001,2022_Dec_12_1433,searchDisc5,2021.2.3,60.00064428736261,
images/exp2c_trial_158_colour0_distractors0_r.png,r,3,0,0,0,,,,,0,45,45,45,,,,,,,,,,,,,,,,,,,,,,,,,,,,,,,,,,,,,,,,,,,197.02636592199997,None,2,0.5712190129997907,197.02636592199997,None,,,,,,,,,,,,,,,,None,None,None,,None,None,197.64539676999993,None,3,1,0.6043734719987697,197.64539676999993,None,198.24337223549992,None,None,None,None,,32,001,2022_Dec_12_1433,searchDisc5,2021.2.3,60.00064428736261,
images/exp2b_trial_255_colour0_distractors0_l.png,l,1,0,0,0,,,,,0,46,46,46,,,,,,,,,,,,,,,,,,,,,,,,,,,,,,,,,,,,,,,,,,,198.26117272900046,None,2,0.5399045480007771,198.26117272900046,None,,,,,,,,,,,,,,,,None,None,None,,None,None,198.8453786810005,None,1,1,0.5843314650010143,198.8453786810005,None,199.4267371875012,None,None,None,None,,32,001,2022_Dec_12_1433,searchDisc5,2021.2.3,60.00064428736261,
images/exp2a_trial_247_colour2_distractors19_l.png,l,1,2,19,0,,,,,0,47,47,47,,,,,,,,,,,,,,,,,,,,,,,,,,,,,,,,,,,,,,,,,,,199.4429944120002,None,2,0.5709113279990561,199.4429944120002,None,,,,,,,,,,,,,,,,None,None,None,,None,None,200.05999677,None,1,1,1.6127840520002792,200.05999677,None,201.67681408550015,None,None,None,None,,32,001,2022_Dec_12_1433,searchDisc5,2021.2.3,60.00064428736261,
images/exp1a_trial_165_colour2_distractors1_r.png,r,3,2,1,0,,,,,0,48,48,48,,,,,,,,,,,,,,,,,,,,,,,,,,,,,,,,,,,,,,,,,,,201.69291576999967,None,2,0.6203668359994481,201.69291576999967,None,,,,,,,,,,,,,,,,None,None,None,,None,None,202.36233524400086,None,3,1,0.8208191859994258,202.36233524400086,None,203.17671012150095,None,None,None,None,,32,001,2022_Dec_12_1433,searchDisc5,2021.2.3,60.00064428736261,
images/exp2b_trial_295_colour2_distractors9_r.png,r,3,2,9,0,,,,,0,49,49,49,,,,,,,,,,,,,,,,,,,,,,,,,,,,,,,,,,,,,,,,,,,203.19322210000064,None,2,0.5378234850013541,203.19322210000064,None,,,,,,,,,,,,,,,,None,None,None,,None,None,203.77927696799998,None,3,1,0.7332977010009927,203.77927696799998,None,204.50982823950108,None,None,None,None,,32,001,2022_Dec_12_1433,searchDisc5,2021.2.3,60.00064428736261,
images/exp2c_trial_108_colour3_distractors9_r.png,r,3,3,9,0,,,,,0,50,50,50,,,,,,,,,,,,,,,,,,,,,,,,,,,,,,,,,,,,,,,,,,,204.52655714499997,None,2,0.5552958120006224,204.52655714499997,None,,,,,,,,,,,,,,,,None,None,None,,None,None,205.12684542200077,None,3,1,0.6342905740002607,205.12684542200077,None,205.75964369950088,None,None,None,None,,32,001,2022_Dec_12_1433,searchDisc5,2021.2.3,60.00064428736261,
images/exp1a_trial_282_colour3_distractors4_l.png,l,1,3,4,0,,,,,0,51,51,51,,,,,,,,,,,,,,,,,,,,,,,,,,,,,,,,,,,,,,,,,,,205.77691021700048,None,2,0.5549356319988874,205.77691021700048,None,,,,,,,,,,,,,,,,None,None,None,,None,None,206.37879514900123,None,1,1,0.9356268619994808,206.37879514900123,None,207.31009720850125,None,None,None,None,,32,001,2022_Dec_12_1433,searchDisc5,2021.2.3,60.00064428736261,
images/exp2b_trial_319_colour0_distractors0_l.png,l,1,0,0,0,,,,,0,52,52,52,,,,,,,,,,,,,,,,,,,,,,,,,,,,,,,,,,,,,,,,,,,207.32865275299991,None,2,0.5564422280003782,207.32865275299991,None,,,,,,,,,,,,,,,,None,None,None,,None,None,207.92899285800013,None,1,1,0.58556461200169,207.92899285800013,None,208.51036685250074,None,None,None,None,,32,001,2022_Dec_12_1433,searchDisc5,2021.2.3,60.00064428736261,
images/exp1a_trial_168_colour2_distractors19_r.png,r,3,2,19,0,,,,,0,53,53,53,,,,,,,,,,,,,,,,,,,,,,,,,,,,,,,,,,,,,,,,,,,208.52666353300083,None,2,0.5543847240005562,208.52666353300083,None,,,,,,,,,,,,,,,,None,None,None,,None,None,209.12672933000067,None,3,1,0.6489405749998696,209.12672933000067,None,209.77640842050096,None,None,None,None,,32,001,2022_Dec_12_1433,searchDisc5,2021.2.3,60.00064428736261,
images/exp2a_trial_36_colour1_distractors31_r.png,r,3,1,31,0,,,,,0,54,54,54,,,,,,,,,,,,,,,,,,,,,,,,,,,,,,,,,,,,,,,,,,,209.79365505200076,None,2,0.7718895409998368,209.79365505200076,None,,,,,,,,,,,,,,,,None,None,None,,None,None,210.61243726400062,None,3,1,1.23336209000081,210.61243726400062,None,211.84356761550043,None,None,None,None,,32,001,2022_Dec_12_1433,searchDisc5,2021.2.3,60.00064428736261,
images/exp2a_trial_159_colour0_distractors0_l.png,l,1,0,0,0,,,,,0,55,55,55,,,,,,,,,,,,,,,,,,,,,,,,,,,,,,,,,,,,,,,,,,,211.85965492099967,None,2,0.5566600430011022,211.85965492099967,None,,,,,,,,,,,,,,,,None,None,None,,None,None,212.4618838410006,None,1,1,0.6674427220004873,212.4618838410006,None,213.1269843045011,None,None,None,None,,32,001,2022_Dec_12_1433,searchDisc5,2021.2.3,60.00064428736261,
images/exp2c_trial_20_colour2_distractors1_l.png,l,1,2,1,0,,,,,0,56,56,56,,,,,,,,,,,,,,,,,,,,,,,,,,,,,,,,,,,,,,,,,,,213.1438499320011,None,2,0.6042792669995833,213.1438499320011,None,,,,,,,,,,,,,,,,None,None,None,,None,None,213.7951713679995,None,1,1,0.8542400059995998,213.7951713679995,None,214.64391070950114,None,None,None,None,,32,001,2022_Dec_12_1433,searchDisc5,2021.2.3,60.00064428736261,
images/exp1a_trial_213_colour2_distractors4_l.png,l,1,2,4,0,,,,,0,57,57,57,,,,,,,,,,,,,,,,,,,,,,,,,,,,,,,,,,,,,,,,,,,214.6621955720002,None,2,0.8707679729996016,214.6621955720002,None,,,,,,,,,,,,,,,,None,None,None,,None,None,215.5768377960012,None,1,1,0.7682887529990694,215.5768377960012,None,216.34380414550105,None,None,None,None,,32,001,2022_Dec_12_1433,searchDisc5,2021.2.3,60.00064428736261,
images/exp2c_trial_130_colour1_distractors9_r.png,r,3,1,9,0,,,,,0,58,58,58,,,,,,,,,,,,,,,,,,,,,,,,,,,,,,,,,,,,,,,,,,,216.36028094700123,None,2,0.5733247480002319,216.36028094700123,None,,,,,,,,,,,,,,,,None,None,None,,None,None,216.97735919800107,None,3,1,0.5501611859999684,216.97735919800107,None,217.52723044550112,None,None,None,None,,32,001,2022_Dec_12_1433,searchDisc5,2021.2.3,60.00064428736261,
images/exp2c_trial_178_colour1_distractors19_l.png,l,1,1,19,0,,,,,0,59,59,59,,,,,,,,,,,,,,,,,,,,,,,,,,,,,,,,,,,,,,,,,,,217.54358804200092,None,2,0.5376053050003975,217.54358804200092,None,,,,,,,,,,,,,,,,None,None,None,,None,None,218.12925281000025,None,1,1,0.7184687010012567,218.12925281000025,None,218.8440513735004,None,None,None,None,,32,001,2022_Dec_12_1433,searchDisc5,2021.2.3,60.00064428736261,
images/exp2b_trial_24_colour2_distractors31_l.png,l,1,2,31,0,,,,,0,60,60,60,,,,,,,,,,,,,,,,,,,,,,,,,,,,,,,,,,,,,,,,,,,218.86022857300122,None,2,0.5705028690008476,218.86022857300122,None,,,,,,,,,,,,,,,,None,None,None,,None,None,219.47933686100077,None,1,1,0.9681008329989709,219.47933686100077,None,220.44381449650064,None,None,None,None,,32,001,2022_Dec_12_1433,searchDisc5,2021.2.3,60.00064428736261,
images/exp1a_trial_148_colour2_distractors1_l.png,l,1,2,1,0,,,,,0,61,61,61,,,,,,,,,,,,,,,,,,,,,,,,,,,,,,,,,,,,,,,,,,,220.45988605800085,None,2,0.521448233999763,220.45988605800085,None,,,,,,,,,,,,,,,,None,None,None,,None,None,221.02650821899988,None,1,1,0.639347924001413,221.02650821899988,None,221.6626525165011,None,None,None,None,,32,001,2022_Dec_12_1433,searchDisc5,2021.2.3,60.00064428736261,
images/exp2c_trial_152_colour2_distractors31_l.png,l,1,2,31,0,,,,,0,62,62,62,,,,,,,,,,,,,,,,,,,,,,,,,,,,,,,,,,,,,,,,,,,221.6791110970007,None,2,0.5360094339994248,221.6791110970007,None,,,,,,,,,,,,,,,,None,None,None,,None,None,222.2629888650008,None,1,1,0.9169067500006349,222.2629888650008,None,223.17748131150074,None,None,None,None,,32,001,2022_Dec_12_1433,searchDisc5,2021.2.3,60.00064428736261,
images/exp1a_trial_277_colour2_distractors4_l.png,l,1,2,4,0,,,,,0,63,63,63,,,,,,,,,,,,,,,,,,,,,,,,,,,,,,,,,,,,,,,,,,,223.19345951800096,None,2,0.53790858299908,223.19345951800096,None,,,,,,,,,,,,,,,,None,None,None,,None,None,223.77732530200046,None,3,0,0.9027050330005295,223.77732530200046,None,224.67730481750004,None,None,None,None,,32,001,2022_Dec_12_1433,searchDisc5,2021.2.3,60.00064428736261,
images/exp1a_trial_43_colour3_distractors4_r.png,r,3,3,4,0,,,,,0,64,64,64,,,,,,,,,,,,,,,,,,,,,,,,,,,,,,,,,,,,,,,,,,,224.69379718500022,None,2,0.6047102859993174,224.69379718500022,None,,,,,,,,,,,,,,,,None,None,None,,None,None,225.34405290500035,None,3,1,0.7025581409998267,225.34405290500035,None,226.0432950585,None,None,None,None,,32,001,2022_Dec_12_1433,searchDisc5,2021.2.3,60.00064428736261,
images/exp2a_trial_44_colour3_distractors9_r.png,r,3,3,9,0,,,,,0,65,65,65,,,,,,,,,,,,,,,,,,,,,,,,,,,,,,,,,,,,,,,,,,,226.06247843799974,None,2,0.48889296499874035,226.06247843799974,None,,,,,,,,,,,,,,,,None,None,None,,None,None,226.59355709400006,None,1,0,1.286092178999752,226.59355709400006,None,227.87744219849992,None,None,None,None,,32,001,2022_Dec_12_1433,searchDisc5,2021.2.3,60.00064428736261,
images/exp1a_trial_229_colour2_distractors1_r.png,r,3,2,1,0,,,,,0,66,66,66,,,,,,,,,,,,,,,,,,,,,,,,,,,,,,,,,,,,,,,,,,,227.8939471779995,None,2,0.5729932289996214,227.8939471779995,None,,,,,,,,,,,,,,,,None,None,None,,None,None,228.51275906800038,None,3,1,0.9035043019994191,228.51275906800038,None,229.4109703664999,None,None,None,None,,32,001,2022_Dec_12_1433,searchDisc5,2021.2.3,60.00064428736261,
images/exp2c_trial_55_colour2_distractors19_l.png,l,1,2,19,0,,,,,0,67,67,67,,,,,,,,,,,,,,,,,,,,,,,,,,,,,,,,,,,,,,,,,,,229.4268279480002,None,2,0.4530169899990142,229.4268279480002,None,,,,,,,,,,,,,,,,None,None,None,,None,None,229.9268027880007,None,1,1,0.7654090949999954,229.9268027880007,None,230.69405100850054,None,None,None,None,,32,001,2022_Dec_12_1433,searchDisc5,2021.2.3,60.00064428736261,
images/exp1a_trial_119_colour2_distractors19_l.png,l,1,2,19,0,,,,,0,68,68,68,,,,,,,,,,,,,,,,,,,,,,,,,,,,,,,,,,,,,,,,,,,230.71261117300128,None,2,0.5568883169999026,230.71261117300128,None,,,,,,,,,,,,,,,,None,None,None,,None,None,231.31806707000032,None,1,1,1.0763157150013285,231.31806707000032,None,232.39414537050106,None,None,None,None,,32,001,2022_Dec_12_1433,searchDisc5,2021.2.3,60.00064428736261,
images/exp2c_trial_285_colour3_distractors31_l.png,l,1,3,31,0,,,,,0,69,69,69,,,,,,,,,,,,,,,,,,,,,,,,,,,,,,,,,,,,,,,,,,,232.4106779829999,None,2,0.4871905070012872,232.4106779829999,None,,,,,,,,,,,,,,,,None,None,None,,None,None,232.94348857899968,None,1,1,0.8643518240005506,232.94348857899968,None,233.81073038649993,None,None,None,None,,32,001,2022_Dec_12_1433,searchDisc5,2021.2.3,60.00064428736261,
images/exp2c_trial_52_colour2_distractors1_l.png,l,1,2,1,0,,,,,0,70,70,70,,,,,,,,,,,,,,,,,,,,,,,,,,,,,,,,,,,,,,,,,,,233.82889549600077,None,2,0.5379383929994219,233.82889549600077,None,,,,,,,,,,,,,,,,None,None,None,,None,None,234.42932408399975,None,1,1,0.7706782980003481,234.42932408399975,None,235.19372145350098,None,None,None,None,,32,001,2022_Dec_12_1433,searchDisc5,2021.2.3,60.00064428736261,
images/exp2b_trial_287_colour0_distractors0_l.png,l,1,0,0,0,,,,,0,71,71,71,,,,,,,,,,,,,,,,,,,,,,,,,,,,,,,,,,,,,,,,,,,235.21077504099958,None,2,0.5717326659996615,235.21077504099958,None,,,,,,,,,,,,,,,,None,None,None,,None,None,235.82909129400105,None,1,1,0.7368398889993841,235.82909129400105,None,236.56118426549983,None,None,None,None,,32,001,2022_Dec_12_1433,searchDisc5,2021.2.3,60.00064428736261,
images/exp2a_trial_95_colour0_distractors0_l.png,l,1,0,0,0,,,,,0,72,72,72,,,,,,,,,,,,,,,,,,,,,,,,,,,,,,,,,,,,,,,,,,,236.5773176269995,None,2,0.48777947800044785,236.5773176269995,None,,,,,,,,,,,,,,,,None,None,None,,None,None,237.1111252720002,None,1,1,0.5709521649987437,237.1111252720002,None,237.6778105885005,None,None,None,None,,32,001,2022_Dec_12_1433,searchDisc5,2021.2.3,60.00064428736261,
images/exp1a_trial_257_colour1_distractors4_r.png,r,3,1,4,0,,,,,0,73,73,73,,,,,,,,,,,,,,,,,,,,,,,,,,,,,,,,,,,,,,,,,,,237.69397716300045,None,2,0.5544994760002737,237.69397716300045,None,,,,,,,,,,,,,,,,None,None,None,,None,None,238.29593601800116,None,3,1,0.9202847769993241,238.29593601800116,None,239.2111057025013,None,None,None,None,,32,001,2022_Dec_12_1433,searchDisc5,2021.2.3,60.00064428736261,
images/exp2b_trial_116_colour2_distractors1_l.png,l,1,2,1,0,,,,,0,74,74,74,,,,,,,,,,,,,,,,,,,,,,,,,,,,,,,,,,,,,,,,,,,239.22703522700067,None,2,0.48968861200046376,239.22703522700067,None,,,,,,,,,,,,,,,,None,None,None,,None,None,239.762996509,None,1,1,0.819100441000046,239.762996509,None,240.5777495125003,None,None,None,None,,32,001,2022_Dec_12_1433,searchDisc5,2021.2.3,60.00064428736261,
images/exp1a_trial_101_colour2_distractors1_r.png,r,3,2,1,0,,,,,0,75,75,75,,,,,,,,,,,,,,,,,,,,,,,,,,,,,,,,,,,,,,,,,,,240.59430147000057,None,2,0.504457105000256,240.59430147000057,None,,,,,,,,,,,,,,,,None,None,None,,None,None,241.14626367399978,None,3,1,1.0816480279991083,241.14626367399978,None,242.22786999650089,None,None,None,None,,32,001,2022_Dec_12_1433,searchDisc5,2021.2.3,60.00064428736261,
images/exp2a_trial_154_colour3_distractors4_l.png,l,1,3,4,0,,,,,0,76,76,76,,,,,,,,,,,,,,,,,,,,,,,,,,,,,,,,,,,,,,,,,,,242.24371761600014,None,2,0.5379083980005817,242.24371761600014,None,,,,,,,,,,,,,,,,None,None,None,,None,None,242.8295173410006,None,1,1,0.7349073330005922,242.8295173410006,None,243.56109630250103,None,None,None,None,,32,001,2022_Dec_12_1433,searchDisc5,2021.2.3,60.00064428736261,
images/exp1a_trial_274_colour1_distractors19_l.png,l,1,1,19,0,,,,,0,77,77,77,,,,,,,,,,,,,,,,,,,,,,,,,,,,,,,,,,,,,,,,,,,243.57729844300047,None,2,0.48723452299964265,243.57729844300047,None,,,,,,,,,,,,,,,,None,None,None,,None,None,244.11111794600038,None,1,1,1.2669567270004336,244.11111794600038,None,245.37782946449988,None,None,None,None,,32,001,2022_Dec_12_1433,searchDisc5,2021.2.3,60.00064428736261,
images/exp2a_trial_82_colour1_distractors19_l.png,l,1,1,19,0,,,,,0,78,78,78,,,,,,,,,,,,,,,,,,,,,,,,,,,,,,,,,,,,,,,,,,,245.3943762380004,None,2,0.5378765010009374,245.3943762380004,None,,,,,,,,,,,,,,,,None,None,None,,None,None,245.9792992040002,None,1,1,0.868623579000996,245.9792992040002,None,246.84474545050034,None,None,None,None,,32,001,2022_Dec_12_1433,searchDisc5,2021.2.3,60.00064428736261,
images/exp1a_trial_315_colour3_distractors9_l.png,l,1,3,9,0,,,,,0,79,79,79,,,,,,,,,,,,,,,,,,,,,,,,,,,,,,,,,,,,,,,,,,,246.86057610200078,None,2,0.43987558299886587,246.86057610200078,None,,,,,,,,,,,,,,,,None,None,None,,None,None,247.34709933799968,None,1,1,0.6318579359995056,247.34709933799968,None,247.97795802450128,None,None,None,None,,32,001,2022_Dec_12_1433,searchDisc5,2021.2.3,60.00064428736261,
images/exp2a_trial_4_colour1_distractors31_r.png,r,3,1,31,0,,,,,0,80,80,80,,,,,,,,,,,,,,,,,,,,,,,,,,,,,,,,,,,,,,,,,,,247.99444751699957,None,2,0.43708967800012033,247.99444751699957,None,,,,,,,,,,,,,,,,None,None,None,,None,None,248.4799174159998,None,3,1,0.7831089669998619,248.4799174159998,None,249.26078108850015,None,None,None,None,,32,001,2022_Dec_12_1433,searchDisc5,2021.2.3,60.00064428736261,
images/exp2c_trial_271_colour1_distractors1_l.png,l,1,1,1,0,,,,,0,81,81,81,,,,,,,,,,,,,,,,,,,,,,,,,,,,,,,,,,,,,,,,,,,249.27778651100016,None,2,0.3714864880003006,249.27778651100016,None,,,,,,,,,,,,,,,,None,None,None,,None,None,249.69665331200122,None,1,1,0.7887227240007633,249.69665331200122,None,250.4780234304999,None,None,None,None,,32,001,2022_Dec_12_1433,searchDisc5,2021.2.3,60.00064428736261,
images/exp2b_trial_306_colour1_distractors19_l.png,l,1,1,19,0,,,,,0,82,82,82,,,,,,,,,,,,,,,,,,,,,,,,,,,,,,,,,,,,,,,,,,,250.49387227599982,None,2,0.5080956729998434,250.49387227599982,None,,,,,,,,,,,,,,,,None,None,None,,None,None,251.04664452500037,None,1,1,0.7329689849993883,251.04664452500037,None,251.7780101014996,None,None,None,None,,32,001,2022_Dec_12_1433,searchDisc5,2021.2.3,60.00064428736261,
images/exp2c_trial_95_colour0_distractors0_l.png,l,1,0,0,0,,,,,0,83,83,83,,,,,,,,,,,,,,,,,,,,,,,,,,,,,,,,,,,,,,,,,,,251.7960047050001,None,2,0.4232560439995723,251.7960047050001,None,,,,,,,,,,,,,,,,None,None,None,,None,None,252.26137705400106,None,1,1,0.6688224860008631,252.26137705400106,None,252.92778761950103,None,None,None,None,,32,001,2022_Dec_12_1433,searchDisc5,2021.2.3,60.00064428736261,
images/exp2c_trial_237_colour3_distractors19_r.png,r,3,3,19,0,,,,,0,84,84,84,,,,,,,,,,,,,,,,,,,,,,,,,,,,,,,,,,,,,,,,,,,252.94382071099972,None,2,0.42351692900047055,252.94382071099972,None,,,,,,,,,,,,,,,,None,None,None,,None,None,253.4137357790005,None,3,1,0.865825909000705,253.4137357790005,None,254.27809060649997,None,None,None,None,,32,001,2022_Dec_12_1433,searchDisc5,2021.2.3,60.00064428736261,
images/exp1a_trial_108_colour3_distractors9_r.png,r,3,3,9,0,,,,,0,85,85,85,,,,,,,,,,,,,,,,,,,,,,,,,,,,,,,,,,,,,,,,,,,254.29409325800043,None,2,0.4378788199992414,254.29409325800043,None,,,,,,,,,,,,,,,,None,None,None,,None,None,254.77774241800034,None,3,1,0.7497386920003919,254.77774241800034,None,255.52805698049997,None,None,None,None,,32,001,2022_Dec_12_1433,searchDisc5,2021.2.3,60.00064428736261,
images/exp2c_trial_80_colour1_distractors4_l.png,l,1,1,4,0,,,,,0,86,86,86,,,,,,,,,,,,,,,,,,,,,,,,,,,,,,,,,,,,,,,,,,,255.54449619099978,None,2,0.3712413809989812,255.54449619099978,None,,,,,,,,,,,,,,,,None,None,None,,None,None,255.96157620000122,None,1,1,0.9202192239990836,255.96157620000122,None,256.87813988650123,None,None,None,None,,32,001,2022_Dec_12_1433,searchDisc5,2021.2.3,60.00064428736261,
images/exp1a_trial_104_colour2_distractors19_r.png,r,3,2,19,0,,,,,0,87,87,87,,,,,,,,,,,,,,,,,,,,,,,,,,,,,,,,,,,,,,,,,,,256.89624949800054,None,2,0.3566784300001018,256.89624949800054,None,,,,,,,,,,,,,,,,None,None,None,,None,None,257.29990750900106,None,3,1,0.6969362609997916,257.29990750900106,None,257.99495611650127,None,None,None,None,,32,001,2022_Dec_12_1433,searchDisc5,2021.2.3,60.00064428736261,
images/exp2c_trial_180_colour2_distractors1_l.png,l,1,2,1,0,,,,,0,88,88,88,,,,,,,,,,,,,,,,,,,,,,,,,,,,,,,,,,,,,,,,,,,258.01318323800115,None,2,0.35285992300123326,258.01318323800115,None,,,,,,,,,,,,,,,,None,None,None,,None,None,258.41322883000066,None,1,1,0.6390297899997677,258.41322883000066,None,259.0449231325001,None,None,None,None,,32,001,2022_Dec_12_1433,searchDisc5,2021.2.3,60.00064428736261,
images/exp2b_trial_316_colour3_distractors19_l.png,l,1,3,19,0,,,,,0,89,89,89,,,,,,,,,,,,,,,,,,,,,,,,,,,,,,,,,,,,,,,,,,,259.0612215750007,None,2,0.3527189200012799,259.0612215750007,None,,,,,,,,,,,,,,,,None,None,None,,None,None,259.46091091699964,None,1,1,0.6348442290000094,259.46091091699964,None,260.09493583649964,None,None,None,None,,32,001,2022_Dec_12_1433,searchDisc5,2021.2.3,60.00064428736261,
images/exp2c_trial_217_colour3_distractors1_l.png,l,1,3,1,0,,,,,0,90,90,90,,,,,,,,,,,,,,,,,,,,,,,,,,,,,,,,,,,,,,,,,,,260.1105763659998,None,2,0.3533935570012545,260.1105763659998,None,,,,,,,,,,,,,,,,None,None,None,,None,None,260.5139613219999,None,1,1,0.6695976500013785,260.5139613219999,None,261.17831071550063,None,None,None,None,,32,001,2022_Dec_12_1433,searchDisc5,2021.2.3,60.00064428736261,
images/exp2c_trial_308_colour2_distractors1_l.png,l,1,2,1,0,,,,,0,91,91,91,,,,,,,,,,,,,,,,,,,,,,,,,,,,,,,,,,,,,,,,,,,261.1943177890007,None,2,0.32111951599836175,261.1943177890007,None,,,,,,,,,,,,,,,,None,None,None,,None,None,261.56168212800003,None,1,1,0.9161102239995671,261.56168212800003,None,262.4778240334999,None,None,None,None,,32,001,2022_Dec_12_1433,searchDisc5,2021.2.3,60.00064428736261,
images/exp1a_trial_162_colour1_distractors9_r.png,r,3,1,9,0,,,,,0,92,92,92,,,,,,,,,,,,,,,,,,,,,,,,,,,,,,,,,,,,,,,,,,,262.4948955889995,None,2,0.35585281400017266,262.4948955889995,None,,,,,,,,,,,,,,,,None,None,None,,None,None,262.8969813240001,None,3,1,0.7019615770004748,262.8969813240001,None,263.5949319445008,None,None,None,None,,32,001,2022_Dec_12_1433,searchDisc5,2021.2.3,60.00064428736261,
images/exp2a_trial_110_colour3_distractors31_r.png,r,3,3,31,0,,,,,0,93,93,93,,,,,,,,,,,,,,,,,,,,,,,,,,,,,,,,,,,,,,,,,,,263.6135333729999,None,2,0.35395324300043285,263.6135333729999,None,,,,,,,,,,,,,,,,None,None,None,,None,None,264.01322089800124,None,3,1,0.8006072730004234,264.01322089800124,None,264.81164365850054,None,None,None,None,,32,001,2022_Dec_12_1433,searchDisc5,2021.2.3,60.00064428736261,
images/exp1a_trial_224_colour1_distractors1_r.png,r,3,1,1,0,,,,,0,94,94,94,,,,,,,,,,,,,,,,,,,,,,,,,,,,,,,,,,,,,,,,,,,264.82768753600067,None,2,0.4878764040004171,264.82768753600067,None,,,,,,,,,,,,,,,,None,None,None,,None,None,265.3615932829998,None,3,1,1.0872187579989259,265.3615932829998,None,266.4451091895007,None,None,None,None,,32,001,2022_Dec_12_1433,searchDisc5,2021.2.3,60.00064428736261,
images/exp2a_trial_221_colour3_distractors31_l.png,l,1,3,31,0,,,,,0,95,95,95,,,,,,,,,,,,,,,,,,,,,,,,,,,,,,,,,,,,,,,,,,,266.4618271800009,None,2,0.7707594109997444,266.4618271800009,None,,,,,,,,,,,,,,,,None,None,None,,None,None,267.2805077860012,None,1,1,0.6838953970000148,267.2805077860012,None,267.96188278950103,None,None,None,None,,32,001,2022_Dec_12_1433,searchDisc5,2021.2.3,60.00064428736261,
images/exp2c_trial_77_colour3_distractors19_r.png,r,3,3,19,0,,,,,0,96,96,96,,,,,,,,,,,,,,,,,,,,,,,,,,,,,,,,,,,,,,,,,,,267.9777758380005,None,2,0.5211473449999176,267.9777758380005,None,,,,,,,,,,,,,,,,None,None,None,,None,None,268.54669884800023,None,3,1,0.6851064669990592,268.54669884800023,None,269.2285531235011,None,None,None,None,,32,001,2022_Dec_12_1433,searchDisc5,2021.2.3,60.00064428736261,
images/exp1a_trial_51_colour1_distractors31_l.png,l,1,1,31,0,,,,,0,97,97,97,,,,,,,,,,,,,,,,,,,,,,,,,,,,,,,,,,,,,,,,,,,269.2445933430008,None,2,0.4544011200014211,269.2445933430008,None,,,,,,,,,,,,,,,,None,None,None,,None,None,269.7447857700008,None,1,1,0.7484481400006189,269.7447857700008,None,270.4952929885003,None,None,None,None,,32,001,2022_Dec_12_1433,searchDisc5,2021.2.3,60.00064428736261,
images/exp2b_trial_72_colour2_distractors19_r.png,r,3,2,19,0,,,,,0,98,98,98,,,,,,,,,,,,,,,,,,,,,,,,,,,,,,,,,,,,,,,,,,,270.51153370800057,None,2,0.45663750900166633,270.51153370800057,None,,,,,,,,,,,,,,,,None,None,None,,None,None,271.011534999001,None,3,1,0.6164387089993397,271.011534999001,None,271.6286608874998,None,None,None,None,,32,001,2022_Dec_12_1433,searchDisc5,2021.2.3,60.00064428736261,
images/exp2a_trial_40_colour2_distractors19_r.png,r,3,2,19,0,,,,,0,99,99,99,,,,,,,,,,,,,,,,,,,,,,,,,,,,,,,,,,,,,,,,,,,271.6449667609995,None,2,0.43791441599933023,271.6449667609995,None,,,,,,,,,,,,,,,,None,None,None,,None,None,272.13469668000107,None,3,1,0.7788459860003059,272.13469668000107,None,272.91200453249985,None,None,None,None,,32,001,2022_Dec_12_1433,searchDisc5,2021.2.3,60.00064428736261,
images/exp2b_trial_45_colour3_distractors19_r.png,r,3,3,19,0,,,,,0,100,100,100,,,,,,,,,,,,,,,,,,,,,,,,,,,,,,,,,,,,,,,,,,,272.9298665850001,None,2,0.43606574600016756,272.9298665850001,None,,,,,,,,,,,,,,,,None,None,None,,None,None,273.41177632700055,None,3,1,0.6537597339993226,273.41177632700055,None,274.0619210345012,None,None,None,None,,32,001,2022_Dec_12_1433,searchDisc5,2021.2.3,60.00064428736261,
images/exp2b_trial_278_colour2_distractors9_l.png,l,1,2,9,0,,,,,0,101,101,101,,,,,,,,,,,,,,,,,,,,,,,,,,,,,,,,,,,,,,,,,,,274.0777833360007,None,2,0.3875516889984283,274.0777833360007,None,,,,,,,,,,,,,,,,None,None,None,,None,None,274.51361933800035,None,1,1,0.9013007419998758,274.51361933800035,None,275.41165551549966,None,None,None,None,,32,001,2022_Dec_12_1433,searchDisc5,2021.2.3,60.00064428736261,
images/exp2c_trial_245_colour2_distractors4_l.png,l,1,2,4,0,,,,,0,102,102,102,,,,,,,,,,,,,,,,,,,,,,,,,,,,,,,,,,,,,,,,,,,275.4284417359995,None,2,0.3866436039988912,275.4284417359995,None,,,,,,,,,,,,,,,,None,None,None,,None,None,275.86348032299975,None,1,1,0.654866643000787,275.86348032299975,None,276.5120142775013,None,None,None,None,,32,001,2022_Dec_12_1433,searchDisc5,2021.2.3,60.00064428736261,
images/exp2c_trial_311_colour2_distractors19_l.png,l,1,2,19,0,,,,,0,103,103,103,,,,,,,,,,,,,,,,,,,,,,,,,,,,,,,,,,,,,,,,,,,276.52793736900094,None,2,0.38707857400004286,276.52793736900094,None,,,,,,,,,,,,,,,,None,None,None,,None,None,276.96365727100056,None,1,1,1.035117673998684,276.96365727100056,None,277.9953629415013,None,None,None,None,,32,001,2022_Dec_12_1433,searchDisc5,2021.2.3,60.00064428736261,
images/exp2a_trial_180_colour2_distractors1_l.png,l,1,2,1,0,,,,,0,104,104,104,,,,,,,,,,,,,,,,,,,,,,,,,,,,,,,,,,,,,,,,,,,278.0113739900007,None,2,0.3879553919996397,278.0113739900007,None,,,,,,,,,,,,,,,,None,None,None,,None,None,278.445325951001,None,1,1,0.6044673349988443,278.445325951001,None,279.04488084449986,None,None,None,None,,32,001,2022_Dec_12_1433,searchDisc5,2021.2.3,60.00064428736261,
images/exp2c_trial_63_colour0_distractors0_l.png,l,1,0,0,0,,,,,0,105,105,105,,,,,,,,,,,,,,,,,,,,,,,,,,,,,,,,,,,,,,,,,,,279.0617983840002,None,2,0.35516101800021715,279.0617983840002,None,,,,,,,,,,,,,,,,None,None,None,,None,None,279.4615681530013,None,1,1,0.5546830759994918,279.4615681530013,None,280.0122512975013,None,None,None,None,,32,001,2022_Dec_12_1433,searchDisc5,2021.2.3,60.00064428736261,
images/exp2c_trial_207_colour1_distractors1_l.png,l,1,1,1,0,,,,,0,106,106,106,,,,,,,,,,,,,,,,,,,,,,,,,,,,,,,,,,,,,,,,,,,280.0284898150003,None,2,0.3564481789999263,280.0284898150003,None,,,,,,,,,,,,,,,,None,None,None,,None,None,280.430259357001,None,1,1,0.5191746710006555,280.430259357001,None,280.9455158715009,None,None,None,None,,32,001,2022_Dec_12_1433,searchDisc5,2021.2.3,60.00064428736261,
images/exp2b_trial_277_colour2_distractors4_l.png,l,1,2,4,0,,,,,0,107,107,107,,,,,,,,,,,,,,,,,,,,,,,,,,,,,,,,,,,,,,,,,,,280.9636217320003,None,2,0.3043784790006612,280.9636217320003,None,,,,,,,,,,,,,,,,None,None,None,,None,None,281.31129743400015,None,1,1,0.5372652420010127,281.31129743400015,None,281.8455811415006,None,None,None,None,,32,001,2022_Dec_12_1433,searchDisc5,2021.2.3,60.00064428736261,
images/exp2a_trial_13_colour3_distractors19_r.png,r,3,3,19,0,,,,,0,108,108,108,,,,,,,,,,,,,,,,,,,,,,,,,,,,,,,,,,,,,,,,,,,281.8616294530002,None,2,0.28777250799976173,281.8616294530002,None,,,,,,,,,,,,,,,,None,None,None,,None,None,282.19526030700035,None,3,1,0.7511377779992472,282.19526030700035,None,282.94545500050117,None,None,None,None,,32,001,2022_Dec_12_1433,searchDisc5,2021.2.3,60.00064428736261,
images/exp2b_trial_204_colour3_distractors9_r.png,r,3,3,9,0,,,,,0,109,109,109,,,,,,,,,,,,,,,,,,,,,,,,,,,,,,,,,,,,,,,,,,,282.9619939969998,None,2,0.33766511399880983,282.9619939969998,None,,,,,,,,,,,,,,,,None,None,None,,None,None,283.34541273099967,None,3,1,0.7518529310000304,283.34541273099967,None,284.09547375449984,None,None,None,None,,32,001,2022_Dec_12_1433,searchDisc5,2021.2.3,60.00064428736261,
images/exp2a_trial_243_colour1_distractors31_l.png,l,1,1,31,0,,,,,0,110,110,110,,,,,,,,,,,,,,,,,,,,,,,,,,,,,,,,,,,,,,,,,,,284.11201367099966,None,2,0.33769768199999817,284.11201367099966,None,,,,,,,,,,,,,,,,None,None,None,,None,None,284.49546253100016,None,1,1,0.6175458999987313,284.49546253100016,None,285.11178693250076,None,None,None,None,,32,001,2022_Dec_12_1433,searchDisc5,2021.2.3,60.00064428736261,
images/exp2b_trial_65_colour1_distractors4_r.png,r,3,1,4,0,,,,,0,111,111,111,,,,,,,,,,,,,,,,,,,,,,,,,,,,,,,,,,,,,,,,,,,285.12873183900047,None,2,0.3216572669989546,285.12873183900047,None,,,,,,,,,,,,,,,,None,None,None,,None,None,285.4957093820012,None,3,1,0.8683392410002853,285.4957093820012,None,286.3621754374999,None,None,None,None,,32,001,2022_Dec_12_1433,searchDisc5,2021.2.3,60.00064428736261,
images/exp2b_trial_270_colour3_distractors31_r.png,r,3,3,31,0,,,,,0,112,112,112,,,,,,,,,,,,,,,,,,,,,,,,,,,,,,,,,,,,,,,,,,,286.3781116250011,None,2,0.6713962529993296,286.3781116250011,None,,,,,,,,,,,,,,,,None,None,None,,None,None,287.09551224400093,None,3,1,1.101227809998818,287.09551224400093,None,288.1959288905,None,None,None,None,,32,001,2022_Dec_12_1433,searchDisc5,2021.2.3,60.00064428736261,
images/exp1a_trial_111_colour1_distractors1_l.png,l,1,1,1,0,,,,,0,113,113,113,,,,,,,,,,,,,,,,,,,,,,,,,,,,,,,,,,,,,,,,,,,288.2119357499996,None,2,0.45644678399912664,288.2119357499996,None,,,,,,,,,,,,,,,,None,None,None,,None,None,288.71447318100036,None,1,1,1.1024610860004032,288.71447318100036,None,289.81265128450104,None,None,None,None,,32,001,2022_Dec_12_1433,searchDisc5,2021.2.3,60.00064428736261,
images/exp2c_trial_218_colour3_distractors4_l.png,l,1,3,4,0,,,,,0,114,114,114,,,,,,,,,,,,,,,,,,,,,,,,,,,,,,,,,,,,,,,,,,,289.82896224900105,None,2,0.38732768800036865,289.82896224900105,None,,,,,,,,,,,,,,,,None,None,None,,None,None,290.26427985400005,None,1,1,1.020150234000539,290.26427985400005,None,291.2791722735001,None,None,None,None,,32,001,2022_Dec_12_1433,searchDisc5,2021.2.3,60.00064428736261,
images/exp1a_trial_292_colour1_distractors31_r.png,r,3,1,31,0,,,,,0,115,115,115,,,,,,,,,,,,,,,,,,,,,,,,,,,,,,,,,,,,,,,,,,,291.29742505000104,None,2,0.38900758100135135,291.29742505000104,None,,,,,,,,,,,,,,,,None,None,None,,None,None,291.7330868980007,None,3,1,1.1467510319998837,291.7330868980007,None,292.87907971750064,None,None,None,None,,32,001,2022_Dec_12_1433,searchDisc5,2021.2.3,60.00064428736261,
images/exp2b_trial_62_colour0_distractors0_r.png,r,3,0,0,0,,,,,0,116,116,116,,,,,,,,,,,,,,,,,,,,,,,,,,,,,,,,,,,,,,,,,,,292.8948701829995,None,2,0.8226856500004942,292.8948701829995,None,,,,,,,,,,,,,,,,None,None,None,,None,None,293.7645159950007,None,3,1,1.2009755870003573,293.7645159950007,None,294.96242280549995,None,None,None,None,,32,001,2022_Dec_12_1433,searchDisc5,2021.2.3,60.00064428736261,
images/exp1a_trial_14_colour3_distractors31_r.png,r,3,3,31,0,,,,,0,117,117,117,,,,,,,,,,,,,,,,,,,,,,,,,,,,,,,,,,,,,,,,,,,294.97841666100067,None,2,0.9045654569999897,294.97841666100067,None,,,,,,,,,,,,,,,,None,None,None,,None,None,295.92901832200005,None,3,1,0.5814082910001162,295.92901832200005,None,296.5125525305011,None,None,None,None,,32,001,2022_Dec_12_1433,searchDisc5,2021.2.3,60.00064428736261,
images/exp2b_trial_298_colour3_distractors1_r.png,r,3,3,1,0,,,,,0,118,118,118,,,,,,,,,,,,,,,,,,,,,,,,,,,,,,,,,,,,,,,,,,,296.5285555009996,None,2,0.5042943259995809,296.5285555009996,None,,,,,,,,,,,,,,,,None,None,None,,None,None,297.0810578340006,None,3,1,0.4859594190002099,297.0810578340006,None,297.56266588949984,None,None,None,None,,32,001,2022_Dec_12_1433,searchDisc5,2021.2.3,60.00064428736261,
images/exp2c_trial_191_colour0_distractors0_l.png,l,1,0,0,0,,,,,0,119,119,119,,,,,,,,,,,,,,,,,,,,,,,,,,,,,,,,,,,,,,,,,,,297.5788052509997,None,2,0.43975426599899947,297.5788052509997,None,,,,,,,,,,,,,,,,None,None,None,,None,None,298.06469622700024,None,1,1,0.6189400039984321,298.06469622700024,None,298.6793628405012,None,None,None,None,,32,001,2022_Dec_12_1433,searchDisc5,2021.2.3,60.00064428736261,
images/exp2c_trial_176_colour1_distractors4_l.png,l,1,1,4,0,,,,,0,120,120,120,,,,,,,,,,,,,,,,,,,,,,,,,,,,,,,,,,,,,,,,,,,298.69532610900023,None,2,0.3877607630001876,298.69532610900023,None,,,,,,,,,,,,,,,,None,None,None,,None,None,299.1293855109998,None,1,1,0.6037773030002427,299.1293855109998,None,299.7294209424999,None,None,None,None,,32,001,2022_Dec_12_1433,searchDisc5,2021.2.3,60.00064428736261,
images/exp2c_trial_104_colour2_distractors19_r.png,r,3,2,19,0,,,,,0,121,121,121,,,,,,,,,,,,,,,,,,,,,,,,,,,,,,,,,,,,,,,,,,,299.74557223900047,None,2,0.38737062200016226,299.74557223900047,None,,,,,,,,,,,,,,,,None,None,None,,None,None,300.1809204929996,None,3,1,0.6347969950002152,300.1809204929996,None,300.81274604350074,None,None,None,None,,32,001,2022_Dec_12_1433,searchDisc5,2021.2.3,60.00064428736261,
images/exp2a_trial_185_colour3_distractors1_l.png,l,1,3,1,0,,,,,0,122,122,122,,,,,,,,,,,,,,,,,,,,,,,,,,,,,,,,,,,,,,,,,,,300.8288939739996,None,2,0.3378581260003557,300.8288939739996,None,,,,,,,,,,,,,,,,None,None,None,,None,None,301.2126007300012,None,1,1,0.8041003149992321,301.2126007300012,None,302.01261787149997,None,None,None,None,,32,001,2022_Dec_12_1433,searchDisc5,2021.2.3,60.00064428736261,
images/exp2a_trial_264_colour2_distractors19_r.png,r,3,2,19,0,,,,,0,123,123,123,,,,,,,,,,,,,,,,,,,,,,,,,,,,,,,,,,,,,,,,,,,302.0305114769999,None,2,0.3213909620008053,302.0305114769999,None,,,,,,,,,,,,,,,,None,None,None,,None,None,302.39806426500036,None,3,1,0.6459998529990116,302.39806426500036,None,303.0462309395007,None,None,None,None,,32,001,2022_Dec_12_1433,searchDisc5,2021.2.3,60.00064428736261,
images/exp2c_trial_222_colour0_distractors0_r.png,r,3,0,0,0,,,,,0,124,124,124,,,,,,,,,,,,,,,,,,,,,,,,,,,,,,,,,,,,,,,,,,,303.06239806800113,None,2,0.28766994000034174,303.06239806800113,None,,,,,,,,,,,,,,,,None,None,None,,None,None,303.39602544400077,None,3,1,0.704320856000777,303.39602544400077,None,304.09609256850126,None,None,None,None,,32,001,2022_Dec_12_1433,searchDisc5,2021.2.3,60.00064428736261,
images/exp2c_trial_190_colour0_distractors0_r.png,r,3,0,0,0,,,,,0,125,125,125,,,,,,,,,,,,,,,,,,,,,,,,,,,,,,,,,,,,,,,,,,,304.1145017560011,None,2,0.23925699499886832,304.1145017560011,None,,,,,,,,,,,,,,,,None,None,None,,None,None,304.39618248400075,None,3,1,0.5364562249997107,304.39618248400075,None,304.929382681501,None,None,None,None,,32,001,2022_Dec_12_1433,searchDisc5,2021.2.3,60.00064428736261,
images/exp1a_trial_24_colour2_distractors31_l.png,l,1,2,31,0,,,,,0,126,126,126,,,,,,,,,,,,,,,,,,,,,,,,,,,,,,,,,,,,,,,,,,,304.9461332869996,None,2,0.2378633609987446,304.9461332869996,None,,,,,,,,,,,,,,,,None,None,None,,None,None,305.2330757290001,None,1,1,0.8130043199998909,305.2330757290001,None,306.0460910894999,None,None,None,None,,32,001,2022_Dec_12_1433,searchDisc5,2021.2.3,60.00064428736261,
images/exp1a_trial_211_colour1_distractors31_l.png,l,1,1,31,0,,,,,0,127,127,127,,,,,,,,,,,,,,,,,,,,,,,,,,,,,,,,,,,,,,,,,,,306.0622851420012,None,2,0.24021590599841147,306.0622851420012,None,,,,,,,,,,,,,,,,None,None,None,,None,None,306.34579284900065,None,1,1,0.7791686919990752,306.34579284900065,None,307.12960451850086,None,None,None,None,,32,001,2022_Dec_12_1433,searchDisc5,2021.2.3,60.00064428736261,
images/exp2a_trial_109_colour3_distractors19_r.png,r,3,3,19,0,,,,,0,128,128,128,,,,,,,,,,,,,,,,,,,,,,,,,,,,,,,,,,,,,,,,,,,307.14805281400004,None,2,0.2221992840004532,307.14805281400004,None,,,,,,,,,,,,,,,,None,None,None,,None,None,307.41483168500054,None,3,1,0.9350243239987321,307.41483168500054,None,308.3463901265004,None,None,None,None,,32,001,2022_Dec_12_1433,searchDisc5,2021.2.3,60.00064428736261,
images/exp1a_trial_204_colour3_distractors9_r.png,r,3,3,9,0,,,,,0,129,129,129,,,,,,,,,,,,,,,,,,,,,,,,,,,,,,,,,,,,,,,,,,,308.36337404500046,None,2,0.23666465899987088,308.36337404500046,None,,,,,,,,,,,,,,,,None,None,None,,None,None,308.6465326230009,None,3,1,0.6012511129993072,308.6465326230009,None,309.2463862655004,None,None,None,None,,32,001,2022_Dec_12_1433,searchDisc5,2021.2.3,60.00064428736261,
images/exp1a_trial_258_colour1_distractors9_r.png,r,3,1,9,0,,,,,0,130,130,130,,,,,,,,,,,,,,,,,,,,,,,,,,,,,,,,,,,,,,,,,,,309.26267900899984,None,2,0.22140773700084537,309.26267900899984,None,,,,,,,,,,,,,,,,None,None,None,,None,None,309.52965656500055,None,3,1,0.6007975180000358,309.52965656500055,None,310.1292651695003,None,None,None,None,,32,001,2022_Dec_12_1433,searchDisc5,2021.2.3,60.00064428736261,
images/exp2b_trial_164_colour1_distractors31_r.png,r,3,1,31,0,,,,,0,131,131,131,,,,,,,,,,,,,,,,,,,,,,,,,,,,,,,,,,,,,,,,,,,310.14676221100126,None,2,0.2380895820006117,310.14676221100126,None,,,,,,,,,,,,,,,,None,None,None,,None,None,310.4325303839996,None,3,1,0.6155425569995714,310.4325303839996,None,311.0463349564998,None,None,None,None,,32,001,2022_Dec_12_1433,searchDisc5,2021.2.3,60.00064428736261,
images/exp2c_trial_17_colour1_distractors9_l.png,l,1,1,9,0,,,,,0,132,132,132,,,,,,,,,,,,,,,,,,,,,,,,,,,,,,,,,,,,,,,,,,,311.0648489710002,None,2,0.2556721960008872,311.0648489710002,None,,,,,,,,,,,,,,,,None,None,None,,None,None,311.36299089299973,None,1,1,0.635674029999791,311.36299089299973,None,311.99696160950043,None,None,None,None,,32,001,2022_Dec_12_1433,searchDisc5,2021.2.3,60.00064428736261,
images/exp2b_trial_286_colour0_distractors0_r.png,r,3,0,0,0,,,,,0,133,133,133,,,,,,,,,,,,,,,,,,,,,,,,,,,,,,,,,,,,,,,,,,,312.013839610001,None,2,0.2874442590000399,312.013839610001,None,,,,,,,,,,,,,,,,None,None,None,,None,None,312.34900866300086,None,3,1,0.7046233620003477,312.34900866300086,None,313.0467862985006,None,None,None,None,,32,001,2022_Dec_12_1433,searchDisc5,2021.2.3,60.00064428736261,
images/exp1a_trial_56_colour2_distractors31_l.png,l,1,2,31,0,,,,,0,134,134,134,,,,,,,,,,,,,,,,,,,,,,,,,,,,,,,,,,,,,,,,,,,313.0636454249998,None,2,0.23960374099988258,313.0636454249998,None,,,,,,,,,,,,,,,,None,None,None,,None,None,313.3510819130006,None,1,1,0.6454319220010802,313.3510819130006,None,313.99653490449964,None,None,None,None,,32,001,2022_Dec_12_1433,searchDisc5,2021.2.3,60.00064428736261,
images/exp1a_trial_27_colour3_distractors9_l.png,l,1,3,9,0,,,,,0,135,135,135,,,,,,,,,,,,,,,,,,,,,,,,,,,,,,,,,,,,,,,,,,,314.0128098059995,None,2,0.23765666500003135,314.0128098059995,None,,,,,,,,,,,,,,,,None,None,None,,None,None,314.29731259800064,None,1,1,0.850609530998554,314.29731259800064,None,315.1463068285011,None,None,None,None,,32,001,2022_Dec_12_1433,searchDisc5,2021.2.3,60.00064428736261,
images/exp1a_trial_17_colour1_distractors9_l.png,l,1,1,9,0,,,,,0,136,136,136,,,,,,,,,,,,,,,,,,,,,,,,,,,,,,,,,,,,,,,,,,,315.16549910700087,None,2,0.20659142099975725,315.16549910700087,None,,,,,,,,,,,,,,,,None,None,None,,None,None,315.414439862001,None,1,1,0.7359859529988171,315.414439862001,None,316.14874405950104,None,None,None,None,,32,001,2022_Dec_12_1433,searchDisc5,2021.2.3,60.00064428736261,
images/exp1a_trial_153_colour3_distractors1_l.png,l,1,3,1,0,,,,,0,137,137,137,,,,,,,,,,,,,,,,,,,,,,,,,,,,,,,,,,,,,,,,,,,316.16384052000103,None,2,0.2689064589994814,316.16384052000103,None,,,,,,,,,,,,,,,,None,None,None,,None,None,316.4796329100009,None,1,1,0.6684036730002845,316.4796329100009,None,317.14651297050113,None,None,None,None,,32,001,2022_Dec_12_1433,searchDisc5,2021.2.3,60.00064428736261,
images/exp1a_trial_125_colour3_distractors31_l.png,l,1,3,31,0,,,,,0,138,138,138,,,,,,,,,,,,,,,,,,,,,,,,,,,,,,,,,,,,,,,,,,,317.1637028740006,None,2,0.2059553720009717,317.1637028740006,None,,,,,,,,,,,,,,,,None,None,None,,None,None,317.4136987720012,None,1,1,0.578904166999564,317.4136987720012,None,317.9964813565002,None,None,None,None,,32,001,2022_Dec_12_1433,searchDisc5,2021.2.3,60.00064428736261,
images/exp2c_trial_310_colour2_distractors9_l.png,l,1,2,9,0,,,,,0,139,139,139,,,,,,,,,,,,,,,,,,,,,,,,,,,,,,,,,,,,,,,,,,,318.0129951850013,None,2,0.23815292499966745,318.0129951850013,None,,,,,,,,,,,,,,,,None,None,None,,None,None,318.29737298500004,None,1,1,0.5187215440000728,318.29737298500004,None,318.81326795849964,None,None,None,None,,32,001,2022_Dec_12_1433,searchDisc5,2021.2.3,60.00064428736261,
images/exp2c_trial_273_colour1_distractors9_l.png,l,1,1,9,0,,,,,0,140,140,140,,,,,,,,,,,,,,,,,,,,,,,,,,,,,,,,,,,,,,,,,,,318.82972421700106,None,2,0.20531893000043056,318.82972421700106,None,,,,,,,,,,,,,,,,None,None,None,,None,None,319.0800810710007,None,1,1,0.567257939999763,319.0800810710007,None,319.6461083915001,None,None,None,None,,32,001,2022_Dec_12_1433,searchDisc5,2021.2.3,60.00064428736261,
images/exp2a_trial_181_colour2_distractors4_l.png,l,1,2,4,0,,,,,0,141,141,141,,,,,,,,,,,,,,,,,,,,,,,,,,,,,,,,,,,,,,,,,,,319.6639441710013,None,2,0.20506936099991435,319.6639441710013,None,,,,,,,,,,,,,,,,None,None,None,,None,None,319.91565519600044,None,1,1,0.7040054070002952,319.91565519600044,None,320.61404383650006,None,None,None,None,,32,001,2022_Dec_12_1433,searchDisc5,2021.2.3,60.00064428736261,
images/exp2b_trial_176_colour1_distractors4_l.png,l,1,1,4,0,,,,,0,142,142,142,,,,,,,,,,,,,,,,,,,,,,,,,,,,,,,,,,,,,,,,,,,320.62960292000025,None,2,0.22123814099904848,320.62960292000025,None,,,,,,,,,,,,,,,,None,None,None,,None,None,320.89956663200064,None,1,1,0.7191633540005569,320.89956663200064,None,321.61343468750056,None,None,None,None,,32,001,2022_Dec_12_1433,searchDisc5,2021.2.3,60.00064428736261,
images/exp1a_trial_25_colour3_distractors1_l.png,l,1,3,1,0,,,,,0,143,143,143,,,,,,,,,,,,,,,,,,,,,,,,,,,,,,,,,,,,,,,,,,,321.63109365200035,None,2,0.23739012599980924,321.63109365200035,None,,,,,,,,,,,,,,,,None,None,None,,None,None,321.913221058001,None,1,1,0.5528199799991853,321.913221058001,None,322.4634472934995,None,None,None,None,,32,001,2022_Dec_12_1433,searchDisc5,2021.2.3,60.00064428736261,
images/exp1a_trial_31_colour0_distractors0_l.png,l,1,0,0,0,,,,,0,144,144,144,,,,,,,,,,,,,,,,,,,,,,,,,,,,,,,,,,,,,,,,,,,322.47974085200076,None,2,0.18785504500010575,322.47974085200076,None,,,,,,,,,,,,,,,,None,None,None,,None,None,322.7157179250007,None,1,1,0.554741894999097,322.7157179250007,None,323.26341896150007,None,None,None,None,,32,001,2022_Dec_12_1433,searchDisc5,2021.2.3,60.00064428736261,
images/exp1a_trial_268_colour3_distractors9_r.png,r,3,3,9,0,,,,,0,145,145,145,,,,,,,,,,,,,,,,,,,,,,,,,,,,,,,,,,,,,,,,,,,323.2797786280007,None,2,0.20528790899879823,323.2797786280007,None,,,,,,,,,,,,,,,,None,None,None,,None,None,323.5326885100003,None,3,1,0.716041908999614,323.5326885100003,None,324.24670351250097,None,None,None,None,,32,001,2022_Dec_12_1433,searchDisc5,2021.2.3,60.00064428736261,
images/exp2c_trial_306_colour1_distractors19_l.png,l,1,1,19,0,,,,,0,146,146,146,,,,,,,,,,,,,,,,,,,,,,,,,,,,,,,,,,,,,,,,,,,324.26387960899956,None,2,0.254597343999194,324.26387960899956,None,,,,,,,,,,,,,,,,None,None,None,,None,None,324.56624321300114,None,1,1,0.6347571759997663,324.56624321300114,None,325.1967190185005,None,None,None,None,,32,001,2022_Dec_12_1433,searchDisc5,2021.2.3,60.00064428736261,
images/exp2a_trial_32_colour1_distractors1_r.png,r,3,1,1,0,,,,,0,147,147,147,,,,,,,,,,,,,,,,,,,,,,,,,,,,,,,,,,,,,,,,,,,325.21325824999985,None,2,0.20427501800077152,325.21325824999985,None,,,,,,,,,,,,,,,,None,None,None,,None,None,325.4643634380009,None,3,1,0.70307513699845,325.4643634380009,None,326.163523069501,None,None,None,None,,32,001,2022_Dec_12_1433,searchDisc5,2021.2.3,60.00064428736261,
images/exp2c_trial_243_colour1_distractors31_l.png,l,1,1,31,0,,,,,0,148,148,148,,,,,,,,,,,,,,,,,,,,,,,,,,,,,,,,,,,,,,,,,,,326.181897638,None,2,0.23794567400000233,326.181897638,None,,,,,,,,,,,,,,,,None,None,None,,None,None,326.46589938800025,None,1,1,0.69796895699983,326.46589938800025,None,327.1635192065005,None,None,None,None,,32,001,2022_Dec_12_1433,searchDisc5,2021.2.3,60.00064428736261,
images/exp1a_trial_145_colour1_distractors9_l.png,l,1,1,9,0,,,,,0,149,149,149,,,,,,,,,,,,,,,,,,,,,,,,,,,,,,,,,,,,,,,,,,,327.1804280569995,None,2,0.23805405200073437,327.1804280569995,None,,,,,,,,,,,,,,,,None,None,None,,None,None,327.4644240710004,None,1,1,0.7018865840000217,327.4644240710004,None,328.1635387565002,None,None,None,None,,32,001,2022_Dec_12_1433,searchDisc5,2021.2.3,60.00064428736261,
images/exp2b_trial_85_colour2_distractors4_l.png,l,1,2,4,0,,,,,0,150,150,150,,,,,,,,,,,,,,,,,,,,,,,,,,,,,,,,,,,,,,,,,,,328.1804580980006,None,2,0.18787583300036204,328.1804580980006,None,,,,,,,,,,,,,,,,None,None,None,,None,None,328.413893166,None,1,1,0.5536326110013761,328.413893166,None,328.9635235835012,None,None,None,None,,32,001,2022_Dec_12_1433,searchDisc5,2021.2.3,60.00064428736261,
images/exp2a_trial_102_colour2_distractors4_r.png,r,3,2,4,0,,,,,0,151,151,151,,,,,,,,,,,,,,,,,,,,,,,,,,,,,,,,,,,,,,,,,,,328.9826046020007,None,2,0.20442909900157247,328.9826046020007,None,,,,,,,,,,,,,,,,None,None,None,,None,None,329.2308415330008,None,3,1,0.9031894920008199,329.2308415330008,None,330.13027806850005,None,None,None,None,,32,001,2022_Dec_12_1433,searchDisc5,2021.2.3,60.00064428736261,
images/exp2c_trial_313_colour3_distractors1_l.png,l,1,3,1,0,,,,,0,152,152,152,,,,,,,,,,,,,,,,,,,,,,,,,,,,,,,,,,,,,,,,,,,330.1463290209995,None,2,0.2547697120007797,330.1463290209995,None,,,,,,,,,,,,,,,,None,None,None,,None,None,330.4466376649998,None,1,1,0.6350894429997425,330.4466376649998,None,331.0803159495008,None,None,None,None,,32,001,2022_Dec_12_1433,searchDisc5,2021.2.3,60.00064428736261,
images/exp2c_trial_246_colour2_distractors9_l.png,l,1,2,9,0,,,,,0,153,153,153,,,,,,,,,,,,,,,,,,,,,,,,,,,,,,,,,,,,,,,,,,,331.0966030689997,None,2,0.20729472399943916,331.0966030689997,None,,,,,,,,,,,,,,,,None,None,None,,None,None,331.34845861900067,None,1,1,0.5668409549998614,331.34845861900067,None,331.913468545501,None,None,None,None,,32,001,2022_Dec_12_1433,searchDisc5,2021.2.3,60.00064428736261,
images/exp1a_trial_10_colour3_distractors1_r.png,r,3,3,1,0,,,,,0,154,154,154,,,,,,,,,,,,,,,,,,,,,,,,,,,,,,,,,,,,,,,,,,,331.92993940400083,None,2,0.17139282199968875,331.92993940400083,None,,,,,,,,,,,,,,,,None,None,None,,None,None,332.14876111800004,None,1,0,0.5701383689993236,332.14876111800004,None,332.7146921955009,None,None,None,None,,32,001,2022_Dec_12_1433,searchDisc5,2021.2.3,60.00064428736261,
images/exp2a_trial_3_colour1_distractors19_r.png,r,3,1,19,0,,,,,0,155,155,155,,,,,,,,,,,,,,,,,,,,,,,,,,,,,,,,,,,,,,,,,,,332.7304883659999,None,2,0.5389078919997701,332.7304883659999,None,,,,,,,,,,,,,,,,None,None,None,,None,None,333.31557495800007,None,3,1,0.6161940719994163,333.31557495800007,None,333.9302887345002,None,None,None,None,,32,001,2022_Dec_12_1433,searchDisc5,2021.2.3,60.00064428736261,
images/exp2a_trial_50_colour1_distractors19_l.png,l,1,1,19,0,,,,,0,156,156,156,,,,,,,,,,,,,,,,,,,,,,,,,,,,,,,,,,,,,,,,,,,333.9471470820008,None,2,0.20476045800023712,333.9471470820008,None,,,,,,,,,,,,,,,,None,None,None,,None,None,334.19903715700093,None,1,1,0.7694194239993521,334.19903715700093,None,334.9647049075011,None,None,None,None,,32,001,2022_Dec_12_1433,searchDisc5,2021.2.3,60.00064428736261,
images/exp2b_trial_281_colour3_distractors1_l.png,l,1,3,1,0,,,,,0,157,157,157,,,,,,,,,,,,,,,,,,,,,,,,,,,,,,,,,,,,,,,,,,,334.98128483000073,None,2,0.1892985350004892,334.98128483000073,None,,,,,,,,,,,,,,,,None,None,None,,None,None,335.21432524900047,None,1,1,0.568310582999402,335.21432524900047,None,335.78034748450045,None,None,None,None,,32,001,2022_Dec_12_1433,searchDisc5,2021.2.3,60.00064428736261,
images/exp2a_trial_87_colour2_distractors19_l.png,l,1,2,19,0,,,,,0,158,158,158,,,,,,,,,,,,,,,,,,,,,,,,,,,,,,,,,,,,,,,,,,,335.79774760700093,None,2,0.18927895199885825,335.79774760700093,None,,,,,,,,,,,,,,,,None,None,None,,None,None,336.0365384500001,None,1,1,0.6104878160003864,336.0365384500001,None,336.6471186535,None,None,None,None,,32,001,2022_Dec_12_1433,searchDisc5,2021.2.3,60.00064428736261,
images/exp1a_trial_156_colour3_distractors19_l.png,l,1,3,19,0,,,,,0,159,159,159,,,,,,,,,,,,,,,,,,,,,,,,,,,,,,,,,,,,,,,,,,,336.6639217610009,None,2,0.18869844300024852,336.6639217610009,None,,,,,,,,,,,,,,,,None,None,None,,None,None,336.8992591440001,None,1,1,0.7166235820004658,336.8992591440001,None,337.61496060349964,None,None,None,None,,32,001,2022_Dec_12_1433,searchDisc5,2021.2.3,60.00064428736261,
images/exp2c_trial_238_colour3_distractors31_r.png,r,3,3,31,0,,,,,0,160,160,160,,,,,,,,,,,,,,,,,,,,,,,,,,,,,,,,,,,,,,,,,,,337.6308047149996,None,2,0.2391389620006521,337.6308047149996,None,,,,,,,,,,,,,,,,None,None,None,,None,None,337.9139377680003,None,3,1,0.7329519970007823,337.9139377680003,None,338.64822436050054,None,None,None,None,,32,001,2022_Dec_12_1433,searchDisc5,2021.2.3,60.00064428736261,
images/exp2a_trial_261_colour2_distractors1_r.png,r,3,2,1,0,,,,,0,161,161,161,,,,,,,,,,,,,,,,,,,,,,,,,,,,,,,,,,,,,,,,,,,338.6661523820003,None,2,0.2201843380007631,338.6661523820003,None,,,,,,,,,,,,,,,,None,None,None,,None,None,338.9335497160009,None,3,1,0.6547232860011718,338.9335497160009,None,339.58126587350125,None,None,None,None,,32,001,2022_Dec_12_1433,searchDisc5,2021.2.3,60.00064428736261,
images/exp1a_trial_275_colour1_distractors31_l.png,l,1,1,31,0,,,,,0,162,162,162,,,,,,,,,,,,,,,,,,,,,,,,,,,,,,,,,,,,,,,,,,,339.5965672279999,None,2,0.18907854099961696,339.5965672279999,None,,,,,,,,,,,,,,,,None,None,None,,None,None,339.83342890099993,None,1,1,0.7966602169999533,339.83342890099993,None,340.6304637414996,None,None,None,None,,32,001,2022_Dec_12_1433,searchDisc5,2021.2.3,60.00064428736261,
images/exp2b_trial_180_colour2_distractors1_l.png,l,1,2,1,0,,,,,0,163,163,163,,,,,,,,,,,,,,,,,,,,,,,,,,,,,,,,,,,,,,,,,,,340.6477761360002,None,2,0.17172211700017215,340.6477761360002,None,,,,,,,,,,,,,,,,None,None,None,,None,None,340.864045018001,None,1,1,0.636958314000367,340.864045018001,None,341.49723389249993,None,None,None,None,,32,001,2022_Dec_12_1433,searchDisc5,2021.2.3,60.00064428736261,
images/exp2b_trial_303_colour1_distractors1_l.png,l,1,1,1,0,,,,,0,164,164,164,,,,,,,,,,,,,,,,,,,,,,,,,,,,,,,,,,,,,,,,,,,341.51416655899993,None,2,0.17113301700010197,341.51416655899993,None,,,,,,,,,,,,,,,,None,None,None,,None,None,341.73267978399963,None,1,1,0.720951666999099,341.73267978399963,None,342.4472086015012,None,None,None,None,,32,001,2022_Dec_12_1433,searchDisc5,2021.2.3,60.00064428736261,
images/exp2c_trial_149_colour2_distractors4_l.png,l,1,2,4,0,,,,,0,165,165,165,,,,,,,,,,,,,,,,,,,,,,,,,,,,,,,,,,,,,,,,,,,342.46368618199995,None,2,0.23982287099897803,342.46368618199995,None,,,,,,,,,,,,,,,,None,None,None,,None,None,342.75009133599997,None,1,1,0.6167223949996696,342.75009133599997,None,343.3638448285001,None,None,None,None,,32,001,2022_Dec_12_1433,searchDisc5,2021.2.3,60.00064428736261,
images/exp2c_trial_23_colour2_distractors19_l.png,l,1,2,19,0,,,,,0,166,166,166,,,,,,,,,,,,,,,,,,,,,,,,,,,,,,,,,,,,,,,,,,,343.3805725780003,None,2,0.2045209910011181,343.3805725780003,None,,,,,,,,,,,,,,,,None,None,None,,None,None,343.63260310400074,None,1,1,0.7880778550006653,343.63260310400074,None,344.4139550805012,None,None,None,None,,32,001,2022_Dec_12_1433,searchDisc5,2021.2.3,60.00064428736261,
images/exp1a_trial_21_colour2_distractors4_l.png,l,1,2,4,0,,,,,0,167,167,167,,,,,,,,,,,,,,,,,,,,,,,,,,,,,,,,,,,,,,,,,,,344.4308989170004,None,2,0.20424476300104288,344.4308989170004,None,,,,,,,,,,,,,,,,None,None,None,,None,None,344.6831883440009,None,1,1,0.5846481490007136,344.6831883440009,None,345.26396657450096,None,None,None,None,,32,001,2022_Dec_12_1433,searchDisc5,2021.2.3,60.00064428736261,
images/exp2a_trial_118_colour2_distractors9_l.png,l,1,2,9,0,,,,,0,168,168,168,,,,,,,,,,,,,,,,,,,,,,,,,,,,,,,,,,,,,,,,,,,345.2813101840002,None,2,0.20368277300076443,345.2813101840002,None,,,,,,,,,,,,,,,,None,None,None,,None,None,345.5307730780005,None,1,1,0.5989353850000043,345.5307730780005,None,346.1298587705005,None,None,None,None,,32,001,2022_Dec_12_1433,searchDisc5,2021.2.3,60.00064428736261,
images/exp2b_trial_246_colour2_distractors9_l.png,l,1,2,9,0,,,,,0,169,169,169,,,,,,,,,,,,,,,,,,,,,,,,,,,,,,,,,,,,,,,,,,,346.14753170900076,None,2,0.2234876210004586,346.14753170900076,None,,,,,,,,,,,,,,,,None,None,None,,None,None,346.41589553999984,None,1,1,0.586770545998661,346.41589553999984,None,346.9982906055011,None,None,None,None,,32,001,2022_Dec_12_1433,searchDisc5,2021.2.3,60.00064428736261,
images/exp2a_trial_89_colour3_distractors1_l.png,l,1,3,1,0,,,,,0,170,170,170,,,,,,,,,,,,,,,,,,,,,,,,,,,,,,,,,,,,,,,,,,,347.01379565500065,None,2,0.17029700599960051,347.01379565500065,None,,,,,,,,,,,,,,,,None,None,None,,None,None,347.23339946099986,None,1,1,0.5701684479990945,347.23339946099986,None,347.79859386250064,None,None,None,None,,32,001,2022_Dec_12_1433,searchDisc5,2021.2.3,60.00064428736261,
images/exp1a_trial_159_colour0_distractors0_l.png,l,1,0,0,0,,,,,0,171,171,171,,,,,,,,,,,,,,,,,,,,,,,,,,,,,,,,,,,,,,,,,,,347.81393878400013,None,2,0.2042021349989227,347.81393878400013,None,,,,,,,,,,,,,,,,None,None,None,,None,None,348.0641061240003,None,1,1,0.5698255320003227,348.0641061240003,None,348.6307437025007,None,None,None,None,,32,001,2022_Dec_12_1433,searchDisc5,2021.2.3,60.00064428736261,
images/exp2a_trial_200_colour2_distractors19_r.png,r,3,2,19,0,,,,,0,172,172,172,,,,,,,,,,,,,,,,,,,,,,,,,,,,,,,,,,,,,,,,,,,348.6478591260002,None,2,0.22414811899943743,348.6478591260002,None,,,,,,,,,,,,,,,,None,None,None,,None,None,348.92176773600113,None,3,1,0.7080438880002475,348.92176773600113,None,349.6300337465,None,None,None,None,,32,001,2022_Dec_12_1433,searchDisc5,2021.2.3,60.00064428736261,
images/exp2a_trial_270_colour3_distractors31_r.png,r,3,3,31,0,,,,,0,173,173,173,,,,,,,,,,,,,,,,,,,,,,,,,,,,,,,,,,,,,,,,,,,349.64805054499993,None,2,0.2562093080014165,349.64805054499993,None,,,,,,,,,,,,,,,,None,None,None,,None,None,349.9480409810003,None,3,1,0.533264366998992,349.9480409810003,None,350.4804723795005,None,None,None,None,,32,001,2022_Dec_12_1433,searchDisc5,2021.2.3,60.00064428736261,
images/exp2b_trial_134_colour2_distractors4_r.png,r,3,2,4,0,,,,,0,174,174,174,,,,,,,,,,,,,,,,,,,,,,,,,,,,,,,,,,,,,,,,,,,350.4995243320009,None,2,0.2078701580012421,350.4995243320009,None,,,,,,,,,,,,,,,,None,None,None,,None,None,350.7474163520001,None,3,1,0.4830210950003675,350.7474163520001,None,351.2301910825008,None,None,None,None,,32,001,2022_Dec_12_1433,searchDisc5,2021.2.3,60.00064428736261,
images/exp2b_trial_247_colour2_distractors19_l.png,l,1,2,19,0,,,,,0,175,175,175,,,,,,,,,,,,,,,,,,,,,,,,,,,,,,,,,,,,,,,,,,,351.2471712309998,None,2,0.20531564599878038,351.2471712309998,None,,,,,,,,,,,,,,,,None,None,None,,None,None,351.4980339980011,None,1,1,0.7664830049998272,351.4980339980011,None,352.264107094501,None,None,None,None,,32,001,2022_Dec_12_1433,searchDisc5,2021.2.3,60.00064428736261,
images/exp2c_trial_227_colour1_distractors19_r.png,r,3,1,19,0,,,,,0,176,176,176,,,,,,,,,,,,,,,,,,,,,,,,,,,,,,,,,,,,,,,,,,,352.2812150810005,None,2,0.22128595300091547,352.2812150810005,None,,,,,,,,,,,,,,,,None,None,None,,None,None,352.549456318,None,3,1,0.6834564410000894,352.549456318,None,353.23072261250127,None,None,None,None,,32,001,2022_Dec_12_1433,searchDisc5,2021.2.3,60.00064428736261,
images/exp1a_trial_210_colour1_distractors19_l.png,l,1,1,19,0,,,,,0,177,177,177,,,,,,,,,,,,,,,,,,,,,,,,,,,,,,,,,,,,,,,,,,,353.24774736499967,None,2,0.20560640999974567,353.24774736499967,None,,,,,,,,,,,,,,,,None,None,None,,None,None,353.50007420099973,None,1,1,0.6806925279997813,353.50007420099973,None,354.18101735250093,None,None,None,None,,32,001,2022_Dec_12_1433,searchDisc5,2021.2.3,60.00064428736261,
images/exp2b_trial_239_colour1_distractors1_l.png,l,1,1,1,0,,,,,0,178,178,178,,,,,,,,,,,,,,,,,,,,,,,,,,,,,,,,,,,,,,,,,,,354.1979755579996,None,2,0.22397389600155293,354.1979755579996,None,,,,,,,,,,,,,,,,None,None,None,,None,None,354.46678959100063,None,1,1,0.7994437180004752,354.46678959100063,None,355.2642245605002,None,None,None,None,,32,001,2022_Dec_12_1433,searchDisc5,2021.2.3,60.00064428736261,
images/exp1a_trial_23_colour2_distractors19_l.png,l,1,2,19,0,,,,,0,179,179,179,,,,,,,,,,,,,,,,,,,,,,,,,,,,,,,,,,,,,,,,,,,355.2815386149996,None,2,0.3709500940003636,355.2815386149996,None,,,,,,,,,,,,,,,,None,None,None,,None,None,355.6984018250005,None,1,1,0.5325570800014248,355.6984018250005,None,356.23091391150047,None,None,None,None,,32,001,2022_Dec_12_1433,searchDisc5,2021.2.3,60.00064428736261,
images/exp2a_trial_254_colour0_distractors0_r.png,r,3,0,0,0,,,,,0,180,180,180,,,,,,,,,,,,,,,,,,,,,,,,,,,,,,,,,,,,,,,,,,,356.24943903700114,None,2,0.17193559299994376,356.24943903700114,None,,,,,,,,,,,,,,,,None,None,None,,None,None,356.46656187699955,None,3,1,0.7182983809998404,356.46656187699955,None,357.1809457194995,None,None,None,None,,32,001,2022_Dec_12_1433,searchDisc5,2021.2.3,60.00064428736261,
images/exp2a_trial_198_colour2_distractors4_r.png,r,3,2,4,0,,,,,0,181,181,181,,,,,,,,,,,,,,,,,,,,,,,,,,,,,,,,,,,,,,,,,,,357.19640798600085,None,2,0.18784939099896292,357.19640798600085,None,,,,,,,,,,,,,,,,None,None,None,,None,None,357.43316003400105,None,3,1,0.49989386099878175,357.43316003400105,None,357.9309659544997,None,None,None,None,,32,001,2022_Dec_12_1433,searchDisc5,2021.2.3,60.00064428736261,
images/exp2a_trial_316_colour3_distractors19_l.png,l,1,3,19,0,,,,,0,182,182,182,,,,,,,,,,,,,,,,,,,,,,,,,,,,,,,,,,,,,,,,,,,357.9479878490001,None,2,0.20459596000000602,357.9479878490001,None,,,,,,,,,,,,,,,,None,None,None,,None,None,358.19971515700126,None,3,0,0.6352847210000618,358.19971515700126,None,358.8311347154995,None,None,None,None,,32,001,2022_Dec_12_1433,searchDisc5,2021.2.3,60.00064428736261,
images/exp2b_trial_66_colour1_distractors9_r.png,r,3,1,9,0,,,,,0,183,183,183,,,,,,,,,,,,,,,,,,,,,,,,,,,,,,,,,,,,,,,,,,,358.8480314820008,None,2,0.24062978500114696,358.8480314820008,None,,,,,,,,,,,,,,,,None,None,None,,None,None,359.1306956040007,None,3,1,2.1330843050000112,359.1306956040007,None,361.26462993150017,None,None,None,None,,32,001,2022_Dec_12_1433,searchDisc5,2021.2.3,60.00064428736261,
images/exp2a_trial_152_colour2_distractors31_l.png,l,1,2,31,0,,,,,0,184,184,184,,,,,,,,,,,,,,,,,,,,,,,,,,,,,,,,,,,,,,,,,,,361.2801464690001,None,2,1.4387397909995343,361.2801464690001,None,,,,,,,,,,,,,,,,None,None,None,,None,None,362.7822573169997,None,1,1,0.8924827150003694,362.7822573169997,None,363.6654289854996,None,None,None,None,,32,001,2022_Dec_12_1433,searchDisc5,2021.2.3,60.00064428736261,
images/exp2c_trial_148_colour2_distractors1_l.png,l,1,2,1,0,,,,,0,185,185,185,,,,,,,,,,,,,,,,,,,,,,,,,,,,,,,,,,,,,,,,,,,363.68003880499964,None,2,0.25760115499906533,363.68003880499964,None,,,,,,,,,,,,,,,,None,None,None,,None,None,363.9830911879999,None,1,1,0.534223236998514,363.9830911879999,None,364.5146588405005,None,None,None,None,,32,001,2022_Dec_12_1433,searchDisc5,2021.2.3,60.00064428736261,
images/exp2c_trial_283_colour3_distractors9_l.png,l,1,3,9,0,,,,,0,186,186,186,,,,,,,,,,,,,,,,,,,,,,,,,,,,,,,,,,,,,,,,,,,364.53204714300045,None,2,0.2591024909997941,364.53204714300045,None,,,,,,,,,,,,,,,,None,None,None,,None,None,364.83080934899954,None,1,1,0.6645654070016462,364.83080934899954,None,365.49813706150053,None,None,None,None,,32,001,2022_Dec_12_1433,searchDisc5,2021.2.3,60.00064428736261,
images/exp1a_trial_133_colour2_distractors1_r.png,r,3,2,1,0,,,,,0,187,187,187,,,,,,,,,,,,,,,,,,,,,,,,,,,,,,,,,,,,,,,,,,,365.5151384609999,None,2,0.3210542059987347,365.5151384609999,None,,,,,,,,,,,,,,,,None,None,None,,None,None,365.8813110880001,None,3,1,0.7370771579990105,365.8813110880001,None,366.6147290575009,None,None,None,None,,32,001,2022_Dec_12_1433,searchDisc5,2021.2.3,60.00064428736261,
images/exp1a_trial_191_colour0_distractors0_l.png,l,1,0,0,0,,,,,0,188,188,188,,,,,,,,,,,,,,,,,,,,,,,,,,,,,,,,,,,,,,,,,,,366.63162238100085,None,2,0.2213508909990196,366.63162238100085,None,,,,,,,,,,,,,,,,None,None,None,,None,None,366.9001442080007,None,1,1,0.5540911680000136,366.9001442080007,None,367.4479253365007,None,None,None,None,,32,001,2022_Dec_12_1433,searchDisc5,2021.2.3,60.00064428736261,
images/exp2b_trial_43_colour3_distractors4_r.png,r,3,3,4,0,,,,,0,189,189,189,,,,,,,,,,,,,,,,,,,,,,,,,,,,,,,,,,,,,,,,,,,367.46452253700045,None,2,0.2074775340006454,367.46452253700045,None,,,,,,,,,,,,,,,,None,None,None,,None,None,367.7177095469997,None,3,1,0.6157674420010153,367.7177095469997,None,368.33150724950065,None,None,None,None,,32,001,2022_Dec_12_1433,searchDisc5,2021.2.3,60.00064428736261,
images/exp2c_trial_42_colour3_distractors1_r.png,r,3,3,1,0,,,,,0,190,190,190,,,,,,,,,,,,,,,,,,,,,,,,,,,,,,,,,,,,,,,,,,,368.34844698300003,None,2,0.2071762609994039,368.34844698300003,None,,,,,,,,,,,,,,,,None,None,None,,None,None,368.5988652650012,None,3,1,0.46783059799963667,368.5988652650012,None,369.06476186750115,None,None,None,None,,32,001,2022_Dec_12_1433,searchDisc5,2021.2.3,60.00064428736261,
images/exp1a_trial_26_colour3_distractors4_l.png,l,1,3,4,0,,,,,0,191,191,191,,,,,,,,,,,,,,,,,,,,,,,,,,,,,,,,,,,,,,,,,,,369.0816998049995,None,2,0.18803680800010625,369.0816998049995,None,,,,,,,,,,,,,,,,None,None,None,,None,None,369.3173429310009,None,1,1,0.7356382189991564,369.3173429310009,None,370.04802555150127,None,None,None,None,,32,001,2022_Dec_12_1433,searchDisc5,2021.2.3,60.00064428736261,
images/exp1a_trial_252_colour3_distractors19_l.png,l,1,3,19,0,,,,,0,192,192,192,,,,,,,,,,,,,,,,,,,,,,,,,,,,,,,,,,,,,,,,,,,370.0665608830004,None,2,0.19019375300013053,370.0665608830004,None,,,,,,,,,,,,,,,,None,None,None,,None,None,370.29770855100105,None,1,1,0.7464596789995994,370.29770855100105,None,371.0479560995009,None,None,None,None,,32,001,2022_Dec_12_1433,searchDisc5,2021.2.3,60.00064428736261,
images/exp2a_trial_182_colour2_distractors9_l.png,l,1,2,9,0,,,,,0,193,193,193,,,,,,,,,,,,,,,,,,,,,,,,,,,,,,,,,,,,,,,,,,,371.0645560089997,None,2,0.20671917000072426,371.0645560089997,None,,,,,,,,,,,,,,,,None,None,None,,None,None,371.3177789910005,None,1,1,0.8134791760003282,371.3177789910005,None,372.1314639374996,None,None,None,None,,32,001,2022_Dec_12_1433,searchDisc5,2021.2.3,60.00064428736261,
images/exp2b_trial_111_colour1_distractors1_l.png,l,1,1,1,0,,,,,0,194,194,194,,,,,,,,,,,,,,,,,,,,,,,,,,,,,,,,,,,,,,,,,,,372.1478569840001,None,2,0.22316698099893983,372.1478569840001,None,,,,,,,,,,,,,,,,None,None,None,,None,None,372.417677378,None,1,1,0.6346178439998766,372.417677378,None,373.04812064650105,None,None,None,None,,32,001,2022_Dec_12_1433,searchDisc5,2021.2.3,60.00064428736261,
images/exp2a_trial_101_colour2_distractors1_r.png,r,3,2,1,0,,,,,0,195,195,195,,,,,,,,,,,,,,,,,,,,,,,,,,,,,,,,,,,,,,,,,,,373.06534206300057,None,2,0.12113449199932802,373.06534206300057,None,,,,,,,,,,,,,,,,None,None,None,,None,None,373.23223467500065,None,3,1,0.7050611279992154,373.23223467500065,None,373.9322987025007,None,None,None,None,,32,001,2022_Dec_12_1433,searchDisc5,2021.2.3,60.00064428736261,
images/exp2a_trial_203_colour3_distractors4_r.png,r,3,3,4,0,,,,,0,196,196,196,,,,,,,,,,,,,,,,,,,,,,,,,,,,,,,,,,,,,,,,,,,373.9481952900005,None,2,0.23828277199936565,373.9481952900005,None,,,,,,,,,,,,,,,,None,None,None,,None,None,374.2320154560002,None,3,1,0.7180351579991111,374.2320154560002,None,374.9481748645012,None,None,None,None,,32,001,2022_Dec_12_1433,searchDisc5,2021.2.3,60.00064428736261,
images/exp2b_trial_212_colour2_distractors1_l.png,l,1,2,1,0,,,,,0,197,197,197,,,,,,,,,,,,,,,,,,,,,,,,,,,,,,,,,,,,,,,,,,,374.964731176,None,2,0.22428602100080752,374.964731176,None,,,,,,,,,,,,,,,,None,None,None,,None,None,375.2342206760004,None,1,1,0.5844401539998216,375.2342206760004,None,375.8146791645013,None,None,None,None,,32,001,2022_Dec_12_1433,searchDisc5,2021.2.3,60.00064428736261,
images/exp2a_trial_139_colour3_distractors4_r.png,r,3,3,4,0,,,,,0,198,198,198,,,,,,,,,,,,,,,,,,,,,,,,,,,,,,,,,,,,,,,,,,,375.8312905069997,None,2,0.20612724099919433,375.8312905069997,None,,,,,,,,,,,,,,,,None,None,None,,None,None,376.08405291500094,None,3,1,0.55158207400018,376.08405291500094,None,376.63158347150056,None,None,None,None,,32,001,2022_Dec_12_1433,searchDisc5,2021.2.3,60.00064428736261,
images/exp2c_trial_83_colour1_distractors31_l.png,l,1,1,31,0,,,,,0,199,199,199,,,,,,,,,,,,,,,,,,,,,,,,,,,,,,,,,,,,,,,,,,,376.6479291129999,None,2,0.2203115850006725,376.6479291129999,None,,,,,,,,,,,,,,,,None,None,None,,None,None,376.9155952410001,None,1,1,0.7002018429993768,376.9155952410001,None,377.6148412804996,None,None,None,None,,32,001,2022_Dec_12_1433,searchDisc5,2021.2.3,60.00064428736261,
images/exp2a_trial_168_colour2_distractors19_r.png,r,3,2,19,0,,,,,0,200,200,200,,,,,,,,,,,,,,,,,,,,,,,,,,,,,,,,,,,,,,,,,,,377.63208897200093,None,2,0.20545413499894494,377.63208897200093,None,,,,,,,,,,,,,,,,None,None,None,,None,None,377.88758105800116,None,3,1,0.5768811260004441,377.88758105800116,None,378.46437109950057,None,None,None,None,,32,001,2022_Dec_12_1433,searchDisc5,2021.2.3,60.00064428736261,
images/exp1a_trial_98_colour1_distractors9_r.png,r,3,1,9,0,,,,,0,201,201,201,,,,,,,,,,,,,,,,,,,,,,,,,,,,,,,,,,,,,,,,,,,378.4813633869999,None,2,0.1902687120000337,378.4813633869999,None,,,,,,,,,,,,,,,,None,None,None,,None,None,378.71728292700027,None,3,1,0.6829335120000906,378.71728292700027,None,379.398253986501,None,None,None,None,,32,001,2022_Dec_12_1433,searchDisc5,2021.2.3,60.00064428736261,
images/exp1a_trial_18_colour1_distractors19_l.png,l,1,1,19,0,,,,,0,202,202,202,,,,,,,,,,,,,,,,,,,,,,,,,,,,,,,,,,,,,,,,,,,379.4152211700002,None,2,0.18876036000074237,379.4152211700002,None,,,,,,,,,,,,,,,,None,None,None,,None,None,379.64776841599996,None,1,1,0.7134162660004222,379.64776841599996,None,380.3639345005013,None,None,None,None,,32,001,2022_Dec_12_1433,searchDisc5,2021.2.3,60.00064428736261,
images/exp2b_trial_27_colour3_distractors9_l.png,l,1,3,9,0,,,,,0,203,203,203,,,,,,,,,,,,,,,,,,,,,,,,,,,,,,,,,,,,,,,,,,,380.38238411100065,None,2,0.20763565100060077,380.38238411100065,None,,,,,,,,,,,,,,,,None,None,None,,None,None,380.6344609509997,None,1,1,0.5991409469988866,380.6344609509997,None,381.2317469745012,None,None,None,None,,32,001,2022_Dec_12_1433,searchDisc5,2021.2.3,60.00064428736261,
images/exp2c_trial_259_colour1_distractors19_r.png,r,3,1,19,0,,,,,0,204,204,204,,,,,,,,,,,,,,,,,,,,,,,,,,,,,,,,,,,,,,,,,,,381.2482175460009,None,2,0.17396227700010058,381.2482175460009,None,,,,,,,,,,,,,,,,None,None,None,,None,None,381.46506877200045,None,3,1,0.597892130001128,381.46506877200045,None,382.06506037849977,None,None,None,None,,32,001,2022_Dec_12_1433,searchDisc5,2021.2.3,60.00064428736261,
images/exp1a_trial_129_colour1_distractors4_r.png,r,3,1,4,0,,,,,0,205,205,205,,,,,,,,,,,,,,,,,,,,,,,,,,,,,,,,,,,,,,,,,,,382.08157409700107,None,2,0.20467095599997265,382.08157409700107,None,,,,,,,,,,,,,,,,None,None,None,,None,None,382.3317005200006,None,3,1,0.7024321099997906,382.3317005200006,None,383.03247522449965,None,None,None,None,,32,001,2022_Dec_12_1433,searchDisc5,2021.2.3,60.00064428736261,
images/exp2b_trial_78_colour3_distractors31_r.png,r,3,3,31,0,,,,,0,206,206,206,,,,,,,,,,,,,,,,,,,,,,,,,,,,,,,,,,,,,,,,,,,383.04839232000086,None,2,0.22363710399986303,383.04839232000086,None,,,,,,,,,,,,,,,,None,None,None,,None,None,383.31776246200025,None,3,1,0.6985344960012299,383.31776246200025,None,384.01526569949965,None,None,None,None,,32,001,2022_Dec_12_1433,searchDisc5,2021.2.3,60.00064428736261,
images/exp2c_trial_299_colour3_distractors4_r.png,r,3,3,4,0,,,,,0,207,207,207,,,,,,,,,,,,,,,,,,,,,,,,,,,,,,,,,,,,,,,,,,,384.0344160759996,None,2,0.22385463600039657,384.0344160759996,None,,,,,,,,,,,,,,,,None,None,None,,None,None,384.301064366,None,3,1,0.599042207999446,384.301064366,None,384.8985450805012,None,None,None,None,,32,001,2022_Dec_12_1433,searchDisc5,2021.2.3,60.00064428736261,
images/exp1a_trial_216_colour2_distractors31_l.png,l,1,2,31,0,,,,,0,208,208,208,,,,,,,,,,,,,,,,,,,,,,,,,,,,,,,,,,,,,,,,,,,384.9152553269996,None,2,0.19019964200015238,384.9152553269996,None,,,,,,,,,,,,,,,,None,None,None,,None,None,385.1524534330001,None,1,1,0.86214262500107,385.1524534330001,None,386.01479583150103,None,None,None,None,,32,001,2022_Dec_12_1433,searchDisc5,2021.2.3,60.00064428736261,
images/exp2c_trial_90_colour3_distractors4_l.png,l,1,3,4,0,,,,,0,209,209,209,,,,,,,,,,,,,,,,,,,,,,,,,,,,,,,,,,,,,,,,,,,386.0316809579999,None,2,0.24045770600059768,386.0316809579999,None,,,,,,,,,,,,,,,,None,None,None,,None,None,386.3154334890005,None,1,1,0.6346987040014938,386.3154334890005,None,386.9485204544999,None,None,None,None,,32,001,2022_Dec_12_1433,searchDisc5,2021.2.3,60.00064428736261,
images/exp2b_trial_245_colour2_distractors4_l.png,l,1,2,4,0,,,,,0,210,210,210,,,,,,,,,,,,,,,,,,,,,,,,,,,,,,,,,,,,,,,,,,,386.96482998800093,None,2,0.17107691299861472,386.96482998800093,None,,,,,,,,,,,,,,,,None,None,None,,None,None,387.1841239160003,None,1,1,0.6037576569997327,387.1841239160003,None,387.7819102534995,None,None,None,None,,32,001,2022_Dec_12_1433,searchDisc5,2021.2.3,60.00064428736261,
images/exp2c_trial_66_colour1_distractors9_r.png,r,3,1,9,0,,,,,0,211,211,211,,,,,,,,,,,,,,,,,,,,,,,,,,,,,,,,,,,,,,,,,,,387.80100936800045,None,2,0.20457180999983393,387.80100936800045,None,,,,,,,,,,,,,,,,None,None,None,,None,None,388.05147243899955,None,3,1,0.6843269769997278,388.05147243899955,None,388.7318060005,None,None,None,None,,32,001,2022_Dec_12_1433,searchDisc5,2021.2.3,60.00064428736261,
images/exp2a_trial_70_colour2_distractors4_r.png,r,3,2,4,0,,,,,0,212,212,212,,,,,,,,,,,,,,,,,,,,,,,,,,,,,,,,,,,,,,,,,,,388.74874180000006,None,2,0.18939913700160105,388.74874180000006,None,,,,,,,,,,,,,,,,None,None,None,,None,None,388.9840302350003,None,3,1,0.7169355149999319,388.9840302350003,None,389.6986085485005,None,None,None,None,,32,001,2022_Dec_12_1433,searchDisc5,2021.2.3,60.00064428736261,
images/exp2b_trial_110_colour3_distractors31_r.png,r,3,3,31,0,,,,,0,213,213,213,,,,,,,,,,,,,,,,,,,,,,,,,,,,,,,,,,,,,,,,,,,389.71434679699996,None,2,0.18759086499994737,389.71434679699996,None,,,,,,,,,,,,,,,,None,None,None,,None,None,389.94938857300076,None,3,1,0.5521676459993614,389.94938857300076,None,390.5006561935006,None,None,None,None,,32,001,2022_Dec_12_1433,searchDisc5,2021.2.3,60.00064428736261,
images/exp2b_trial_292_colour1_distractors31_r.png,r,3,1,31,0,,,,,0,214,214,214,,,,,,,,,,,,,,,,,,,,,,,,,,,,,,,,,,,,,,,,,,,390.51695782299976,None,2,0.1682044519984629,390.51695782299976,None,,,,,,,,,,,,,,,,None,None,None,,None,None,390.7350019429996,None,3,1,0.5709564429998863,390.7350019429996,None,391.29897872249967,None,None,None,None,,32,001,2022_Dec_12_1433,searchDisc5,2021.2.3,60.00064428736261,
images/exp2a_trial_244_colour2_distractors1_l.png,l,1,2,1,0,,,,,0,215,215,215,,,,,,,,,,,,,,,,,,,,,,,,,,,,,,,,,,,,,,,,,,,391.3140893489999,None,2,0.19034516099964094,391.3140893489999,None,,,,,,,,,,,,,,,,None,None,None,,None,None,391.55063497599986,None,1,1,0.7840065069995035,391.55063497599986,None,392.3318339215002,None,None,None,None,,32,001,2022_Dec_12_1433,searchDisc5,2021.2.3,60.00064428736261,
images/exp1a_trial_256_colour1_distractors1_r.png,r,3,1,1,0,,,,,0,216,216,216,,,,,,,,,,,,,,,,,,,,,,,,,,,,,,,,,,,,,,,,,,,392.3483563869995,None,2,0.2056727109993517,392.3483563869995,None,,,,,,,,,,,,,,,,None,None,None,,None,None,392.5996417130009,None,3,1,0.7531759930006956,392.5996417130009,None,393.3489541145009,None,None,None,None,,32,001,2022_Dec_12_1433,searchDisc5,2021.2.3,60.00064428736261,
images/exp1a_trial_59_colour3_distractors9_l.png,l,1,3,9,0,,,,,0,217,217,217,,,,,,,,,,,,,,,,,,,,,,,,,,,,,,,,,,,,,,,,,,,393.3659465210003,None,2,0.18870523499936098,393.3659465210003,None,,,,,,,,,,,,,,,,None,None,None,,None,None,393.5998235750012,None,1,1,0.6340067259989155,393.5998235750012,None,394.2317114075013,None,None,None,None,,32,001,2022_Dec_12_1433,searchDisc5,2021.2.3,60.00064428736261,
images/exp2a_trial_239_colour1_distractors1_l.png,l,1,1,1,0,,,,,0,218,218,218,,,,,,,,,,,,,,,,,,,,,,,,,,,,,,,,,,,,,,,,,,,394.2484664479998,None,2,0.2069132600008743,394.2484664479998,None,,,,,,,,,,,,,,,,None,None,None,,None,None,394.50120426000103,None,1,1,0.6358265019989631,394.50120426000103,None,395.1320864165009,None,None,None,None,,32,001,2022_Dec_12_1433,searchDisc5,2021.2.3,60.00064428736261,
images/exp2b_trial_90_colour3_distractors4_l.png,l,1,3,4,0,,,,,0,219,219,219,,,,,,,,,,,,,,,,,,,,,,,,,,,,,,,,,,,,,,,,,,,395.14842441400106,None,2,0.22294477399918833,395.14842441400106,None,,,,,,,,,,,,,,,,None,None,None,,None,None,395.4154128299997,None,1,1,0.851623335000113,395.4154128299997,None,396.2655023674997,None,None,None,None,,32,001,2022_Dec_12_1433,searchDisc5,2021.2.3,60.00064428736261,
images/exp2a_trial_284_colour3_distractors19_l.png,l,1,3,19,0,,,,,0,220,220,220,,,,,,,,,,,,,,,,,,,,,,,,,,,,,,,,,,,,,,,,,,,396.28185185300026,None,2,0.2045877519994974,396.28185185300026,None,,,,,,,,,,,,,,,,None,None,None,,None,None,396.53410813400114,None,1,1,0.6014716690006026,396.53410813400114,None,397.1321359044996,None,None,None,None,,32,001,2022_Dec_12_1433,searchDisc5,2021.2.3,60.00064428736261,
images/exp2a_trial_189_colour3_distractors31_l.png,l,1,3,31,0,,,,,0,221,221,221,,,,,,,,,,,,,,,,,,,,,,,,,,,,,,,,,,,,,,,,,,,397.15138038700024,None,2,0.17335826800081122,397.15138038700024,None,,,,,,,,,,,,,,,,None,None,None,,None,None,397.3674384260012,None,1,1,0.6312371490002988,397.3674384260012,None,397.9989071175005,None,None,None,None,,32,001,2022_Dec_12_1433,searchDisc5,2021.2.3,60.00064428736261,
images/exp2b_trial_15_colour1_distractors1_l.png,l,1,1,1,0,,,,,0,222,222,222,,,,,,,,,,,,,,,,,,,,,,,,,,,,,,,,,,,,,,,,,,,398.0163101520011,None,2,0.20737177400042128,398.0163101520011,None,,,,,,,,,,,,,,,,None,None,None,,None,None,398.2671604629995,None,1,1,0.684184906000155,398.2671604629995,None,398.94985813350104,None,None,None,None,,32,001,2022_Dec_12_1433,searchDisc5,2021.2.3,60.00064428736261,
images/exp2a_trial_2_colour1_distractors9_r.png,r,3,1,9,0,,,,,0,223,223,223,,,,,,,,,,,,,,,,,,,,,,,,,,,,,,,,,,,,,,,,,,,398.96614334600054,None,2,0.20650167199892167,398.96614334600054,None,,,,,,,,,,,,,,,,None,None,None,,None,None,399.2186425910004,None,3,1,0.6834084689999145,399.2186425910004,None,399.8990565635013,None,None,None,None,,32,001,2022_Dec_12_1433,searchDisc5,2021.2.3,60.00064428736261,
images/exp2c_trial_113_colour1_distractors9_l.png,l,1,1,9,0,,,,,0,224,224,224,,,,,,,,,,,,,,,,,,,,,,,,,,,,,,,,,,,,,,,,,,,399.9152575429998,None,2,0.20445555900005274,399.9152575429998,None,,,,,,,,,,,,,,,,None,None,None,,None,None,400.16851860099996,None,3,0,0.6894368690009287,400.16851860099996,None,400.84894934549993,None,None,None,None,,32,001,2022_Dec_12_1433,searchDisc5,2021.2.3,60.00064428736261,
