p_id,ps_id,exp_id,trial,t_id,N_T,d_feature,rt,response,error
1 1a,12,1,638,right,0,blue,0.707,1,0
1 1a,12,1,31,right,0,blue,0.369,1,0
1 1a,12,1,528,right,0,blue,0.44,1,0
1 1a,12,1,631,left,0,blue,0.397,0,0
1 1a,12,1,275,left,0,blue,0.349,0,0
1 1a,12,1,241,right,0,blue,0.367,1,0
1 1a,12,1,443,right,1,blue,0.742,1,0
1 1a,12,1,488,left,1,blue,0.528,0,0
1 1a,12,1,529,left,1,blue,0.394,0,0
1 1a,12,1,372,right,1,blue,0.608,1,0
1 1a,12,1,550,right,1,blue,0.645,1,0
1 1a,12,1,107,right,1,blue,0.476,1,0
1 1a,12,1,389,right,4,blue,0.634,1,0
1 1a,12,1,311,left,4,blue,0.612,0,0
1 1a,12,1,86,left,4,blue,0.531,0,0
1 1a,12,1,639,left,4,blue,0.474,0,0
1 1a,12,1,530,right,4,blue,0.425,1,0
1 1a,12,1,407,left,4,blue,0.486,0,0
1 1a,12,1,331,left,9,blue,0.476,0,0
1 1a,12,1,413,right,9,blue,0.639,1,0
1 1a,12,1,421,left,9,blue,0.755,0,0
1 1a,12,1,139,left,9,blue,0.829,0,0
1 1a,12,1,101,right,9,blue,0.563,1,0
1 1a,12,1,398,left,9,blue,0.526,0,0
1 1a,12,1,325,left,19,blue,0.42,0,0
1 1a,12,1,270,left,19,blue,0.616,0,0
1 1a,12,1,499,right,19,blue,0.694,1,0
1 1a,12,1,569,right,19,blue,0.692,1,0
1 1a,12,1,559,left,19,blue,0.802,0,0
1 1a,12,1,136,right,19,blue,1.069,1,0
1 1a,12,1,82,left,31,blue,0.629,0,0
1 1a,12,1,334,left,31,blue,0.697,0,0
1 1a,12,1,614,right,31,blue,0.782,1,0
1 1a,12,1,33,right,31,blue,1.116,1,0
1 1a,12,1,164,right,31,blue,0.646,1,0
1 1a,12,1,14,left,31,blue,0.727,0,0
1 1a,12,1,528,right,0,orange,0.44,1,0
1 1a,12,1,32,left,0,orange,0.48,0,0
1 1a,12,1,369,right,0,orange,0.382,1,0
1 1a,12,1,31,right,0,orange,0.369,1,0
1 1a,12,1,403,left,0,orange,0.458,0,0
1 1a,12,1,635,left,0,orange,0.533,0,0
1 1a,12,1,536,right,1,orange,0.332,1,0
1 1a,12,1,167,right,1,orange,0.397,1,0
1 1a,12,1,525,right,1,orange,0.392,1,0
1 1a,12,1,340,right,1,orange,0.47,1,0
1 1a,12,1,39,right,1,orange,0.543,1,0
1 1a,12,1,309,right,1,orange,0.491,1,0
1 1a,12,1,221,right,4,orange,0.438,1,0
1 1a,12,1,53,right,4,orange,0.41,1,0
1 1a,12,1,18,left,4,orange,0.664,0,0
1 1a,12,1,215,right,4,orange,0.42,1,0
1 1a,12,1,76,left,4,orange,0.374,0,0
1 1a,12,1,173,left,4,orange,0.645,0,0
1 1a,12,1,211,right,9,orange,0.544,1,0
1 1a,12,1,535,right,9,orange,0.384,1,0
1 1a,12,1,15,left,9,orange,0.655,0,0
1 1a,12,1,617,left,9,orange,0.72,0,0
1 1a,12,1,399,left,9,orange,0.488,0,0
1 1a,12,1,191,left,9,orange,0.539,0,0
1 1a,12,1,268,left,19,orange,0.446,0,0
1 1a,12,1,282,right,19,orange,0.428,1,0
1 1a,12,1,129,right,19,orange,0.702,1,0
1 1a,12,1,88,left,19,orange,0.553,0,0
1 1a,12,1,493,right,19,orange,0.369,1,0
1 1a,12,1,199,right,19,orange,0.399,1,0
1 1a,12,1,419,left,31,orange,0.579,0,0
1 1a,12,1,417,left,31,orange,0.509,0,0
1 1a,12,1,297,right,31,orange,0.669,1,0
1 1a,12,1,200,right,31,orange,0.724,1,0
1 1a,12,1,346,right,31,orange,0.527,1,0
1 1a,12,1,48,left,31,orange,0.506,0,0
1 1a,12,1,603,right,0,yellow,0.464,1,0
1 1a,12,1,241,right,0,yellow,0.367,1,0
1 1a,12,1,202,right,0,yellow,0.37,1,0
1 1a,12,1,628,right,0,yellow,0.411,1,0
1 1a,12,1,55,right,0,yellow,0.549,1,0
1 1a,12,1,638,right,0,yellow,0.707,1,0
1 1a,12,1,220,right,1,yellow,0.481,1,0
1 1a,12,1,97,left,1,yellow,0.531,0,0
1 1a,12,1,283,right,1,yellow,0.418,1,0
1 1a,12,1,455,left,1,yellow,0.377,0,0
1 1a,12,1,41,left,1,yellow,0.672,0,0
1 1a,12,1,583,left,1,yellow,0.769,0,0
1 1a,12,1,454,left,4,yellow,0.409,0,0
1 1a,12,1,216,left,4,yellow,0.771,0,0
1 1a,12,1,416,left,4,yellow,0.489,0,0
1 1a,12,1,147,right,4,yellow,0.619,1,0
1 1a,12,1,203,right,4,yellow,0.433,1,0
1 1a,12,1,605,right,4,yellow,0.579,1,0
1 1a,12,1,554,right,9,yellow,0.354,1,0
1 1a,12,1,567,right,9,yellow,0.52,1,0
1 1a,12,1,611,right,9,yellow,0.502,1,0
1 1a,12,1,339,right,9,yellow,0.489,1,0
1 1a,12,1,640,left,9,yellow,0.477,0,0
1 1a,12,1,89,left,9,yellow,0.807,0,0
1 1a,12,1,272,right,19,yellow,0.403,1,0
1 1a,12,1,492,left,19,yellow,0.644,0,0
1 1a,12,1,409,left,19,yellow,0.467,0,0
1 1a,12,1,287,right,19,yellow,0.524,1,0
1 1a,12,1,148,right,19,yellow,0.612,1,0
1 1a,12,1,223,right,19,yellow,0.445,1,0
1 1a,12,1,281,left,31,yellow,0.605,0,0
1 1a,12,1,476,left,31,yellow,0.442,0,0
1 1a,12,1,95,right,31,yellow,0.611,1,0
1 1a,12,1,28,right,31,yellow,0.462,1,0
1 1a,12,1,442,left,31,yellow,0.471,0,0
1 1a,12,1,263,left,31,yellow,0.61,0,0
1 1b,8,1,298,right,0,circle,0.412,1,0
1 1b,8,1,582,right,0,circle,0.612,1,0
1 1b,8,1,486,right,0,circle,0.385,1,0
1 1b,8,1,232,left,0,circle,0.537,0,0
1 1b,8,1,111,right,0,circle,0.396,1,0
1 1b,8,1,53,left,0,circle,0.394,0,0
1 1b,8,1,236,left,1,circle,0.548,0,0
1 1b,8,1,353,right,1,circle,0.352,1,0
1 1b,8,1,72,right,1,circle,0.374,1,0
1 1b,8,1,296,left,1,circle,0.483,0,0
1 1b,8,1,237,left,1,circle,0.538,0,0
1 1b,8,1,317,right,1,circle,0.557,1,0
1 1b,8,1,522,left,4,circle,0.361,0,0
1 1b,8,1,327,right,4,circle,0.502,1,0
1 1b,8,1,405,left,4,circle,0.5,0,0
1 1b,8,1,189,left,4,circle,0.448,0,0
1 1b,8,1,469,left,4,circle,0.421,0,0
1 1b,8,1,209,left,4,circle,0.444,0,0
1 1b,8,1,97,right,9,circle,0.695,1,0
1 1b,8,1,592,left,9,circle,0.804,0,0
1 1b,8,1,447,left,9,circle,0.495,0,0
1 1b,8,1,165,left,9,circle,0.663,0,0
1 1b,8,1,322,left,9,circle,0.54,0,0
1 1b,8,1,339,right,9,circle,0.84,1,0
1 1b,8,1,512,right,19,circle,0.945,1,0
1 1b,8,1,443,right,19,circle,0.449,1,0
1 1b,8,1,499,right,19,circle,0.477,1,0
1 1b,8,1,150,right,19,circle,0.774,1,0
1 1b,8,1,75,left,19,circle,0.366,0,0
1 1b,8,1,490,right,19,circle,0.395,1,0
1 1b,8,1,496,right,31,circle,0.846,1,0
1 1b,8,1,395,right,31,circle,0.549,1,0
1 1b,8,1,242,left,31,circle,0.663,0,0
1 1b,8,1,340,right,31,circle,0.49,1,0
1 1b,8,1,244,left,31,circle,0.497,0,0
1 1b,8,1,437,right,31,circle,0.768,1,0
1 1b,8,1,46,right,0,diamond,0.381,1,0
1 1b,8,1,232,left,0,diamond,0.537,0,0
1 1b,8,1,224,left,0,diamond,0.398,0,0
1 1b,8,1,308,right,0,diamond,0.513,1,0
1 1b,8,1,68,right,0,diamond,0.431,1,0
1 1b,8,1,298,right,0,diamond,0.412,1,0
1 1b,8,1,510,left,1,diamond,0.42,0,0
1 1b,8,1,118,right,1,diamond,0.424,1,0
1 1b,8,1,156,left,1,diamond,0.454,0,0
1 1b,8,1,213,left,1,diamond,0.417,0,0
1 1b,8,1,586,right,1,diamond,0.448,1,0
1 1b,8,1,513,left,1,diamond,0.81,0,0
1 1b,8,1,329,right,4,diamond,0.464,1,0
1 1b,8,1,109,left,4,diamond,0.49,0,0
1 1b,8,1,442,right,4,diamond,0.517,1,0
1 1b,8,1,141,left,4,diamond,0.553,0,0
1 1b,8,1,302,right,4,diamond,0.582,1,0
1 1b,8,1,473,right,4,diamond,0.456,1,0
1 1b,8,1,95,left,9,diamond,0.472,0,0
1 1b,8,1,462,right,9,diamond,1.151,1,0
1 1b,8,1,260,right,9,diamond,0.45,1,0
1 1b,8,1,300,right,9,diamond,0.548,1,0
1 1b,8,1,326,left,9,diamond,0.486,0,0
1 1b,8,1,32,right,9,diamond,0.968,1,0
1 1b,8,1,324,right,19,diamond,0.611,1,0
1 1b,8,1,378,left,19,diamond,0.476,0,0
1 1b,8,1,90,right,19,diamond,0.517,1,0
1 1b,8,1,458,right,19,diamond,0.566,1,0
1 1b,8,1,545,left,19,diamond,0.452,0,0
1 1b,8,1,202,right,19,diamond,1.308,1,0
1 1b,8,1,358,left,31,diamond,0.677,0,0
1 1b,8,1,626,left,31,diamond,0.574,0,0
1 1b,8,1,197,left,31,diamond,0.557,0,0
1 1b,8,1,295,right,31,diamond,0.545,1,0
1 1b,8,1,258,right,31,diamond,0.487,1,0
1 1b,8,1,334,left,31,diamond,0.537,0,0
1 1b,8,1,397,left,0,triangle,0.409,0,0
1 1b,8,1,111,right,0,triangle,0.396,1,0
1 1b,8,1,58,left,0,triangle,0.411,0,0
1 1b,8,1,68,right,0,triangle,0.431,1,0
1 1b,8,1,539,left,0,triangle,0.452,0,0
1 1b,8,1,39,left,0,triangle,0.438,0,0
1 1b,8,1,15,left,1,triangle,0.622,0,0
1 1b,8,1,146,left,1,triangle,0.798,0,0
1 1b,8,1,362,right,1,triangle,0.419,1,0
1 1b,8,1,106,right,1,triangle,0.513,1,0
1 1b,8,1,13,right,1,triangle,0.67,1,0
1 1b,8,1,108,right,1,triangle,0.587,1,0
1 1b,8,1,264,left,4,triangle,0.622,0,0
1 1b,8,1,535,left,4,triangle,0.932,0,0
1 1b,8,1,278,right,4,triangle,1.14,1,0
1 1b,8,1,607,right,4,triangle,0.678,1,0
1 1b,8,1,519,right,4,triangle,0.432,1,0
1 1b,8,1,433,left,4,triangle,0.881,0,0
1 1b,8,1,364,right,9,triangle,0.416,1,0
1 1b,8,1,190,left,9,triangle,0.451,0,0
1 1b,8,1,215,left,9,triangle,0.805,0,0
1 1b,8,1,459,right,9,triangle,0.55,1,0
1 1b,8,1,598,right,9,triangle,0.759,1,0
1 1b,8,1,172,right,9,triangle,0.633,1,0
1 1b,8,1,316,left,19,triangle,0.81,0,0
1 1b,8,1,361,left,19,triangle,0.646,0,0
1 1b,8,1,553,right,19,triangle,0.636,1,0
1 1b,8,1,140,left,19,triangle,0.64,0,0
1 1b,8,1,47,left,19,triangle,1.171,0,0
1 1b,8,1,524,left,19,triangle,0.397,0,0
1 1b,8,1,564,left,31,triangle,1.281,0,0
1 1b,8,1,604,left,31,triangle,0.411,0,0
1 1b,8,1,151,right,31,triangle,1.086,1,0
1 1b,8,1,138,left,31,triangle,1.264,0,0
1 1b,8,1,312,right,31,triangle,1.082,1,0
1 1b,8,1,561,right,31,triangle,0.918,1,0
1 2a,16,2,313,left,0,blue circle,0.492,0,0
1 2a,16,2,314,left,0,blue circle,0.42,0,0
1 2a,16,2,135,right,0,blue circle,0.617,1,0
1 2a,16,2,302,right,0,blue circle,0.398,1,0
1 2a,16,2,122,right,0,blue circle,0.413,1,0
1 2a,16,2,325,left,0,blue circle,0.523,0,0
1 2a,16,2,6,right,1,blue circle,0.456,1,0
1 2a,16,2,274,right,1,blue circle,0.624,1,0
1 2a,16,2,436,left,1,blue circle,0.466,0,0
1 2a,16,2,292,right,1,blue circle,0.421,1,0
1 2a,16,2,433,left,1,blue circle,0.469,0,0
1 2a,16,2,301,left,1,blue circle,0.65,0,0
1 2a,16,2,558,left,4,blue circle,0.431,0,0
1 2a,16,2,385,left,4,blue circle,0.41,0,0
1 2a,16,2,597,right,4,blue circle,0.4,1,0
1 2a,16,2,624,left,4,blue circle,0.666,0,0
1 2a,16,2,579,left,4,blue circle,0.445,0,0
1 2a,16,2,502,right,4,blue circle,0.467,1,0
1 2a,16,2,174,right,9,blue circle,0.425,1,0
1 2a,16,2,333,right,9,blue circle,0.694,1,0
1 2a,16,2,88,left,9,blue circle,0.439,0,0
1 2a,16,2,514,left,9,blue circle,0.458,0,0
1 2a,16,2,378,right,9,blue circle,0.39,1,0
1 2a,16,2,510,right,9,blue circle,0.493,1,0
1 2a,16,2,626,right,19,blue circle,0.586,1,0
1 2a,16,2,640,left,19,blue circle,0.518,0,0
1 2a,16,2,607,right,19,blue circle,0.581,1,0
1 2a,16,2,503,right,19,blue circle,0.516,1,0
1 2a,16,2,410,right,19,blue circle,0.569,1,0
1 2a,16,2,232,right,19,blue circle,0.491,1,0
1 2a,16,2,611,right,31,blue circle,0.775,1,0
1 2a,16,2,273,right,31,blue circle,0.643,1,0
1 2a,16,2,438,right,31,blue circle,0.502,1,0
1 2a,16,2,432,left,31,blue circle,0.659,0,0
1 2a,16,2,76,left,31,blue circle,0.564,0,0
1 2a,16,2,504,right,31,blue circle,0.701,1,0
1 2a,16,2,552,left,0,orange diamond,0.403,0,0
1 2a,16,2,314,left,0,orange diamond,0.42,0,0
1 2a,16,2,190,right,0,orange diamond,0.453,1,0
1 2a,16,2,257,right,0,orange diamond,0.387,1,0
1 2a,16,2,302,right,0,orange diamond,0.398,1,0
1 2a,16,2,529,left,0,orange diamond,0.342,0,0
1 2a,16,2,453,right,1,orange diamond,0.477,1,0
1 2a,16,2,130,left,1,orange diamond,0.373,0,0
1 2a,16,2,568,left,1,orange diamond,0.446,0,0
1 2a,16,2,58,right,1,orange diamond,0.478,1,0
1 2a,16,2,222,right,1,orange diamond,0.411,1,0
1 2a,16,2,342,right,1,orange diamond,0.459,1,0
1 2a,16,2,506,right,4,orange diamond,0.423,1,0
1 2a,16,2,175,left,4,orange diamond,0.502,0,0
1 2a,16,2,82,left,4,orange diamond,0.47,0,0
1 2a,16,2,131,left,4,orange diamond,0.501,0,0
1 2a,16,2,42,left,4,orange diamond,0.428,0,0
1 2a,16,2,12,right,4,orange diamond,0.57,1,0
1 2a,16,2,405,left,9,orange diamond,0.507,0,0
1 2a,16,2,458,left,9,orange diamond,0.518,0,0
1 2a,16,2,210,left,9,orange diamond,0.429,0,0
1 2a,16,2,599,right,9,orange diamond,0.489,1,0
1 2a,16,2,245,left,9,orange diamond,0.554,0,0
1 2a,16,2,93,right,9,orange diamond,0.409,1,0
1 2a,16,2,320,right,19,orange diamond,0.438,1,0
1 2a,16,2,151,left,19,orange diamond,0.81,0,0
1 2a,16,2,110,right,19,orange diamond,0.606,1,0
1 2a,16,2,441,left,19,orange diamond,0.55,0,0
1 2a,16,2,311,left,19,orange diamond,0.424,0,0
1 2a,16,2,303,right,19,orange diamond,0.414,1,0
1 2a,16,2,533,right,31,orange diamond,0.478,1,0
1 2a,16,2,402,left,31,orange diamond,0.476,0,0
1 2a,16,2,347,right,31,orange diamond,0.586,1,0
1 2a,16,2,139,left,31,orange diamond,0.445,0,0
1 2a,16,2,476,right,31,orange diamond,0.518,1,0
1 2a,16,2,32,right,31,orange diamond,0.481,1,0
1 2a,16,2,135,right,0,yellow triangle,0.617,1,0
1 2a,16,2,122,right,0,yellow triangle,0.413,1,0
1 2a,16,2,632,left,0,yellow triangle,0.377,0,0
1 2a,16,2,442,left,0,yellow triangle,0.434,0,0
1 2a,16,2,3,left,0,yellow triangle,0.463,0,0
1 2a,16,2,158,left,0,yellow triangle,0.653,0,0
1 2a,16,2,272,left,1,yellow triangle,0.577,0,0
1 2a,16,2,522,left,1,yellow triangle,0.39,0,0
1 2a,16,2,236,left,1,yellow triangle,0.463,0,0
1 2a,16,2,196,left,1,yellow triangle,0.727,0,0
1 2a,16,2,154,right,1,yellow triangle,0.489,1,0
1 2a,16,2,472,right,1,yellow triangle,0.462,1,0
1 2a,16,2,85,left,4,yellow triangle,0.475,0,0
1 2a,16,2,613,right,4,yellow triangle,0.348,1,0
1 2a,16,2,133,right,4,yellow triangle,0.511,1,0
1 2a,16,2,112,left,4,yellow triangle,0.465,0,0
1 2a,16,2,129,left,4,yellow triangle,0.454,0,0
1 2a,16,2,242,right,4,yellow triangle,0.453,1,0
1 2a,16,2,429,left,9,yellow triangle,0.449,0,0
1 2a,16,2,564,left,9,yellow triangle,0.392,0,0
1 2a,16,2,182,right,9,yellow triangle,0.594,1,0
1 2a,16,2,247,right,9,yellow triangle,0.466,1,0
1 2a,16,2,267,right,9,yellow triangle,0.53,1,0
1 2a,16,2,348,right,9,yellow triangle,0.463,1,0
1 2a,16,2,482,right,19,yellow triangle,0.369,1,0
1 2a,16,2,459,right,19,yellow triangle,0.603,1,0
1 2a,16,2,290,right,19,yellow triangle,0.484,1,0
1 2a,16,2,602,left,19,yellow triangle,0.424,0,0
1 2a,16,2,572,left,19,yellow triangle,0.442,0,0
1 2a,16,2,17,right,19,yellow triangle,0.492,1,0
1 2a,16,2,380,left,31,yellow triangle,0.496,0,0
1 2a,16,2,45,left,31,yellow triangle,0.416,0,0
1 2a,16,2,188,left,31,yellow triangle,0.462,0,0
1 2a,16,2,553,right,31,yellow triangle,0.697,1,0
1 2a,16,2,535,right,31,yellow triangle,0.472,1,0
1 2a,16,2,379,right,31,yellow triangle,0.505,1,0
1 2b,7,2,4,right,0,blue triangle,0.393,1,0
1 2b,7,2,274,left,0,blue triangle,1.369,0,0
1 2b,7,2,330,right,0,blue triangle,0.514,1,0
1 2b,7,2,328,left,0,blue triangle,0.478,0,0
1 2b,7,2,31,right,0,blue triangle,0.445,1,0
1 2b,7,2,501,left,0,blue triangle,0.462,0,0
1 2b,7,2,515,left,1,blue triangle,0.46,0,0
1 2b,7,2,331,right,1,blue triangle,0.758,1,0
1 2b,7,2,137,left,1,blue triangle,0.451,0,0
1 2b,7,2,305,left,1,blue triangle,0.676,0,0
1 2b,7,2,554,left,1,blue triangle,0.453,0,0
1 2b,7,2,396,right,1,blue triangle,0.739,1,0
1 2b,7,2,241,left,4,blue triangle,0.615,0,0
1 2b,7,2,410,left,4,blue triangle,0.645,0,0
1 2b,7,2,528,right,4,blue triangle,0.487,1,0
1 2b,7,2,414,right,4,blue triangle,0.906,1,0
1 2b,7,2,252,left,4,blue triangle,0.855,0,0
1 2b,7,2,361,left,4,blue triangle,0.593,0,0
1 2b,7,2,214,right,9,blue triangle,0.804,1,0
1 2b,7,2,204,left,9,blue triangle,0.48,0,0
1 2b,7,2,230,left,9,blue triangle,0.43,0,0
1 2b,7,2,34,left,9,blue triangle,0.567,0,0
1 2b,7,2,297,right,9,blue triangle,0.609,1,0
1 2b,7,2,279,left,9,blue triangle,0.649,0,0
1 2b,7,2,63,left,19,blue triangle,0.552,0,0
1 2b,7,2,374,right,19,blue triangle,0.534,1,0
1 2b,7,2,319,left,19,blue triangle,1.063,0,0
1 2b,7,2,481,left,19,blue triangle,0.729,0,0
1 2b,7,2,583,left,19,blue triangle,0.509,0,0
1 2b,7,2,504,left,19,blue triangle,0.901,0,0
1 2b,7,2,85,right,31,blue triangle,0.631,1,0
1 2b,7,2,187,right,31,blue triangle,0.443,1,0
1 2b,7,2,192,left,31,blue triangle,0.718,0,0
1 2b,7,2,199,left,31,blue triangle,0.612,0,0
1 2b,7,2,290,left,31,blue triangle,0.621,0,0
1 2b,7,2,10,right,31,blue triangle,0.927,1,0
1 2b,7,2,315,right,0,orange circle,0.46,1,0
1 2b,7,2,164,right,0,orange circle,0.383,1,0
1 2b,7,2,52,right,0,orange circle,0.633,1,0
1 2b,7,2,628,right,0,orange circle,0.631,1,0
1 2b,7,2,432,right,0,orange circle,0.501,1,0
1 2b,7,2,544,right,0,orange circle,0.343,1,0
1 2b,7,2,327,left,1,orange circle,0.841,0,0
1 2b,7,2,135,right,1,orange circle,0.428,1,0
1 2b,7,2,471,right,1,orange circle,0.498,1,0
1 2b,7,2,461,left,1,orange circle,0.5,0,0
1 2b,7,2,360,right,1,orange circle,0.535,1,0
1 2b,7,2,458,left,1,orange circle,0.455,0,0
1 2b,7,2,277,left,4,orange circle,0.58,0,0
1 2b,7,2,383,right,4,orange circle,0.753,1,0
1 2b,7,2,384,left,4,orange circle,0.407,0,0
1 2b,7,2,107,left,4,orange circle,0.724,0,0
1 2b,7,2,14,right,4,orange circle,0.577,1,0
1 2b,7,2,242,left,4,orange circle,0.47,0,0
1 2b,7,2,245,right,9,orange circle,0.445,1,0
1 2b,7,2,27,left,9,orange circle,0.55,0,0
1 2b,7,2,29,left,9,orange circle,0.553,0,0
1 2b,7,2,149,right,9,orange circle,0.431,1,0
1 2b,7,2,609,right,9,orange circle,0.49,1,0
1 2b,7,2,552,left,9,orange circle,0.468,0,0
1 2b,7,2,547,left,19,orange circle,0.51,0,0
1 2b,7,2,326,right,19,orange circle,1.075,1,0
1 2b,7,2,133,left,19,orange circle,0.548,0,0
1 2b,7,2,529,right,19,orange circle,0.389,1,0
1 2b,7,2,283,right,19,orange circle,0.493,1,0
1 2b,7,2,302,right,19,orange circle,0.793,1,0
1 2b,7,2,516,right,31,orange circle,0.407,1,0
1 2b,7,2,18,right,31,orange circle,0.437,1,0
1 2b,7,2,271,left,31,orange circle,0.492,0,0
1 2b,7,2,170,left,31,orange circle,0.484,0,0
1 2b,7,2,578,right,31,orange circle,0.545,1,0
1 2b,7,2,184,right,31,orange circle,0.458,1,0
1 2b,7,2,311,left,0,yellow diamond,0.58,0,0
1 2b,7,2,21,left,0,yellow diamond,0.531,0,0
1 2b,7,2,496,left,0,yellow diamond,0.537,0,0
1 2b,7,2,538,right,0,yellow diamond,0.64,1,0
1 2b,7,2,23,left,0,yellow diamond,0.399,0,0
1 2b,7,2,330,right,0,yellow diamond,0.514,1,0
1 2b,7,2,473,right,1,yellow diamond,0.351,1,0
1 2b,7,2,636,right,1,yellow diamond,0.418,1,0
1 2b,7,2,366,right,1,yellow diamond,0.456,1,0
1 2b,7,2,435,right,1,yellow diamond,0.427,1,0
1 2b,7,2,585,right,1,yellow diamond,0.47,1,0
1 2b,7,2,391,right,1,yellow diamond,0.672,1,0
1 2b,7,2,503,left,4,yellow diamond,0.472,0,0
1 2b,7,2,429,right,4,yellow diamond,0.523,1,0
1 2b,7,2,580,right,4,yellow diamond,0.448,1,0
1 2b,7,2,571,left,4,yellow diamond,0.546,0,0
1 2b,7,2,19,left,4,yellow diamond,0.535,0,0
1 2b,7,2,117,left,4,yellow diamond,0.6,0,0
1 2b,7,2,275,right,9,yellow diamond,0.452,1,0
1 2b,7,2,103,right,9,yellow diamond,0.515,1,0
1 2b,7,2,488,left,9,yellow diamond,0.657,0,0
1 2b,7,2,400,left,9,yellow diamond,0.4,0,0
1 2b,7,2,321,left,9,yellow diamond,0.725,0,0
1 2b,7,2,67,right,9,yellow diamond,0.55,1,0
1 2b,7,2,379,left,19,yellow diamond,0.558,0,0
1 2b,7,2,26,right,19,yellow diamond,0.625,1,0
1 2b,7,2,506,left,19,yellow diamond,0.382,0,0
1 2b,7,2,393,left,19,yellow diamond,0.936,0,0
1 2b,7,2,375,right,19,yellow diamond,0.605,1,0
1 2b,7,2,345,left,19,yellow diamond,0.501,0,0
1 2b,7,2,238,left,31,yellow diamond,0.606,0,0
1 2b,7,2,306,right,31,yellow diamond,0.566,1,0
1 2b,7,2,235,right,31,yellow diamond,0.441,1,0
1 2b,7,2,125,left,31,yellow diamond,0.669,0,0
1 2b,7,2,206,right,31,yellow diamond,0.472,1,0
1 2b,7,2,492,left,31,yellow diamond,0.539,0,0
1 2c,7,2,537,right,0,blue diamond,0.646,1,0
1 2c,7,2,31,right,0,blue diamond,0.535,1,0
1 2c,7,2,328,left,0,blue diamond,0.796,0,0
1 2c,7,2,521,right,0,blue diamond,0.953,1,0
1 2c,7,2,510,left,0,blue diamond,0.568,0,0
1 2c,7,2,444,left,0,blue diamond,0.403,0,0
1 2c,7,2,507,left,1,blue diamond,0.623,0,0
1 2c,7,2,375,left,1,blue diamond,0.786,0,0
1 2c,7,2,337,left,1,blue diamond,0.794,0,0
1 2c,7,2,636,right,1,blue diamond,0.519,1,0
1 2c,7,2,113,right,1,blue diamond,0.72,1,0
1 2c,7,2,160,left,1,blue diamond,0.456,0,0
1 2c,7,2,491,left,4,blue diamond,0.733,0,0
1 2c,7,2,442,right,4,blue diamond,0.531,1,0
1 2c,7,2,16,right,4,blue diamond,0.796,1,0
1 2c,7,2,309,left,4,blue diamond,0.693,0,0
1 2c,7,2,204,right,4,blue diamond,0.638,1,0
1 2c,7,2,289,left,4,blue diamond,0.972,0,0
1 2c,7,2,363,right,9,blue diamond,0.375,1,0
1 2c,7,2,308,right,9,blue diamond,0.457,1,0
1 2c,7,2,499,right,9,blue diamond,0.676,1,0
1 2c,7,2,588,left,9,blue diamond,0.651,0,0
1 2c,7,2,361,left,9,blue diamond,0.974,0,0
1 2c,7,2,366,left,9,blue diamond,0.575,0,0
1 2c,7,2,582,left,19,blue diamond,0.506,0,0
1 2c,7,2,291,left,19,blue diamond,0.744,0,0
1 2c,7,2,273,right,19,blue diamond,0.89,1,0
1 2c,7,2,173,left,19,blue diamond,0.682,0,0
1 2c,7,2,462,right,19,blue diamond,0.662,1,0
1 2c,7,2,149,left,19,blue diamond,0.615,0,0
1 2c,7,2,189,left,31,blue diamond,0.642,0,0
1 2c,7,2,46,right,31,blue diamond,0.489,1,0
1 2c,7,2,370,right,31,blue diamond,0.489,1,0
1 2c,7,2,187,left,31,blue diamond,0.854,0,0
1 2c,7,2,268,left,31,blue diamond,0.644,0,0
1 2c,7,2,243,right,31,blue diamond,0.671,1,0
1 2c,7,2,296,right,0,orange triangle,0.446,1,0
1 2c,7,2,284,left,0,orange triangle,0.599,0,0
1 2c,7,2,537,right,0,orange triangle,0.646,1,0
1 2c,7,2,573,right,0,orange triangle,0.557,1,0
1 2c,7,2,635,right,0,orange triangle,0.382,1,0
1 2c,7,2,521,right,0,orange triangle,0.953,1,0
1 2c,7,2,191,left,1,orange triangle,0.602,0,0
1 2c,7,2,237,left,1,orange triangle,0.494,0,0
1 2c,7,2,607,left,1,orange triangle,0.753,0,0
1 2c,7,2,198,right,1,orange triangle,0.6,1,0
1 2c,7,2,430,left,1,orange triangle,0.418,0,0
1 2c,7,2,395,right,1,orange triangle,0.818,1,0
1 2c,7,2,485,right,4,orange triangle,0.409,1,0
1 2c,7,2,293,left,4,orange triangle,0.433,0,0
1 2c,7,2,453,left,4,orange triangle,0.625,0,0
1 2c,7,2,373,right,4,orange triangle,0.432,1,0
1 2c,7,2,315,left,4,orange triangle,0.497,0,0
1 2c,7,2,557,right,4,orange triangle,0.512,1,0
1 2c,7,2,73,left,9,orange triangle,0.853,0,0
1 2c,7,2,251,left,9,orange triangle,0.504,0,0
1 2c,7,2,218,left,9,orange triangle,0.542,0,0
1 2c,7,2,241,right,9,orange triangle,0.531,1,0
1 2c,7,2,32,left,9,orange triangle,0.601,0,0
1 2c,7,2,178,left,9,orange triangle,0.682,0,0
1 2c,7,2,613,right,19,orange triangle,0.361,1,0
1 2c,7,2,342,left,19,orange triangle,0.639,0,0
1 2c,7,2,36,right,19,orange triangle,0.738,1,0
1 2c,7,2,230,right,19,orange triangle,0.361,1,0
1 2c,7,2,534,left,19,orange triangle,0.691,0,0
1 2c,7,2,96,right,19,orange triangle,0.387,1,0
1 2c,7,2,158,left,31,orange triangle,0.593,0,0
1 2c,7,2,71,right,31,orange triangle,0.606,1,0
1 2c,7,2,344,right,31,orange triangle,0.696,1,0
1 2c,7,2,224,left,31,orange triangle,0.703,0,0
1 2c,7,2,390,left,31,orange triangle,0.449,0,0
1 2c,7,2,108,right,31,orange triangle,0.822,1,0
1 2c,7,2,284,left,0,yellow circle,0.599,0,0
1 2c,7,2,510,left,0,yellow circle,0.568,0,0
1 2c,7,2,177,left,0,yellow circle,0.553,0,0
1 2c,7,2,573,right,0,yellow circle,0.557,1,0
1 2c,7,2,635,right,0,yellow circle,0.382,1,0
1 2c,7,2,581,left,0,yellow circle,0.392,0,0
1 2c,7,2,114,left,1,yellow circle,0.459,0,0
1 2c,7,2,132,left,1,yellow circle,0.596,0,0
1 2c,7,2,49,left,1,yellow circle,0.853,0,0
1 2c,7,2,277,right,1,yellow circle,0.641,1,0
1 2c,7,2,421,left,1,yellow circle,0.391,0,0
1 2c,7,2,347,right,1,yellow circle,0.44,1,0
1 2c,7,2,338,left,4,yellow circle,0.994,0,0
1 2c,7,2,526,right,4,yellow circle,0.515,1,0
1 2c,7,2,459,right,4,yellow circle,0.698,1,0
1 2c,7,2,566,right,4,yellow circle,0.581,1,0
1 2c,7,2,255,left,4,yellow circle,0.547,0,0
1 2c,7,2,567,left,4,yellow circle,0.605,0,0
1 2c,7,2,524,left,9,yellow circle,0.416,0,0
1 2c,7,2,281,left,9,yellow circle,1.343,0,0
1 2c,7,2,378,left,9,yellow circle,0.558,0,0
1 2c,7,2,585,right,9,yellow circle,0.652,1,0
1 2c,7,2,612,right,9,yellow circle,0.562,1,0
1 2c,7,2,471,right,9,yellow circle,0.505,1,0
1 2c,7,2,638,right,19,yellow circle,0.668,1,0
1 2c,7,2,450,left,19,yellow circle,0.574,0,0
1 2c,7,2,530,left,19,yellow circle,0.578,0,0
1 2c,7,2,22,left,19,yellow circle,0.5,0,0
1 2c,7,2,541,left,19,yellow circle,0.528,0,0
1 2c,7,2,105,right,19,yellow circle,0.493,1,0
1 2c,7,2,381,left,31,yellow circle,0.49,0,0
1 2c,7,2,42,left,31,yellow circle,0.826,0,0
1 2c,7,2,59,right,31,yellow circle,0.546,1,0
1 2c,7,2,505,right,31,yellow circle,0.949,1,0
1 2c,7,2,595,right,31,yellow circle,0.61,1,0
1 2c,7,2,626,right,31,yellow circle,0.486,1,0
1 3a,16,3,81,right,0,blue,0.468,1,0
1 3a,16,3,580,left,0,blue,0.444,0,0
1 3a,16,3,24,right,0,blue,0.542,1,0
1 3a,16,3,289,right,0,blue,0.397,1,0
1 3a,16,3,385,left,0,blue,0.649,0,0
1 3a,16,3,561,right,0,blue,0.886,1,0
1 3a,16,3,585,right,1,blue,0.571,1,0
1 3a,16,3,245,left,1,blue,0.466,0,0
1 3a,16,3,85,right,1,blue,0.496,1,0
1 3a,16,3,283,right,1,blue,0.383,1,0
1 3a,16,3,520,left,1,blue,0.427,0,0
1 3a,16,3,263,left,1,blue,0.376,0,0
1 3a,16,3,80,left,4,blue,0.654,0,0
1 3a,16,3,213,left,4,blue,0.384,0,0
1 3a,16,3,172,left,4,blue,0.417,0,0
1 3a,16,3,353,left,4,blue,0.768,0,0
1 3a,16,3,367,right,4,blue,0.735,1,0
1 3a,16,3,514,left,4,blue,0.468,0,0
1 3a,16,3,340,left,9,blue,0.466,0,0
1 3a,16,3,51,left,9,blue,0.614,0,0
1 3a,16,3,460,left,9,blue,0.404,0,0
1 3a,16,3,159,right,9,blue,0.591,1,0
1 3a,16,3,185,left,9,blue,0.529,0,0
1 3a,16,3,559,left,9,blue,0.492,0,0
1 3a,16,3,15,right,19,blue,0.51,1,0
1 3a,16,3,430,left,19,blue,0.917,0,0
1 3a,16,3,259,left,19,blue,0.505,0,0
1 3a,16,3,171,right,19,blue,0.582,1,0
1 3a,16,3,231,right,19,blue,0.574,1,0
1 3a,16,3,114,left,19,blue,0.451,0,0
1 3a,16,3,197,right,31,blue,0.5,1,0
1 3a,16,3,394,right,31,blue,0.419,1,0
1 3a,16,3,45,right,31,blue,0.508,1,0
1 3a,16,3,466,right,31,blue,0.515,1,0
1 3a,16,3,628,right,31,blue,0.465,1,0
1 3a,16,3,500,right,31,blue,0.527,1,0
1 3a,16,3,139,right,0,orange,0.674,1,0
1 3a,16,3,336,left,0,orange,0.381,0,0
1 3a,16,3,141,left,0,orange,0.677,0,0
1 3a,16,3,91,right,0,orange,0.438,1,0
1 3a,16,3,188,left,0,orange,0.524,0,0
1 3a,16,3,9,left,0,orange,0.501,0,0
1 3a,16,3,69,left,1,orange,0.508,0,0
1 3a,16,3,68,right,1,orange,0.512,1,0
1 3a,16,3,592,left,1,orange,0.406,0,0
1 3a,16,3,440,left,1,orange,0.4,0,0
1 3a,16,3,248,right,1,orange,0.63,1,0
1 3a,16,3,42,left,1,orange,0.432,0,0
1 3a,16,3,361,right,4,orange,0.767,1,0
1 3a,16,3,555,right,4,orange,0.54,1,0
1 3a,16,3,532,left,4,orange,0.797,0,0
1 3a,16,3,483,left,4,orange,0.406,0,0
1 3a,16,3,330,right,4,orange,0.57,1,0
1 3a,16,3,551,right,4,orange,0.802,1,0
1 3a,16,3,38,right,9,orange,0.565,1,0
1 3a,16,3,388,right,9,orange,0.461,1,0
1 3a,16,3,322,left,9,orange,0.622,0,0
1 3a,16,3,627,left,9,orange,0.547,0,0
1 3a,16,3,594,left,9,orange,0.825,0,0
1 3a,16,3,380,left,9,orange,0.767,0,0
1 3a,16,3,535,right,19,orange,0.744,1,0
1 3a,16,3,481,left,19,orange,0.91,0,0
1 3a,16,3,496,right,19,orange,0.561,1,0
1 3a,16,3,563,left,19,orange,0.51,0,0
1 3a,16,3,55,right,19,orange,0.491,1,0
1 3a,16,3,94,right,19,orange,0.984,1,0
1 3a,16,3,125,left,31,orange,0.471,0,0
1 3a,16,3,99,right,31,orange,0.548,1,0
1 3a,16,3,349,right,31,orange,0.405,1,0
1 3a,16,3,352,right,31,orange,0.683,1,0
1 3a,16,3,153,left,31,orange,0.481,0,0
1 3a,16,3,178,right,31,orange,0.734,1,0
1 3a,16,3,490,left,0,yellow,0.344,0,0
1 3a,16,3,616,right,0,yellow,0.416,1,0
1 3a,16,3,31,left,0,yellow,0.408,0,0
1 3a,16,3,600,left,0,yellow,0.442,0,0
1 3a,16,3,471,right,0,yellow,0.518,1,0
1 3a,16,3,587,right,0,yellow,0.457,1,0
1 3a,16,3,6,right,1,yellow,0.417,1,0
1 3a,16,3,531,left,1,yellow,0.403,0,0
1 3a,16,3,518,right,1,yellow,0.506,1,0
1 3a,16,3,75,left,1,yellow,0.568,0,0
1 3a,16,3,29,right,1,yellow,0.407,1,0
1 3a,16,3,238,left,1,yellow,0.526,0,0
1 3a,16,3,134,right,4,yellow,0.536,1,0
1 3a,16,3,391,right,4,yellow,0.451,1,0
1 3a,16,3,179,left,4,yellow,0.545,0,0
1 3a,16,3,423,left,4,yellow,0.371,0,0
1 3a,16,3,365,left,4,yellow,0.404,0,0
1 3a,16,3,369,left,4,yellow,0.37,0,0
1 3a,16,3,323,left,9,yellow,0.4,0,0
1 3a,16,3,578,right,9,yellow,0.532,1,0
1 3a,16,3,246,right,9,yellow,0.699,1,0
1 3a,16,3,102,left,9,yellow,0.485,0,0
1 3a,16,3,357,left,9,yellow,0.4,0,0
1 3a,16,3,293,right,9,yellow,0.423,1,0
1 3a,16,3,1,right,19,yellow,0.655,1,0
1 3a,16,3,307,right,19,yellow,0.409,1,0
1 3a,16,3,473,right,19,yellow,0.421,1,0
1 3a,16,3,462,right,19,yellow,0.486,1,0
1 3a,16,3,314,right,19,yellow,0.469,1,0
1 3a,16,3,34,right,19,yellow,0.678,1,0
1 3a,16,3,53,right,31,yellow,0.716,1,0
1 3a,16,3,415,right,31,yellow,0.562,1,0
1 3a,16,3,122,left,31,yellow,0.523,0,0
1 3a,16,3,78,left,31,yellow,0.975,0,0
1 3a,16,3,373,right,31,yellow,0.523,1,0
1 3a,16,3,338,right,31,yellow,0.471,1,0
1 3b,7,3,495,right,0,circle,0.564,1,0
1 3b,7,3,328,left,0,circle,0.471,0,0
1 3b,7,3,334,left,0,circle,0.452,0,0
1 3b,7,3,92,right,0,circle,0.445,1,0
1 3b,7,3,227,left,0,circle,0.529,0,0
1 3b,7,3,168,right,0,circle,0.497,1,0
1 3b,7,3,200,left,1,circle,0.647,0,0
1 3b,7,3,594,left,1,circle,0.335,0,0
1 3b,7,3,80,right,1,circle,0.492,1,0
1 3b,7,3,565,right,1,circle,0.775,1,0
1 3b,7,3,84,right,1,circle,0.536,1,0
1 3b,7,3,626,left,1,circle,0.563,0,0
1 3b,7,3,44,right,4,circle,0.527,1,0
1 3b,7,3,4,left,4,circle,0.5,0,0
1 3b,7,3,617,right,4,circle,0.633,1,0
1 3b,7,3,416,right,4,circle,0.399,1,0
1 3b,7,3,297,left,4,circle,0.5,0,0
1 3b,7,3,493,right,4,circle,0.421,1,0
1 3b,7,3,319,left,9,circle,0.439,0,0
1 3b,7,3,310,left,9,circle,0.42,0,0
1 3b,7,3,469,left,9,circle,0.541,0,0
1 3b,7,3,116,left,9,circle,0.539,0,0
1 3b,7,3,230,left,9,circle,0.593,0,0
1 3b,7,3,593,right,9,circle,0.872,1,0
1 3b,7,3,265,left,19,circle,0.469,0,0
1 3b,7,3,568,left,19,circle,0.442,0,0
1 3b,7,3,189,left,19,circle,0.498,0,0
1 3b,7,3,71,left,19,circle,0.657,0,0
1 3b,7,3,488,left,19,circle,0.449,0,0
1 3b,7,3,269,left,19,circle,0.423,0,0
1 3b,7,3,263,right,31,circle,0.581,1,0
1 3b,7,3,607,left,31,circle,0.58,0,0
1 3b,7,3,111,left,31,circle,0.634,0,0
1 3b,7,3,425,left,31,circle,0.512,0,0
1 3b,7,3,289,left,31,circle,0.471,0,0
1 3b,7,3,114,right,31,circle,0.491,1,0
1 3b,7,3,338,left,0,diamond,0.432,0,0
1 3b,7,3,434,right,0,diamond,0.444,1,0
1 3b,7,3,611,right,0,diamond,0.511,1,0
1 3b,7,3,93,left,0,diamond,0.434,0,0
1 3b,7,3,73,left,0,diamond,0.406,0,0
1 3b,7,3,41,right,0,diamond,0.519,1,0
1 3b,7,3,427,left,1,diamond,0.469,0,0
1 3b,7,3,42,left,1,diamond,0.441,0,0
1 3b,7,3,505,right,1,diamond,0.501,1,0
1 3b,7,3,167,left,1,diamond,0.475,0,0
1 3b,7,3,173,right,1,diamond,0.442,1,0
1 3b,7,3,580,right,1,diamond,0.539,1,0
1 3b,7,3,393,right,4,diamond,1.07,1,0
1 3b,7,3,539,left,4,diamond,0.523,0,0
1 3b,7,3,299,right,4,diamond,1.298,1,0
1 3b,7,3,243,left,4,diamond,0.452,0,0
1 3b,7,3,102,left,4,diamond,0.457,0,0
1 3b,7,3,547,left,4,diamond,0.5,0,0
1 3b,7,3,549,left,9,diamond,0.605,0,0
1 3b,7,3,270,left,9,diamond,0.605,0,0
1 3b,7,3,430,right,9,diamond,0.455,1,0
1 3b,7,3,191,left,9,diamond,0.595,0,0
1 3b,7,3,267,left,9,diamond,0.574,0,0
1 3b,7,3,260,right,9,diamond,0.524,1,0
1 3b,7,3,21,right,19,diamond,0.507,1,0
1 3b,7,3,128,right,19,diamond,0.786,1,0
1 3b,7,3,76,right,19,diamond,0.464,1,0
1 3b,7,3,552,left,19,diamond,0.606,0,0
1 3b,7,3,591,right,19,diamond,0.842,1,0
1 3b,7,3,79,right,19,diamond,0.484,1,0
1 3b,7,3,356,left,31,diamond,0.601,0,0
1 3b,7,3,411,right,31,diamond,0.509,1,0
1 3b,7,3,629,left,31,diamond,0.922,0,0
1 3b,7,3,278,left,31,diamond,0.496,0,0
1 3b,7,3,139,left,31,diamond,0.773,0,0
1 3b,7,3,550,left,31,diamond,0.582,0,0
1 3b,7,3,41,right,0,semicircle,0.519,1,0
1 3b,7,3,168,right,0,semicircle,0.497,1,0
1 3b,7,3,178,right,0,semicircle,0.503,1,0
1 3b,7,3,582,right,0,semicircle,0.523,1,0
1 3b,7,3,623,left,0,semicircle,0.578,0,0
1 3b,7,3,222,right,0,semicircle,0.568,1,0
1 3b,7,3,536,right,1,semicircle,0.627,1,0
1 3b,7,3,30,right,1,semicircle,0.524,1,0
1 3b,7,3,333,left,1,semicircle,0.46,0,0
1 3b,7,3,322,left,1,semicircle,0.403,0,0
1 3b,7,3,579,right,1,semicircle,0.467,1,0
1 3b,7,3,456,right,1,semicircle,0.471,1,0
1 3b,7,3,443,right,4,semicircle,0.755,1,0
1 3b,7,3,158,left,4,semicircle,0.401,0,0
1 3b,7,3,610,left,4,semicircle,0.492,0,0
1 3b,7,3,18,right,4,semicircle,0.595,1,0
1 3b,7,3,496,right,4,semicircle,0.503,1,0
1 3b,7,3,262,left,4,semicircle,0.599,0,0
1 3b,7,3,124,right,9,semicircle,0.531,1,0
1 3b,7,3,16,right,9,semicircle,0.574,1,0
1 3b,7,3,600,right,9,semicircle,0.719,1,0
1 3b,7,3,618,left,9,semicircle,1.006,0,0
1 3b,7,3,371,right,9,semicircle,0.434,1,0
1 3b,7,3,347,right,9,semicircle,0.879,1,0
1 3b,7,3,34,right,19,semicircle,0.614,1,0
1 3b,7,3,595,left,19,semicircle,0.511,0,0
1 3b,7,3,250,left,19,semicircle,0.807,0,0
1 3b,7,3,253,right,19,semicircle,0.91,1,0
1 3b,7,3,27,right,19,semicircle,1.279,1,0
1 3b,7,3,490,left,19,semicircle,0.606,0,0
1 3b,7,3,292,left,31,semicircle,0.783,0,0
1 3b,7,3,210,left,31,semicircle,0.536,0,0
1 3b,7,3,122,left,31,semicircle,1.041,0,0
1 3b,7,3,190,left,31,semicircle,1.406,0,0
1 3b,7,3,131,left,31,semicircle,0.499,0,0
1 3b,7,3,306,left,31,semicircle,0.871,0,0
1 4a,19,4,481,right,0,blue circle,0.574,1,0
1 4a,19,4,251,right,0,blue circle,0.49,1,0
1 4a,19,4,562,left,0,blue circle,0.966,0,0
1 4a,19,4,260,right,0,blue circle,0.553,1,0
1 4a,19,4,302,left,0,blue circle,0.497,0,0
1 4a,19,4,589,right,0,blue circle,0.527,1,0
1 4a,19,4,108,left,1,blue circle,0.607,0,0
1 4a,19,4,252,right,1,blue circle,0.608,1,0
1 4a,19,4,52,left,1,blue circle,0.414,0,0
1 4a,19,4,640,right,1,blue circle,0.601,1,0
1 4a,19,4,629,left,1,blue circle,0.613,0,0
1 4a,19,4,566,right,1,blue circle,0.623,1,0
1 4a,19,4,439,left,4,blue circle,0.569,0,0
1 4a,19,4,339,right,4,blue circle,0.509,1,0
1 4a,19,4,386,left,4,blue circle,0.708,0,0
1 4a,19,4,491,left,4,blue circle,0.481,0,0
1 4a,19,4,351,right,4,blue circle,0.642,1,0
1 4a,19,4,76,right,4,blue circle,0.525,1,0
1 4a,19,4,198,right,9,blue circle,0.481,1,0
1 4a,19,4,555,left,9,blue circle,0.47,0,0
1 4a,19,4,158,left,9,blue circle,0.806,0,0
1 4a,19,4,147,right,9,blue circle,0.758,1,0
1 4a,19,4,231,left,9,blue circle,0.936,0,0
1 4a,19,4,477,left,9,blue circle,0.505,0,0
1 4a,19,4,167,right,19,blue circle,0.653,1,0
1 4a,19,4,327,right,19,blue circle,0.668,1,0
1 4a,19,4,178,right,19,blue circle,0.469,1,0
1 4a,19,4,140,right,19,blue circle,0.573,1,0
1 4a,19,4,96,left,19,blue circle,0.572,0,0
1 4a,19,4,612,left,19,blue circle,0.511,0,0
1 4a,19,4,104,right,31,blue circle,0.573,1,0
1 4a,19,4,467,left,31,blue circle,0.523,0,0
1 4a,19,4,601,right,31,blue circle,0.529,1,0
1 4a,19,4,584,right,31,blue circle,0.439,1,0
1 4a,19,4,156,right,31,blue circle,0.533,1,0
1 4a,19,4,554,left,31,blue circle,0.525,0,0
1 4a,19,4,249,right,0,orange diamond,0.468,1,0
1 4a,19,4,616,left,0,orange diamond,0.655,0,0
1 4a,19,4,173,left,0,orange diamond,0.44,0,0
1 4a,19,4,159,left,0,orange diamond,0.569,0,0
1 4a,19,4,2,left,0,orange diamond,0.42,0,0
1 4a,19,4,229,right,0,orange diamond,0.463,1,0
1 4a,19,4,383,left,1,orange diamond,0.634,0,0
1 4a,19,4,378,left,1,orange diamond,0.575,0,0
1 4a,19,4,519,left,1,orange diamond,0.964,0,0
1 4a,19,4,475,right,1,orange diamond,0.635,1,0
1 4a,19,4,513,right,1,orange diamond,0.811,1,0
1 4a,19,4,98,left,1,orange diamond,0.621,0,0
1 4a,19,4,420,right,4,orange diamond,0.472,1,0
1 4a,19,4,521,left,4,orange diamond,0.602,0,0
1 4a,19,4,23,left,4,orange diamond,0.52,0,0
1 4a,19,4,102,left,4,orange diamond,0.504,0,0
1 4a,19,4,29,left,4,orange diamond,0.483,0,0
1 4a,19,4,179,left,4,orange diamond,0.594,0,0
1 4a,19,4,45,right,9,orange diamond,0.729,1,0
1 4a,19,4,509,left,9,orange diamond,0.752,0,0
1 4a,19,4,592,left,9,orange diamond,0.552,0,0
1 4a,19,4,597,left,9,orange diamond,0.476,0,0
1 4a,19,4,638,left,9,orange diamond,0.526,0,0
1 4a,19,4,225,left,9,orange diamond,0.867,0,0
1 4a,19,4,154,right,19,orange diamond,0.622,1,0
1 4a,19,4,625,right,19,orange diamond,0.6,1,0
1 4a,19,4,268,right,19,orange diamond,0.456,1,0
1 4a,19,4,57,right,19,orange diamond,0.626,1,0
1 4a,19,4,267,right,19,orange diamond,0.755,1,0
1 4a,19,4,536,left,19,orange diamond,0.623,0,0
1 4a,19,4,205,left,31,orange diamond,0.648,0,0
1 4a,19,4,500,left,31,orange diamond,0.672,0,0
1 4a,19,4,622,left,31,orange diamond,0.519,0,0
1 4a,19,4,556,left,31,orange diamond,0.56,0,0
1 4a,19,4,380,right,31,orange diamond,0.637,1,0
1 4a,19,4,186,left,31,orange diamond,0.498,0,0
1 4a,19,4,2,left,0,yellow semicircle,0.42,0,0
1 4a,19,4,260,right,0,yellow semicircle,0.553,1,0
1 4a,19,4,368,left,0,yellow semicircle,0.594,0,0
1 4a,19,4,201,right,0,yellow semicircle,0.55,1,0
1 4a,19,4,460,right,0,yellow semicircle,0.5,1,0
1 4a,19,4,481,right,0,yellow semicircle,0.574,1,0
1 4a,19,4,73,left,1,yellow semicircle,0.453,0,0
1 4a,19,4,524,right,1,yellow semicircle,0.346,1,0
1 4a,19,4,257,left,1,yellow semicircle,0.654,0,0
1 4a,19,4,121,right,1,yellow semicircle,0.638,1,0
1 4a,19,4,429,right,1,yellow semicircle,0.54,1,0
1 4a,19,4,160,right,1,yellow semicircle,0.54,1,0
1 4a,19,4,508,right,4,yellow semicircle,0.553,1,0
1 4a,19,4,393,right,4,yellow semicircle,0.599,1,0
1 4a,19,4,594,right,4,yellow semicircle,0.492,1,0
1 4a,19,4,6,left,4,yellow semicircle,0.346,0,0
1 4a,19,4,273,right,4,yellow semicircle,0.775,1,0
1 4a,19,4,213,right,4,yellow semicircle,0.646,1,0
1 4a,19,4,510,left,9,yellow semicircle,0.575,0,0
1 4a,19,4,295,right,9,yellow semicircle,0.487,1,0
1 4a,19,4,97,left,9,yellow semicircle,0.466,0,0
1 4a,19,4,81,left,9,yellow semicircle,0.586,0,0
1 4a,19,4,227,left,9,yellow semicircle,0.75,0,0
1 4a,19,4,527,right,9,yellow semicircle,0.435,1,0
1 4a,19,4,150,right,19,yellow semicircle,1.051,1,0
1 4a,19,4,333,left,19,yellow semicircle,0.569,0,0
1 4a,19,4,534,left,19,yellow semicircle,0.354,0,0
1 4a,19,4,376,left,19,yellow semicircle,0.558,0,0
1 4a,19,4,207,left,19,yellow semicircle,0.558,0,0
1 4a,19,4,608,right,19,yellow semicircle,0.504,1,0
1 4a,19,4,294,left,31,yellow semicircle,0.465,0,0
1 4a,19,4,300,right,31,yellow semicircle,0.612,1,0
1 4a,19,4,59,right,31,yellow semicircle,0.693,1,0
1 4a,19,4,336,left,31,yellow semicircle,0.62,0,0
1 4a,19,4,549,left,31,yellow semicircle,0.447,0,0
1 4a,19,4,505,right,31,yellow semicircle,0.667,1,0
1 4b,14,4,59,left,0,blue semicircle,0.48,0,0
1 4b,14,4,90,left,0,blue semicircle,0.387,0,0
1 4b,14,4,25,left,0,blue semicircle,0.454,0,0
1 4b,14,4,250,right,0,blue semicircle,0.446,1,0
1 4b,14,4,34,left,0,blue semicircle,0.672,0,0
1 4b,14,4,500,left,0,blue semicircle,0.864,0,0
1 4b,14,4,612,left,1,blue semicircle,0.407,0,0
1 4b,14,4,475,left,1,blue semicircle,0.389,0,0
1 4b,14,4,328,left,1,blue semicircle,0.488,0,0
1 4b,14,4,306,left,1,blue semicircle,0.529,0,0
1 4b,14,4,32,right,1,blue semicircle,0.693,1,0
1 4b,14,4,489,left,1,blue semicircle,0.386,0,0
1 4b,14,4,107,left,4,blue semicircle,0.565,0,0
1 4b,14,4,363,right,4,blue semicircle,0.569,1,0
1 4b,14,4,528,right,4,blue semicircle,0.454,1,0
1 4b,14,4,70,right,4,blue semicircle,0.544,1,0
1 4b,14,4,309,right,4,blue semicircle,0.637,1,0
1 4b,14,4,109,left,4,blue semicircle,0.688,0,0
1 4b,14,4,265,left,9,blue semicircle,0.42,0,0
1 4b,14,4,351,left,9,blue semicircle,0.521,0,0
1 4b,14,4,329,right,9,blue semicircle,0.374,1,0
1 4b,14,4,99,left,9,blue semicircle,0.459,0,0
1 4b,14,4,427,left,9,blue semicircle,0.642,0,0
1 4b,14,4,448,left,9,blue semicircle,0.51,0,0
1 4b,14,4,122,left,19,blue semicircle,0.36,0,0
1 4b,14,4,221,right,19,blue semicircle,0.495,1,0
1 4b,14,4,87,left,19,blue semicircle,0.459,0,0
1 4b,14,4,116,left,19,blue semicircle,0.875,0,0
1 4b,14,4,558,left,19,blue semicircle,0.472,0,0
1 4b,14,4,239,left,19,blue semicircle,0.446,0,0
1 4b,14,4,457,right,31,blue semicircle,0.452,1,0
1 4b,14,4,135,left,31,blue semicircle,0.457,0,0
1 4b,14,4,562,left,31,blue semicircle,0.418,0,0
1 4b,14,4,367,left,31,blue semicircle,0.363,0,0
1 4b,14,4,357,left,31,blue semicircle,0.446,0,0
1 4b,14,4,425,left,31,blue semicircle,0.446,0,0
1 4b,14,4,164,right,0,orange circle,0.329,1,0
1 4b,14,4,25,left,0,orange circle,0.454,0,0
1 4b,14,4,94,left,0,orange circle,0.79,0,0
1 4b,14,4,441,right,0,orange circle,0.459,1,0
1 4b,14,4,509,right,0,orange circle,0.545,1,0
1 4b,14,4,313,left,0,orange circle,0.534,0,0
1 4b,14,4,591,left,1,orange circle,0.504,0,0
1 4b,14,4,67,right,1,orange circle,0.414,1,0
1 4b,14,4,488,left,1,orange circle,0.401,0,0
1 4b,14,4,480,left,1,orange circle,0.475,0,0
1 4b,14,4,519,right,1,orange circle,0.491,1,0
1 4b,14,4,40,left,1,orange circle,0.469,0,0
1 4b,14,4,42,right,4,orange circle,0.579,1,0
1 4b,14,4,492,left,4,orange circle,0.507,0,0
1 4b,14,4,30,right,4,orange circle,0.554,1,0
1 4b,14,4,370,right,4,orange circle,0.406,1,0
1 4b,14,4,460,right,4,orange circle,0.503,1,0
1 4b,14,4,491,left,4,orange circle,0.468,0,0
1 4b,14,4,391,left,9,orange circle,0.529,0,0
1 4b,14,4,55,left,9,orange circle,0.92,0,0
1 4b,14,4,143,left,9,orange circle,0.688,0,0
1 4b,14,4,272,right,9,orange circle,0.601,1,0
1 4b,14,4,320,right,9,orange circle,0.493,1,0
1 4b,14,4,217,left,9,orange circle,0.454,0,0
1 4b,14,4,61,right,19,orange circle,0.384,1,0
1 4b,14,4,95,left,19,orange circle,0.644,0,0
1 4b,14,4,469,right,19,orange circle,0.452,1,0
1 4b,14,4,148,right,19,orange circle,0.619,1,0
1 4b,14,4,582,left,19,orange circle,0.476,0,0
1 4b,14,4,278,left,19,orange circle,0.377,0,0
1 4b,14,4,638,right,31,orange circle,1.486,1,0
1 4b,14,4,436,left,31,orange circle,0.465,0,0
1 4b,14,4,97,left,31,orange circle,0.478,0,0
1 4b,14,4,547,right,31,orange circle,0.457,1,0
1 4b,14,4,364,left,31,orange circle,0.506,0,0
1 4b,14,4,559,right,31,orange circle,0.847,1,0
1 4b,14,4,403,right,0,yellow diamond,0.391,1,0
1 4b,14,4,90,left,0,yellow diamond,0.387,0,0
1 4b,14,4,216,right,0,yellow diamond,0.389,1,0
1 4b,14,4,623,left,0,yellow diamond,0.512,0,0
1 4b,14,4,287,right,0,yellow diamond,0.516,1,0
1 4b,14,4,85,left,0,yellow diamond,0.521,0,0
1 4b,14,4,167,left,1,yellow diamond,0.384,0,0
1 4b,14,4,402,right,1,yellow diamond,0.482,1,0
1 4b,14,4,346,left,1,yellow diamond,0.376,0,0
1 4b,14,4,341,right,1,yellow diamond,0.526,1,0
1 4b,14,4,204,right,1,yellow diamond,0.467,1,0
1 4b,14,4,578,right,1,yellow diamond,0.871,1,0
1 4b,14,4,567,right,4,yellow diamond,0.652,1,0
1 4b,14,4,385,right,4,yellow diamond,0.625,1,0
1 4b,14,4,350,right,4,yellow diamond,0.744,1,0
1 4b,14,4,246,left,4,yellow diamond,0.461,0,0
1 4b,14,4,571,right,4,yellow diamond,0.46,1,0
1 4b,14,4,170,left,4,yellow diamond,0.383,0,0
1 4b,14,4,531,left,9,yellow diamond,0.366,0,0
1 4b,14,4,349,right,9,yellow diamond,0.732,1,0
1 4b,14,4,586,left,9,yellow diamond,0.358,0,0
1 4b,14,4,298,left,9,yellow diamond,0.776,0,0
1 4b,14,4,110,left,9,yellow diamond,0.504,0,0
1 4b,14,4,19,right,9,yellow diamond,0.463,1,0
1 4b,14,4,10,right,19,yellow diamond,0.432,1,0
1 4b,14,4,587,left,19,yellow diamond,0.498,0,0
1 4b,14,4,609,right,19,yellow diamond,0.439,1,0
1 4b,14,4,147,left,19,yellow diamond,0.4,0,0
1 4b,14,4,599,left,19,yellow diamond,1.016,0,0
1 4b,14,4,358,left,19,yellow diamond,0.371,0,0
1 4b,14,4,282,left,31,yellow diamond,0.476,0,0
1 4b,14,4,158,right,31,yellow diamond,0.445,1,0
1 4b,14,4,439,right,31,yellow diamond,0.373,1,0
1 4b,14,4,569,left,31,yellow diamond,0.545,0,0
1 4b,14,4,58,left,31,yellow diamond,0.476,0,0
1 4b,14,4,155,left,31,yellow diamond,0.362,0,0
1 4c,19,4,340,left,0,blue diamond,0.331,0,0
1 4c,19,4,605,left,0,blue diamond,0.403,0,0
1 4c,19,4,42,right,0,blue diamond,0.478,1,0
1 4c,19,4,550,left,0,blue diamond,0.361,0,0
1 4c,19,4,182,left,0,blue diamond,0.447,0,0
1 4c,19,4,439,left,0,blue diamond,0.512,0,0
1 4c,19,4,385,right,1,blue diamond,0.46,1,0
1 4c,19,4,97,right,1,blue diamond,0.342,1,0
1 4c,19,4,565,left,1,blue diamond,0.544,0,0
1 4c,19,4,24,left,1,blue diamond,0.406,0,0
1 4c,19,4,19,left,1,blue diamond,0.388,0,0
1 4c,19,4,175,left,1,blue diamond,0.486,0,0
1 4c,19,4,271,right,4,blue diamond,0.34,1,0
1 4c,19,4,221,left,4,blue diamond,0.351,0,0
1 4c,19,4,70,right,4,blue diamond,0.424,1,0
1 4c,19,4,227,left,4,blue diamond,0.413,0,0
1 4c,19,4,477,left,4,blue diamond,0.485,0,0
1 4c,19,4,561,left,4,blue diamond,0.8,0,0
1 4c,19,4,88,left,9,blue diamond,0.432,0,0
1 4c,19,4,415,left,9,blue diamond,0.448,0,0
1 4c,19,4,522,right,9,blue diamond,0.437,1,0
1 4c,19,4,341,right,9,blue diamond,0.427,1,0
1 4c,19,4,18,left,9,blue diamond,0.515,0,0
1 4c,19,4,410,right,9,blue diamond,0.36,1,0
1 4c,19,4,434,left,19,blue diamond,0.542,0,0
1 4c,19,4,94,left,19,blue diamond,0.451,0,0
1 4c,19,4,22,right,19,blue diamond,0.571,1,0
1 4c,19,4,575,right,19,blue diamond,0.382,1,0
1 4c,19,4,6,left,19,blue diamond,0.484,0,0
1 4c,19,4,500,right,19,blue diamond,0.351,1,0
1 4c,19,4,473,right,31,blue diamond,0.35,1,0
1 4c,19,4,380,left,31,blue diamond,0.438,0,0
1 4c,19,4,590,right,31,blue diamond,0.385,1,0
1 4c,19,4,343,right,31,blue diamond,0.413,1,0
1 4c,19,4,146,left,31,blue diamond,0.454,0,0
1 4c,19,4,636,left,31,blue diamond,0.566,0,0
1 4c,19,4,361,right,0,orange semicircle,0.595,1,0
1 4c,19,4,151,right,0,orange semicircle,0.379,1,0
1 4c,19,4,340,left,0,orange semicircle,0.331,0,0
1 4c,19,4,99,right,0,orange semicircle,0.328,1,0
1 4c,19,4,278,left,0,orange semicircle,0.347,0,0
1 4c,19,4,109,right,0,orange semicircle,0.441,1,0
1 4c,19,4,332,left,1,orange semicircle,0.376,0,0
1 4c,19,4,260,right,1,orange semicircle,0.36,1,0
1 4c,19,4,427,left,1,orange semicircle,0.467,0,0
1 4c,19,4,598,right,1,orange semicircle,0.362,1,0
1 4c,19,4,230,right,1,orange semicircle,0.478,1,0
1 4c,19,4,64,right,1,orange semicircle,0.535,1,0
1 4c,19,4,485,left,4,orange semicircle,0.498,0,0
1 4c,19,4,289,right,4,orange semicircle,0.499,1,0
1 4c,19,4,599,right,4,orange semicircle,0.453,1,0
1 4c,19,4,596,right,4,orange semicircle,0.514,1,0
1 4c,19,4,409,right,4,orange semicircle,0.509,1,0
1 4c,19,4,497,right,4,orange semicircle,0.548,1,0
1 4c,19,4,531,right,9,orange semicircle,0.381,1,0
1 4c,19,4,384,left,9,orange semicircle,0.485,0,0
1 4c,19,4,290,left,9,orange semicircle,0.382,0,0
1 4c,19,4,316,right,9,orange semicircle,0.463,1,0
1 4c,19,4,195,left,9,orange semicircle,0.52,0,0
1 4c,19,4,476,left,9,orange semicircle,0.472,0,0
1 4c,19,4,435,right,19,orange semicircle,0.424,1,0
1 4c,19,4,202,left,19,orange semicircle,0.677,0,0
1 4c,19,4,304,left,19,orange semicircle,0.358,0,0
1 4c,19,4,61,right,19,orange semicircle,0.491,1,0
1 4c,19,4,521,right,19,orange semicircle,0.555,1,0
1 4c,19,4,402,right,19,orange semicircle,0.375,1,0
1 4c,19,4,108,left,31,orange semicircle,0.652,0,0
1 4c,19,4,594,right,31,orange semicircle,0.574,1,0
1 4c,19,4,281,left,31,orange semicircle,1.052,0,0
1 4c,19,4,479,right,31,orange semicircle,0.548,1,0
1 4c,19,4,298,right,31,orange semicircle,0.519,1,0
1 4c,19,4,296,right,31,orange semicircle,0.402,1,0
1 4c,19,4,582,left,0,yellow circle,0.42,0,0
1 4c,19,4,424,right,0,yellow circle,0.396,1,0
1 4c,19,4,192,right,0,yellow circle,0.47,1,0
1 4c,19,4,225,right,0,yellow circle,0.424,1,0
1 4c,19,4,422,right,0,yellow circle,0.367,1,0
1 4c,19,4,361,right,0,yellow circle,0.595,1,0
1 4c,19,4,69,right,1,yellow circle,0.506,1,0
1 4c,19,4,614,right,1,yellow circle,0.414,1,0
1 4c,19,4,355,left,1,yellow circle,0.368,0,0
1 4c,19,4,626,left,1,yellow circle,0.51,0,0
1 4c,19,4,448,left,1,yellow circle,0.522,0,0
1 4c,19,4,514,right,1,yellow circle,0.338,1,0
1 4c,19,4,315,left,4,yellow circle,0.454,0,0
1 4c,19,4,66,right,4,yellow circle,0.544,1,0
1 4c,19,4,344,left,4,yellow circle,0.356,0,0
1 4c,19,4,398,left,4,yellow circle,0.348,0,0
1 4c,19,4,311,right,4,yellow circle,0.469,1,0
1 4c,19,4,189,left,4,yellow circle,0.341,0,0
1 4c,19,4,420,left,9,yellow circle,0.409,0,0
1 4c,19,4,197,left,9,yellow circle,0.39,0,0
1 4c,19,4,429,right,9,yellow circle,0.41,1,0
1 4c,19,4,153,right,9,yellow circle,0.363,1,0
1 4c,19,4,528,right,9,yellow circle,0.6,1,0
1 4c,19,4,265,right,9,yellow circle,0.386,1,0
1 4c,19,4,616,left,19,yellow circle,0.396,0,0
1 4c,19,4,407,right,19,yellow circle,0.596,1,0
1 4c,19,4,74,left,19,yellow circle,0.463,0,0
1 4c,19,4,113,right,19,yellow circle,0.44,1,0
1 4c,19,4,140,left,19,yellow circle,0.38,0,0
1 4c,19,4,56,right,19,yellow circle,0.404,1,0
1 4c,19,4,336,right,31,yellow circle,0.413,1,0
1 4c,19,4,629,left,31,yellow circle,0.372,0,0
1 4c,19,4,84,right,31,yellow circle,0.472,1,0
1 4c,19,4,517,right,31,yellow circle,0.364,1,0
1 4c,19,4,378,right,31,yellow circle,0.437,1,0
1 4c,19,4,399,right,31,yellow circle,0.409,1,0
10 1a,6,1,171,right,0,blue,0.419,1,0
10 1a,6,1,260,left,0,blue,0.384,0,0
10 1a,6,1,261,right,0,blue,0.344,1,0
10 1a,6,1,319,left,0,blue,0.385,0,0
10 1a,6,1,186,left,0,blue,0.357,0,0
10 1a,6,1,346,left,0,blue,0.554,0,0
10 1a,6,1,287,left,1,blue,0.452,0,0
10 1a,6,1,288,right,1,blue,0.437,1,0
10 1a,6,1,8,right,1,blue,0.508,1,0
10 1a,6,1,112,right,1,blue,0.445,1,0
10 1a,6,1,601,left,1,blue,0.517,0,0
10 1a,6,1,257,right,1,blue,0.422,1,0
10 1a,6,1,631,left,4,blue,0.587,0,0
10 1a,6,1,560,right,4,blue,0.404,1,0
10 1a,6,1,551,right,4,blue,0.476,1,0
10 1a,6,1,465,left,4,blue,0.608,0,0
10 1a,6,1,56,left,4,blue,0.531,0,0
10 1a,6,1,562,right,4,blue,0.742,1,0
10 1a,6,1,20,right,9,blue,0.605,1,0
10 1a,6,1,409,left,9,blue,0.627,0,0
10 1a,6,1,444,right,9,blue,0.513,1,0
10 1a,6,1,383,left,9,blue,0.552,0,0
10 1a,6,1,28,left,9,blue,0.986,0,0
10 1a,6,1,115,left,9,blue,0.523,0,0
10 1a,6,1,586,right,19,blue,0.892,1,0
10 1a,6,1,227,right,19,blue,0.486,1,0
10 1a,6,1,108,right,19,blue,0.431,1,0
10 1a,6,1,58,left,19,blue,0.676,0,0
10 1a,6,1,493,left,19,blue,0.836,0,0
10 1a,6,1,241,left,19,blue,0.552,0,0
10 1a,6,1,494,right,31,blue,1.094,1,0
10 1a,6,1,245,right,31,blue,0.714,1,0
10 1a,6,1,453,left,31,blue,0.906,0,0
10 1a,6,1,484,left,31,blue,0.54,0,0
10 1a,6,1,342,left,31,blue,0.529,0,0
10 1a,6,1,44,left,31,blue,0.619,0,0
10 1a,6,1,478,right,0,orange,0.538,1,0
10 1a,6,1,446,left,0,orange,0.557,0,0
10 1a,6,1,346,left,0,orange,0.554,0,0
10 1a,6,1,488,left,0,orange,0.533,0,0
10 1a,6,1,186,left,0,orange,0.357,0,0
10 1a,6,1,487,left,0,orange,0.683,0,0
10 1a,6,1,239,left,1,orange,0.453,0,0
10 1a,6,1,620,left,1,orange,0.471,0,0
10 1a,6,1,147,left,1,orange,0.481,0,0
10 1a,6,1,477,left,1,orange,0.639,0,0
10 1a,6,1,59,left,1,orange,0.471,0,0
10 1a,6,1,414,left,1,orange,0.543,0,0
10 1a,6,1,603,left,4,orange,0.448,0,0
10 1a,6,1,236,right,4,orange,0.433,1,0
10 1a,6,1,515,left,4,orange,0.508,0,0
10 1a,6,1,67,right,4,orange,0.429,1,0
10 1a,6,1,233,left,4,orange,0.469,0,0
10 1a,6,1,31,right,4,orange,0.487,1,0
10 1a,6,1,189,right,9,orange,0.441,1,0
10 1a,6,1,433,left,9,orange,0.533,0,0
10 1a,6,1,79,right,9,orange,0.563,1,0
10 1a,6,1,298,left,9,orange,0.441,0,0
10 1a,6,1,36,right,9,orange,0.432,1,0
10 1a,6,1,47,left,9,orange,0.405,0,0
10 1a,6,1,48,left,19,orange,0.444,0,0
10 1a,6,1,19,left,19,orange,0.453,0,0
10 1a,6,1,598,right,19,orange,0.431,1,0
10 1a,6,1,243,left,19,orange,0.428,0,0
10 1a,6,1,253,left,19,orange,0.405,0,0
10 1a,6,1,271,left,19,orange,0.418,0,0
10 1a,6,1,5,right,31,orange,0.479,1,0
10 1a,6,1,50,right,31,orange,0.465,1,0
10 1a,6,1,454,right,31,orange,0.495,1,0
10 1a,6,1,34,right,31,orange,0.459,1,0
10 1a,6,1,637,left,31,orange,0.41,0,0
10 1a,6,1,492,left,31,orange,0.444,0,0
10 1a,6,1,276,left,0,yellow,0.367,0,0
10 1a,6,1,630,right,0,yellow,0.709,1,0
10 1a,6,1,580,right,0,yellow,0.447,1,0
10 1a,6,1,487,left,0,yellow,0.683,0,0
10 1a,6,1,312,left,0,yellow,0.42,0,0
10 1a,6,1,260,left,0,yellow,0.384,0,0
10 1a,6,1,604,right,1,yellow,0.435,1,0
10 1a,6,1,584,left,1,yellow,0.673,0,0
10 1a,6,1,385,left,1,yellow,0.445,0,0
10 1a,6,1,467,left,1,yellow,1.164,0,0
10 1a,6,1,238,left,1,yellow,0.464,0,0
10 1a,6,1,13,right,1,yellow,0.392,1,0
10 1a,6,1,291,right,4,yellow,0.542,1,0
10 1a,6,1,190,right,4,yellow,0.367,1,0
10 1a,6,1,351,right,4,yellow,0.397,1,0
10 1a,6,1,510,right,4,yellow,0.479,1,0
10 1a,6,1,114,left,4,yellow,0.561,0,0
10 1a,6,1,353,right,4,yellow,0.42,1,0
10 1a,6,1,416,right,9,yellow,0.623,1,0
10 1a,6,1,616,right,9,yellow,0.589,1,0
10 1a,6,1,301,left,9,yellow,0.556,0,0
10 1a,6,1,440,right,9,yellow,0.452,1,0
10 1a,6,1,154,right,9,yellow,0.513,1,0
10 1a,6,1,366,right,9,yellow,0.383,1,0
10 1a,6,1,110,right,19,yellow,0.585,1,0
10 1a,6,1,549,right,19,yellow,0.504,1,0
10 1a,6,1,386,left,19,yellow,0.662,0,0
10 1a,6,1,348,left,19,yellow,0.458,0,0
10 1a,6,1,355,left,19,yellow,0.412,0,0
10 1a,6,1,252,left,19,yellow,0.452,0,0
10 1a,6,1,82,left,31,yellow,0.393,0,0
10 1a,6,1,452,right,31,yellow,0.505,1,0
10 1a,6,1,225,right,31,yellow,0.498,1,0
10 1a,6,1,401,right,31,yellow,0.467,1,0
10 1a,6,1,600,left,31,yellow,0.504,0,0
10 1a,6,1,135,left,31,yellow,0.431,0,0
10 2b,12,2,564,right,0,blue triangle,0.463,1,0
10 2b,12,2,631,left,0,blue triangle,0.398,0,0
10 2b,12,2,20,right,0,blue triangle,0.439,1,0
10 2b,12,2,640,left,0,blue triangle,0.534,0,0
10 2b,12,2,25,right,0,blue triangle,0.483,1,0
10 2b,12,2,8,right,0,blue triangle,0.468,1,0
10 2b,12,2,253,right,1,blue triangle,0.407,1,0
10 2b,12,2,394,right,1,blue triangle,0.624,1,0
10 2b,12,2,348,left,1,blue triangle,0.752,0,0
10 2b,12,2,204,right,1,blue triangle,0.466,1,0
10 2b,12,2,211,left,1,blue triangle,0.394,0,0
10 2b,12,2,392,left,1,blue triangle,0.472,0,0
10 2b,12,2,183,left,4,blue triangle,0.393,0,0
10 2b,12,2,195,right,4,blue triangle,0.486,1,0
10 2b,12,2,313,right,4,blue triangle,0.455,1,0
10 2b,12,2,620,right,4,blue triangle,0.392,1,0
10 2b,12,2,248,left,4,blue triangle,0.757,0,0
10 2b,12,2,526,left,4,blue triangle,0.503,0,0
10 2b,12,2,277,right,9,blue triangle,0.692,1,0
10 2b,12,2,472,left,9,blue triangle,0.498,0,0
10 2b,12,2,16,left,9,blue triangle,0.43,0,0
10 2b,12,2,458,right,9,blue triangle,0.556,1,0
10 2b,12,2,586,right,9,blue triangle,0.484,1,0
10 2b,12,2,256,right,9,blue triangle,0.485,1,0
10 2b,12,2,97,right,19,blue triangle,0.551,1,0
10 2b,12,2,418,right,19,blue triangle,0.749,1,0
10 2b,12,2,202,right,19,blue triangle,0.908,1,0
10 2b,12,2,215,left,19,blue triangle,0.607,0,0
10 2b,12,2,67,left,19,blue triangle,0.552,0,0
10 2b,12,2,90,right,19,blue triangle,0.559,1,0
10 2b,12,2,143,left,31,blue triangle,0.676,0,0
10 2b,12,2,417,left,31,blue triangle,0.741,0,0
10 2b,12,2,264,right,31,blue triangle,0.473,1,0
10 2b,12,2,571,right,31,blue triangle,0.551,1,0
10 2b,12,2,372,left,31,blue triangle,0.873,0,0
10 2b,12,2,316,left,31,blue triangle,0.714,0,0
10 2b,12,2,412,right,0,orange circle,0.538,1,0
10 2b,12,2,240,left,0,orange circle,0.546,0,0
10 2b,12,2,398,left,0,orange circle,0.472,0,0
10 2b,12,2,20,right,0,orange circle,0.439,1,0
10 2b,12,2,225,right,0,orange circle,0.416,1,0
10 2b,12,2,25,right,0,orange circle,0.483,1,0
10 2b,12,2,326,left,1,orange circle,0.561,0,0
10 2b,12,2,32,right,1,orange circle,0.397,1,0
10 2b,12,2,582,right,1,orange circle,0.675,1,0
10 2b,12,2,199,left,1,orange circle,0.484,0,0
10 2b,12,2,187,left,1,orange circle,0.493,0,0
10 2b,12,2,440,left,1,orange circle,0.645,0,0
10 2b,12,2,450,right,4,orange circle,0.4,1,0
10 2b,12,2,173,right,4,orange circle,0.401,1,0
10 2b,12,2,414,right,4,orange circle,0.515,1,0
10 2b,12,2,479,right,4,orange circle,0.569,1,0
10 2b,12,2,465,left,4,orange circle,0.4,0,0
10 2b,12,2,307,left,4,orange circle,1.046,0,0
10 2b,12,2,473,left,9,orange circle,0.428,0,0
10 2b,12,2,404,left,9,orange circle,0.571,0,0
10 2b,12,2,369,left,9,orange circle,0.4,0,0
10 2b,12,2,585,left,9,orange circle,0.502,0,0
10 2b,12,2,406,right,9,orange circle,0.662,1,0
10 2b,12,2,616,right,9,orange circle,0.843,1,0
10 2b,12,2,638,right,19,orange circle,0.463,1,0
10 2b,12,2,149,left,19,orange circle,0.494,0,0
10 2b,12,2,457,left,19,orange circle,0.491,0,0
10 2b,12,2,220,right,19,orange circle,0.597,1,0
10 2b,12,2,76,left,19,orange circle,0.547,0,0
10 2b,12,2,387,right,19,orange circle,0.556,1,0
10 2b,12,2,424,left,31,orange circle,0.434,0,0
10 2b,12,2,441,right,31,orange circle,0.553,1,0
10 2b,12,2,502,left,31,orange circle,0.506,0,0
10 2b,12,2,556,left,31,orange circle,0.476,0,0
10 2b,12,2,618,left,31,orange circle,0.509,0,0
10 2b,12,2,587,right,31,orange circle,0.451,1,0
10 2b,12,2,487,right,0,yellow diamond,1.167,1,0
10 2b,12,2,25,right,0,yellow diamond,0.483,1,0
10 2b,12,2,631,left,0,yellow diamond,0.398,0,0
10 2b,12,2,398,left,0,yellow diamond,0.472,0,0
10 2b,12,2,564,right,0,yellow diamond,0.463,1,0
10 2b,12,2,18,left,0,yellow diamond,0.47,0,0
10 2b,12,2,609,right,1,yellow diamond,0.619,1,0
10 2b,12,2,557,right,1,yellow diamond,0.466,1,0
10 2b,12,2,170,left,1,yellow diamond,0.5,0,0
10 2b,12,2,611,left,1,yellow diamond,0.658,0,0
10 2b,12,2,166,right,1,yellow diamond,0.365,1,0
10 2b,12,2,91,right,1,yellow diamond,0.451,1,0
10 2b,12,2,133,right,4,yellow diamond,0.469,1,0
10 2b,12,2,630,left,4,yellow diamond,0.498,0,0
10 2b,12,2,567,left,4,yellow diamond,0.376,0,0
10 2b,12,2,77,left,4,yellow diamond,0.439,0,0
10 2b,12,2,453,left,4,yellow diamond,0.42,0,0
10 2b,12,2,96,right,4,yellow diamond,0.523,1,0
10 2b,12,2,580,right,9,yellow diamond,0.522,1,0
10 2b,12,2,539,left,9,yellow diamond,0.453,0,0
10 2b,12,2,87,left,9,yellow diamond,0.515,0,0
10 2b,12,2,273,right,9,yellow diamond,0.563,1,0
10 2b,12,2,447,left,9,yellow diamond,0.372,0,0
10 2b,12,2,9,left,9,yellow diamond,0.527,0,0
10 2b,12,2,237,right,19,yellow diamond,0.471,1,0
10 2b,12,2,592,right,19,yellow diamond,0.566,1,0
10 2b,12,2,388,left,19,yellow diamond,0.568,0,0
10 2b,12,2,160,left,19,yellow diamond,0.448,0,0
10 2b,12,2,47,right,19,yellow diamond,0.542,1,0
10 2b,12,2,395,left,19,yellow diamond,0.659,0,0
10 2b,12,2,315,left,31,yellow diamond,0.649,0,0
10 2b,12,2,329,right,31,yellow diamond,0.532,1,0
10 2b,12,2,428,right,31,yellow diamond,0.426,1,0
10 2b,12,2,613,left,31,yellow diamond,0.376,0,0
10 2b,12,2,520,right,31,yellow diamond,0.458,1,0
10 2b,12,2,499,left,31,yellow diamond,0.532,0,0
10 2c,14,2,488,right,0,blue diamond,0.443,1,0
10 2c,14,2,122,right,0,blue diamond,0.381,1,0
10 2c,14,2,38,right,0,blue diamond,0.398,1,0
10 2c,14,2,25,left,0,blue diamond,0.439,0,0
10 2c,14,2,327,left,0,blue diamond,0.438,0,0
10 2c,14,2,556,left,0,blue diamond,0.45,0,0
10 2c,14,2,288,right,1,blue diamond,0.555,1,0
10 2c,14,2,306,right,1,blue diamond,0.449,1,0
10 2c,14,2,295,left,1,blue diamond,0.666,0,0
10 2c,14,2,379,right,1,blue diamond,0.429,1,0
10 2c,14,2,253,right,1,blue diamond,0.452,1,0
10 2c,14,2,428,right,1,blue diamond,0.547,1,0
10 2c,14,2,452,left,4,blue diamond,0.409,0,0
10 2c,14,2,559,right,4,blue diamond,0.478,1,0
10 2c,14,2,29,right,4,blue diamond,0.556,1,0
10 2c,14,2,561,left,4,blue diamond,0.538,0,0
10 2c,14,2,275,left,4,blue diamond,0.596,0,0
10 2c,14,2,263,left,4,blue diamond,0.554,0,0
10 2c,14,2,547,right,9,blue diamond,0.564,1,0
10 2c,14,2,396,right,9,blue diamond,0.605,1,0
10 2c,14,2,529,right,9,blue diamond,0.551,1,0
10 2c,14,2,453,right,9,blue diamond,0.449,1,0
10 2c,14,2,509,left,9,blue diamond,0.499,0,0
10 2c,14,2,43,left,9,blue diamond,0.424,0,0
10 2c,14,2,216,left,19,blue diamond,0.453,0,0
10 2c,14,2,157,left,19,blue diamond,0.627,0,0
10 2c,14,2,102,left,19,blue diamond,0.648,0,0
10 2c,14,2,27,left,19,blue diamond,0.532,0,0
10 2c,14,2,217,right,19,blue diamond,0.691,1,0
10 2c,14,2,374,left,19,blue diamond,0.726,0,0
10 2c,14,2,356,left,31,blue diamond,0.61,0,0
10 2c,14,2,446,left,31,blue diamond,0.499,0,0
10 2c,14,2,494,left,31,blue diamond,0.799,0,0
10 2c,14,2,616,right,31,blue diamond,0.589,1,0
10 2c,14,2,579,left,31,blue diamond,0.507,0,0
10 2c,14,2,46,right,31,blue diamond,0.549,1,0
10 2c,14,2,53,left,0,orange triangle,0.394,0,0
10 2c,14,2,268,right,0,orange triangle,0.478,1,0
10 2c,14,2,193,right,0,orange triangle,0.444,1,0
10 2c,14,2,122,right,0,orange triangle,0.381,1,0
10 2c,14,2,164,left,0,orange triangle,0.475,0,0
10 2c,14,2,108,left,0,orange triangle,0.398,0,0
10 2c,14,2,40,left,1,orange triangle,0.398,0,0
10 2c,14,2,254,right,1,orange triangle,0.432,1,0
10 2c,14,2,630,left,1,orange triangle,0.744,0,0
10 2c,14,2,198,right,1,orange triangle,0.367,1,0
10 2c,14,2,169,right,1,orange triangle,0.395,1,0
10 2c,14,2,581,left,1,orange triangle,0.413,0,0
10 2c,14,2,243,left,4,orange triangle,0.474,0,0
10 2c,14,2,314,left,4,orange triangle,0.576,0,0
10 2c,14,2,636,right,4,orange triangle,0.589,1,0
10 2c,14,2,628,right,4,orange triangle,0.51,1,0
10 2c,14,2,425,right,4,orange triangle,0.446,1,0
10 2c,14,2,500,left,4,orange triangle,0.511,0,0
10 2c,14,2,480,right,9,orange triangle,0.553,1,0
10 2c,14,2,3,left,9,orange triangle,0.535,0,0
10 2c,14,2,271,right,9,orange triangle,0.546,1,0
10 2c,14,2,72,left,9,orange triangle,0.492,0,0
10 2c,14,2,155,right,9,orange triangle,0.489,1,0
10 2c,14,2,424,left,9,orange triangle,0.388,0,0
10 2c,14,2,617,left,19,orange triangle,0.639,0,0
10 2c,14,2,54,right,19,orange triangle,0.451,1,0
10 2c,14,2,492,right,19,orange triangle,0.507,1,0
10 2c,14,2,337,left,19,orange triangle,0.454,0,0
10 2c,14,2,170,right,19,orange triangle,0.454,1,0
10 2c,14,2,220,right,19,orange triangle,0.612,1,0
10 2c,14,2,429,left,31,orange triangle,0.447,0,0
10 2c,14,2,575,right,31,orange triangle,0.484,1,0
10 2c,14,2,246,right,31,orange triangle,0.521,1,0
10 2c,14,2,239,left,31,orange triangle,0.436,0,0
10 2c,14,2,249,left,31,orange triangle,0.502,0,0
10 2c,14,2,151,right,31,orange triangle,0.489,1,0
10 2c,14,2,327,left,0,yellow circle,0.438,0,0
10 2c,14,2,164,left,0,yellow circle,0.475,0,0
10 2c,14,2,70,left,0,yellow circle,0.444,0,0
10 2c,14,2,65,right,0,yellow circle,0.465,1,0
10 2c,14,2,122,right,0,yellow circle,0.381,1,0
10 2c,14,2,64,left,0,yellow circle,0.541,0,0
10 2c,14,2,177,left,1,yellow circle,0.501,0,0
10 2c,14,2,187,right,1,yellow circle,0.401,1,0
10 2c,14,2,588,left,1,yellow circle,0.479,0,0
10 2c,14,2,119,right,1,yellow circle,0.361,1,0
10 2c,14,2,13,left,1,yellow circle,0.426,0,0
10 2c,14,2,608,left,1,yellow circle,0.368,0,0
10 2c,14,2,232,right,4,yellow circle,0.533,1,0
10 2c,14,2,302,right,4,yellow circle,0.472,1,0
10 2c,14,2,380,right,4,yellow circle,0.353,1,0
10 2c,14,2,94,left,4,yellow circle,0.432,0,0
10 2c,14,2,496,left,4,yellow circle,0.483,0,0
10 2c,14,2,535,left,4,yellow circle,0.623,0,0
10 2c,14,2,437,left,9,yellow circle,0.473,0,0
10 2c,14,2,513,left,9,yellow circle,0.546,0,0
10 2c,14,2,383,left,9,yellow circle,0.401,0,0
10 2c,14,2,34,right,9,yellow circle,0.419,1,0
10 2c,14,2,361,right,9,yellow circle,0.528,1,0
10 2c,14,2,350,left,9,yellow circle,0.488,0,0
10 2c,14,2,612,left,19,yellow circle,0.435,0,0
10 2c,14,2,519,left,19,yellow circle,0.53,0,0
10 2c,14,2,117,left,19,yellow circle,0.406,0,0
10 2c,14,2,457,right,19,yellow circle,0.548,1,0
10 2c,14,2,105,right,19,yellow circle,0.564,1,0
10 2c,14,2,469,left,19,yellow circle,0.452,0,0
10 2c,14,2,135,left,31,yellow circle,0.398,0,0
10 2c,14,2,385,right,31,yellow circle,0.434,1,0
10 2c,14,2,294,left,31,yellow circle,0.491,0,0
10 2c,14,2,134,left,31,yellow circle,0.408,0,0
10 2c,14,2,413,right,31,yellow circle,0.488,1,0
10 2c,14,2,506,right,31,yellow circle,0.478,1,0
10 3b,14,3,255,right,0,circle,0.54,1,0
10 3b,14,3,182,right,0,circle,0.466,1,0
10 3b,14,3,398,left,0,circle,0.358,0,0
10 3b,14,3,600,left,0,circle,0.428,0,0
10 3b,14,3,64,left,0,circle,0.449,0,0
10 3b,14,3,342,right,0,circle,0.458,1,0
10 3b,14,3,419,left,1,circle,0.369,0,0
10 3b,14,3,459,right,1,circle,0.491,1,0
10 3b,14,3,295,right,1,circle,0.623,1,0
10 3b,14,3,287,right,1,circle,0.868,1,0
10 3b,14,3,451,left,1,circle,0.43,0,0
10 3b,14,3,443,left,1,circle,0.447,0,0
10 3b,14,3,531,left,4,circle,0.413,0,0
10 3b,14,3,150,right,4,circle,0.476,1,0
10 3b,14,3,455,left,4,circle,0.424,0,0
10 3b,14,3,148,right,4,circle,0.429,1,0
10 3b,14,3,362,right,4,circle,0.456,1,0
10 3b,14,3,34,left,4,circle,0.417,0,0
10 3b,14,3,541,left,9,circle,0.442,0,0
10 3b,14,3,425,left,9,circle,0.377,0,0
10 3b,14,3,546,left,9,circle,0.41,0,0
10 3b,14,3,550,right,9,circle,0.53,1,0
10 3b,14,3,204,left,9,circle,0.561,0,0
10 3b,14,3,524,left,9,circle,0.492,0,0
10 3b,14,3,303,left,19,circle,0.449,0,0
10 3b,14,3,536,left,19,circle,0.471,0,0
10 3b,14,3,276,left,19,circle,0.42,0,0
10 3b,14,3,345,left,19,circle,0.443,0,0
10 3b,14,3,65,right,19,circle,0.616,1,0
10 3b,14,3,622,left,19,circle,0.407,0,0
10 3b,14,3,167,left,31,circle,0.564,0,0
10 3b,14,3,180,right,31,circle,0.562,1,0
10 3b,14,3,497,left,31,circle,0.547,0,0
10 3b,14,3,58,left,31,circle,0.585,0,0
10 3b,14,3,502,right,31,circle,0.453,1,0
10 3b,14,3,26,left,31,circle,0.573,0,0
10 3b,14,3,64,left,0,diamond,0.449,0,0
10 3b,14,3,269,right,0,diamond,0.383,1,0
10 3b,14,3,625,left,0,diamond,0.466,0,0
10 3b,14,3,290,right,0,diamond,0.52,1,0
10 3b,14,3,122,right,0,diamond,0.425,1,0
10 3b,14,3,583,left,0,diamond,0.432,0,0
10 3b,14,3,436,left,1,diamond,0.581,0,0
10 3b,14,3,10,right,1,diamond,0.474,1,0
10 3b,14,3,500,left,1,diamond,0.428,0,0
10 3b,14,3,599,right,1,diamond,0.416,1,0
10 3b,14,3,444,right,1,diamond,0.399,1,0
10 3b,14,3,557,left,1,diamond,0.418,0,0
10 3b,14,3,403,left,4,diamond,0.36,0,0
10 3b,14,3,28,right,4,diamond,0.573,1,0
10 3b,14,3,333,left,4,diamond,0.438,0,0
10 3b,14,3,31,right,4,diamond,0.464,1,0
10 3b,14,3,361,left,4,diamond,0.612,0,0
10 3b,14,3,208,left,4,diamond,0.862,0,0
10 3b,14,3,102,left,9,diamond,0.468,0,0
10 3b,14,3,3,right,9,diamond,0.614,1,0
10 3b,14,3,580,right,9,diamond,0.488,1,0
10 3b,14,3,542,right,9,diamond,0.447,1,0
10 3b,14,3,479,left,9,diamond,0.487,0,0
10 3b,14,3,530,left,9,diamond,0.69,0,0
10 3b,14,3,387,left,19,diamond,0.483,0,0
10 3b,14,3,415,left,19,diamond,0.554,0,0
10 3b,14,3,367,right,19,diamond,0.496,1,0
10 3b,14,3,411,right,19,diamond,1.062,1,0
10 3b,14,3,494,right,19,diamond,0.444,1,0
10 3b,14,3,207,left,19,diamond,0.521,0,0
10 3b,14,3,279,right,31,diamond,0.693,1,0
10 3b,14,3,481,right,31,diamond,0.555,1,0
10 3b,14,3,172,right,31,diamond,0.593,1,0
10 3b,14,3,344,right,31,diamond,0.611,1,0
10 3b,14,3,624,right,31,diamond,0.642,1,0
10 3b,14,3,82,left,31,diamond,0.524,0,0
10 3b,14,3,512,right,0,semicircle,0.469,1,0
10 3b,14,3,610,right,0,semicircle,0.6,1,0
10 3b,14,3,325,right,0,semicircle,0.443,1,0
10 3b,14,3,186,left,0,semicircle,0.445,0,0
10 3b,14,3,412,right,0,semicircle,0.431,1,0
10 3b,14,3,159,right,0,semicircle,0.435,1,0
10 3b,14,3,235,left,1,semicircle,0.534,0,0
10 3b,14,3,511,left,1,semicircle,0.72,0,0
10 3b,14,3,104,right,1,semicircle,0.524,1,0
10 3b,14,3,114,right,1,semicircle,0.43,1,0
10 3b,14,3,163,right,1,semicircle,0.467,1,0
10 3b,14,3,559,left,1,semicircle,0.372,0,0
10 3b,14,3,472,right,4,semicircle,0.425,1,0
10 3b,14,3,564,left,4,semicircle,0.489,0,0
10 3b,14,3,420,left,4,semicircle,0.411,0,0
10 3b,14,3,53,right,4,semicircle,0.563,1,0
10 3b,14,3,380,left,4,semicircle,0.454,0,0
10 3b,14,3,576,right,4,semicircle,0.495,1,0
10 3b,14,3,525,left,9,semicircle,0.485,0,0
10 3b,14,3,164,right,9,semicircle,0.699,1,0
10 3b,14,3,161,right,9,semicircle,0.518,1,0
10 3b,14,3,20,right,9,semicircle,0.966,1,0
10 3b,14,3,47,left,9,semicircle,0.784,0,0
10 3b,14,3,22,left,9,semicircle,0.54,0,0
10 3b,14,3,570,left,19,semicircle,0.843,0,0
10 3b,14,3,523,left,19,semicircle,0.6,0,0
10 3b,14,3,413,right,19,semicircle,1.213,1,0
10 3b,14,3,370,left,19,semicircle,0.541,0,0
10 3b,14,3,73,right,19,semicircle,0.741,1,0
10 3b,14,3,238,left,19,semicircle,0.569,0,0
10 3b,14,3,496,right,31,semicircle,0.927,1,0
10 3b,14,3,406,right,31,semicircle,0.566,1,0
10 3b,14,3,594,right,31,semicircle,1.092,1,0
10 3b,14,3,535,right,31,semicircle,0.708,1,0
10 3b,14,3,111,right,31,semicircle,0.902,1,0
10 3b,14,3,634,left,31,semicircle,0.977,0,0
10 4a,6,4,470,right,0,blue circle,0.549,1,0
10 4a,6,4,553,right,0,blue circle,0.378,1,0
10 4a,6,4,562,left,0,blue circle,0.408,0,0
10 4a,6,4,632,left,0,blue circle,0.456,0,0
10 4a,6,4,333,right,0,blue circle,0.429,1,0
10 4a,6,4,455,right,0,blue circle,0.531,1,0
10 4a,6,4,409,right,1,blue circle,1.206,1,0
10 4a,6,4,594,left,1,blue circle,1.375,0,0
10 4a,6,4,271,right,1,blue circle,0.381,1,0
10 4a,6,4,198,right,1,blue circle,1.023,1,0
10 4a,6,4,545,left,1,blue circle,0.821,0,0
10 4a,6,4,410,left,1,blue circle,1.551,0,0
10 4a,6,4,364,left,4,blue circle,0.419,0,0
10 4a,6,4,357,right,4,blue circle,0.423,1,0
10 4a,6,4,183,right,4,blue circle,0.422,1,0
10 4a,6,4,332,left,4,blue circle,0.378,0,0
10 4a,6,4,31,left,4,blue circle,0.38,0,0
10 4a,6,4,325,left,4,blue circle,0.554,0,0
10 4a,6,4,13,right,9,blue circle,0.369,1,0
10 4a,6,4,189,right,9,blue circle,0.418,1,0
10 4a,6,4,252,right,9,blue circle,0.412,1,0
10 4a,6,4,604,right,9,blue circle,0.507,1,0
10 4a,6,4,274,right,9,blue circle,0.422,1,0
10 4a,6,4,576,left,9,blue circle,0.519,0,0
10 4a,6,4,423,right,19,blue circle,0.366,1,0
10 4a,6,4,19,right,19,blue circle,0.471,1,0
10 4a,6,4,174,left,19,blue circle,0.407,0,0
10 4a,6,4,373,right,19,blue circle,0.438,1,0
10 4a,6,4,56,left,19,blue circle,0.489,0,0
10 4a,6,4,563,right,19,blue circle,0.438,1,0
10 4a,6,4,436,right,31,blue circle,0.452,1,0
10 4a,6,4,451,right,31,blue circle,0.36,1,0
10 4a,6,4,623,left,31,blue circle,0.463,0,0
10 4a,6,4,298,right,31,blue circle,0.403,1,0
10 4a,6,4,96,left,31,blue circle,0.573,0,0
10 4a,6,4,98,left,31,blue circle,0.398,0,0
10 4a,6,4,323,left,0,orange diamond,0.41,0,0
10 4a,6,4,519,left,0,orange diamond,0.425,0,0
10 4a,6,4,417,left,0,orange diamond,0.873,0,0
10 4a,6,4,370,left,0,orange diamond,0.388,0,0
10 4a,6,4,521,left,0,orange diamond,0.494,0,0
10 4a,6,4,310,left,0,orange diamond,0.395,0,0
10 4a,6,4,248,right,1,orange diamond,0.38,1,0
10 4a,6,4,518,right,1,orange diamond,0.447,1,0
10 4a,6,4,46,left,1,orange diamond,0.406,0,0
10 4a,6,4,257,right,1,orange diamond,0.33,1,0
10 4a,6,4,588,right,1,orange diamond,0.498,1,0
10 4a,6,4,15,left,1,orange diamond,0.4,0,0
10 4a,6,4,9,right,4,orange diamond,0.371,1,0
10 4a,6,4,484,right,4,orange diamond,0.474,1,0
10 4a,6,4,324,right,4,orange diamond,0.791,1,0
10 4a,6,4,292,left,4,orange diamond,0.447,0,0
10 4a,6,4,136,right,4,orange diamond,0.406,1,0
10 4a,6,4,307,right,4,orange diamond,0.52,1,0
10 4a,6,4,614,left,9,orange diamond,1.085,0,0
10 4a,6,4,37,right,9,orange diamond,0.442,1,0
10 4a,6,4,82,right,9,orange diamond,0.456,1,0
10 4a,6,4,320,right,9,orange diamond,0.545,1,0
10 4a,6,4,434,right,9,orange diamond,0.459,1,0
10 4a,6,4,80,left,9,orange diamond,0.43,0,0
10 4a,6,4,593,left,19,orange diamond,0.544,0,0
10 4a,6,4,64,right,19,orange diamond,0.568,1,0
10 4a,6,4,304,left,19,orange diamond,0.464,0,0
10 4a,6,4,119,right,19,orange diamond,0.43,1,0
10 4a,6,4,288,right,19,orange diamond,0.505,1,0
10 4a,6,4,541,right,19,orange diamond,0.773,1,0
10 4a,6,4,207,right,31,orange diamond,0.529,1,0
10 4a,6,4,267,left,31,orange diamond,0.586,0,0
10 4a,6,4,365,right,31,orange diamond,0.514,1,0
10 4a,6,4,7,left,31,orange diamond,0.445,0,0
10 4a,6,4,32,right,31,orange diamond,0.592,1,0
10 4a,6,4,411,left,31,orange diamond,0.594,0,0
10 4a,6,4,632,left,0,yellow semicircle,0.456,0,0
10 4a,6,4,58,left,0,yellow semicircle,0.353,0,0
10 4a,6,4,180,right,0,yellow semicircle,0.51,1,0
10 4a,6,4,146,right,0,yellow semicircle,0.349,1,0
10 4a,6,4,139,right,0,yellow semicircle,0.357,1,0
10 4a,6,4,417,left,0,yellow semicircle,0.873,0,0
10 4a,6,4,465,left,1,yellow semicircle,0.443,0,0
10 4a,6,4,149,left,1,yellow semicircle,0.383,0,0
10 4a,6,4,177,right,1,yellow semicircle,0.346,1,0
10 4a,6,4,606,left,1,yellow semicircle,0.401,0,0
10 4a,6,4,330,right,1,yellow semicircle,0.407,1,0
10 4a,6,4,238,right,1,yellow semicircle,0.405,1,0
10 4a,6,4,141,left,4,yellow semicircle,0.466,0,0
10 4a,6,4,474,left,4,yellow semicircle,0.41,0,0
10 4a,6,4,635,left,4,yellow semicircle,0.475,0,0
10 4a,6,4,349,left,4,yellow semicircle,0.652,0,0
10 4a,6,4,72,right,4,yellow semicircle,0.42,1,0
10 4a,6,4,399,left,4,yellow semicircle,0.585,0,0
10 4a,6,4,487,left,9,yellow semicircle,0.501,0,0
10 4a,6,4,469,left,9,yellow semicircle,0.535,0,0
10 4a,6,4,566,right,9,yellow semicircle,0.332,1,0
10 4a,6,4,158,left,9,yellow semicircle,0.453,0,0
10 4a,6,4,362,left,9,yellow semicircle,0.619,0,0
10 4a,6,4,67,right,9,yellow semicircle,0.462,1,0
10 4a,6,4,249,right,19,yellow semicircle,0.531,1,0
10 4a,6,4,378,right,19,yellow semicircle,0.444,1,0
10 4a,6,4,600,right,19,yellow semicircle,0.941,1,0
10 4a,6,4,374,left,19,yellow semicircle,0.492,0,0
10 4a,6,4,131,right,19,yellow semicircle,0.457,1,0
10 4a,6,4,2,left,19,yellow semicircle,0.484,0,0
10 4a,6,4,24,right,31,yellow semicircle,0.596,1,0
10 4a,6,4,551,left,31,yellow semicircle,0.642,0,0
10 4a,6,4,599,left,31,yellow semicircle,0.499,0,0
10 4a,6,4,388,left,31,yellow semicircle,0.441,0,0
10 4a,6,4,308,right,31,yellow semicircle,0.551,1,0
10 4a,6,4,76,left,31,yellow semicircle,0.36,0,0
10 4b,9,4,249,left,0,blue semicircle,0.435,0,0
10 4b,9,4,254,right,0,blue semicircle,0.361,1,0
10 4b,9,4,597,left,0,blue semicircle,0.612,0,0
10 4b,9,4,462,right,0,blue semicircle,0.591,1,0
10 4b,9,4,32,left,0,blue semicircle,0.349,0,0
10 4b,9,4,318,right,0,blue semicircle,0.338,1,0
10 4b,9,4,301,left,1,blue semicircle,0.548,0,0
10 4b,9,4,56,right,1,blue semicircle,0.469,1,0
10 4b,9,4,563,right,1,blue semicircle,0.339,1,0
10 4b,9,4,9,right,1,blue semicircle,0.343,1,0
10 4b,9,4,506,left,1,blue semicircle,0.331,0,0
10 4b,9,4,229,left,1,blue semicircle,0.416,0,0
10 4b,9,4,427,right,4,blue semicircle,0.362,1,0
10 4b,9,4,159,right,4,blue semicircle,0.44,1,0
10 4b,9,4,391,right,4,blue semicircle,0.373,1,0
10 4b,9,4,309,left,4,blue semicircle,0.443,0,0
10 4b,9,4,50,left,4,blue semicircle,0.381,0,0
10 4b,9,4,399,left,4,blue semicircle,0.446,0,0
10 4b,9,4,570,left,9,blue semicircle,0.351,0,0
10 4b,9,4,82,right,9,blue semicircle,0.365,1,0
10 4b,9,4,18,right,9,blue semicircle,0.372,1,0
10 4b,9,4,480,left,9,blue semicircle,0.352,0,0
10 4b,9,4,405,left,9,blue semicircle,0.561,0,0
10 4b,9,4,129,right,9,blue semicircle,0.611,1,0
10 4b,9,4,63,left,19,blue semicircle,0.33,0,0
10 4b,9,4,534,left,19,blue semicircle,0.459,0,0
10 4b,9,4,169,right,19,blue semicircle,0.397,1,0
10 4b,9,4,373,right,19,blue semicircle,0.353,1,0
10 4b,9,4,410,left,19,blue semicircle,0.425,0,0
10 4b,9,4,535,right,19,blue semicircle,0.378,1,0
10 4b,9,4,631,right,31,blue semicircle,0.369,1,0
10 4b,9,4,91,left,31,blue semicircle,0.727,0,0
10 4b,9,4,298,left,31,blue semicircle,0.491,0,0
10 4b,9,4,628,right,31,blue semicircle,0.441,1,0
10 4b,9,4,619,left,31,blue semicircle,0.549,0,0
10 4b,9,4,576,left,31,blue semicircle,0.561,0,0
10 4b,9,4,250,left,0,orange circle,0.397,0,0
10 4b,9,4,588,left,0,orange circle,0.379,0,0
10 4b,9,4,32,left,0,orange circle,0.349,0,0
10 4b,9,4,165,left,0,orange circle,0.435,0,0
10 4b,9,4,462,right,0,orange circle,0.591,1,0
10 4b,9,4,174,left,0,orange circle,0.39,0,0
10 4b,9,4,195,left,1,orange circle,0.482,0,0
10 4b,9,4,409,left,1,orange circle,0.345,0,0
10 4b,9,4,212,right,1,orange circle,0.335,1,0
10 4b,9,4,526,left,1,orange circle,0.431,0,0
10 4b,9,4,425,left,1,orange circle,0.406,0,0
10 4b,9,4,43,left,1,orange circle,0.393,0,0
10 4b,9,4,406,left,4,orange circle,0.612,0,0
10 4b,9,4,313,left,4,orange circle,0.363,0,0
10 4b,9,4,117,left,4,orange circle,0.408,0,0
10 4b,9,4,150,left,4,orange circle,0.679,0,0
10 4b,9,4,85,left,4,orange circle,0.485,0,0
10 4b,9,4,116,left,4,orange circle,0.381,0,0
10 4b,9,4,339,right,9,orange circle,0.469,1,0
10 4b,9,4,369,left,9,orange circle,0.487,0,0
10 4b,9,4,185,right,9,orange circle,0.465,1,0
10 4b,9,4,288,left,9,orange circle,0.477,0,0
10 4b,9,4,171,left,9,orange circle,0.427,0,0
10 4b,9,4,234,left,9,orange circle,0.465,0,0
10 4b,9,4,562,left,19,orange circle,0.514,0,0
10 4b,9,4,390,left,19,orange circle,0.468,0,0
10 4b,9,4,90,left,19,orange circle,0.443,0,0
10 4b,9,4,528,right,19,orange circle,0.448,1,0
10 4b,9,4,598,left,19,orange circle,0.363,0,0
10 4b,9,4,465,right,19,orange circle,0.522,1,0
10 4b,9,4,441,right,31,orange circle,0.621,1,0
10 4b,9,4,86,right,31,orange circle,0.543,1,0
10 4b,9,4,553,left,31,orange circle,0.48,0,0
10 4b,9,4,81,left,31,orange circle,0.525,0,0
10 4b,9,4,5,right,31,orange circle,0.41,1,0
10 4b,9,4,180,left,31,orange circle,0.386,0,0
10 4b,9,4,250,left,0,yellow diamond,0.397,0,0
10 4b,9,4,613,right,0,yellow diamond,0.447,1,0
10 4b,9,4,249,left,0,yellow diamond,0.435,0,0
10 4b,9,4,462,right,0,yellow diamond,0.591,1,0
10 4b,9,4,639,right,0,yellow diamond,0.404,1,0
10 4b,9,4,32,left,0,yellow diamond,0.349,0,0
10 4b,9,4,273,right,1,yellow diamond,0.329,1,0
10 4b,9,4,20,left,1,yellow diamond,0.344,0,0
10 4b,9,4,142,left,1,yellow diamond,0.368,0,0
10 4b,9,4,418,left,1,yellow diamond,0.335,0,0
10 4b,9,4,240,left,1,yellow diamond,0.495,0,0
10 4b,9,4,444,right,1,yellow diamond,0.457,1,0
10 4b,9,4,257,left,4,yellow diamond,0.495,0,0
10 4b,9,4,382,right,4,yellow diamond,0.388,1,0
10 4b,9,4,497,right,4,yellow diamond,0.391,1,0
10 4b,9,4,594,right,4,yellow diamond,0.432,1,0
10 4b,9,4,368,right,4,yellow diamond,0.388,1,0
10 4b,9,4,222,right,4,yellow diamond,0.343,1,0
10 4b,9,4,557,right,9,yellow diamond,0.533,1,0
10 4b,9,4,252,right,9,yellow diamond,0.434,1,0
10 4b,9,4,71,right,9,yellow diamond,0.471,1,0
10 4b,9,4,45,left,9,yellow diamond,0.355,0,0
10 4b,9,4,127,left,9,yellow diamond,0.392,0,0
10 4b,9,4,164,right,9,yellow diamond,0.377,1,0
10 4b,9,4,153,left,19,yellow diamond,0.403,0,0
10 4b,9,4,360,right,19,yellow diamond,0.519,1,0
10 4b,9,4,285,right,19,yellow diamond,0.435,1,0
10 4b,9,4,635,left,19,yellow diamond,0.508,0,0
10 4b,9,4,223,left,19,yellow diamond,0.337,0,0
10 4b,9,4,121,right,19,yellow diamond,0.694,1,0
10 4b,9,4,634,right,31,yellow diamond,0.398,1,0
10 4b,9,4,467,right,31,yellow diamond,0.454,1,0
10 4b,9,4,575,left,31,yellow diamond,0.683,0,0
10 4b,9,4,65,left,31,yellow diamond,0.432,0,0
10 4b,9,4,466,left,31,yellow diamond,0.47,0,0
10 4b,9,4,580,left,31,yellow diamond,0.511,0,0
10 4c,3,4,75,left,0,blue diamond,0.366,0,0
10 4c,3,4,270,left,0,blue diamond,0.403,0,0
10 4c,3,4,289,right,0,blue diamond,0.398,1,0
10 4c,3,4,604,left,0,blue diamond,0.625,0,0
10 4c,3,4,329,right,0,blue diamond,0.522,1,0
10 4c,3,4,54,left,0,blue diamond,0.444,0,0
10 4c,3,4,29,left,1,blue diamond,0.577,0,0
10 4c,3,4,181,left,1,blue diamond,0.621,0,0
10 4c,3,4,59,right,1,blue diamond,0.603,1,0
10 4c,3,4,131,left,1,blue diamond,0.52,0,0
10 4c,3,4,47,right,1,blue diamond,0.446,1,0
10 4c,3,4,513,left,1,blue diamond,0.479,0,0
10 4c,3,4,536,left,4,blue diamond,0.583,0,0
10 4c,3,4,250,left,4,blue diamond,0.52,0,0
10 4c,3,4,280,right,4,blue diamond,0.585,1,0
10 4c,3,4,352,right,4,blue diamond,0.48,1,0
10 4c,3,4,274,right,4,blue diamond,0.602,1,0
10 4c,3,4,338,right,4,blue diamond,0.587,1,0
10 4c,3,4,36,right,9,blue diamond,0.651,1,0
10 4c,3,4,45,left,9,blue diamond,0.407,0,0
10 4c,3,4,586,right,9,blue diamond,0.519,1,0
10 4c,3,4,522,right,9,blue diamond,0.535,1,0
10 4c,3,4,22,right,9,blue diamond,0.542,1,0
10 4c,3,4,357,left,9,blue diamond,0.49,0,0
10 4c,3,4,610,right,19,blue diamond,0.444,1,0
10 4c,3,4,629,left,19,blue diamond,0.69,0,0
10 4c,3,4,418,left,19,blue diamond,0.479,0,0
10 4c,3,4,440,left,19,blue diamond,0.336,0,0
10 4c,3,4,119,left,19,blue diamond,0.513,0,0
10 4c,3,4,410,right,19,blue diamond,0.593,1,0
10 4c,3,4,310,right,31,blue diamond,0.531,1,0
10 4c,3,4,116,right,31,blue diamond,0.447,1,0
10 4c,3,4,109,right,31,blue diamond,0.582,1,0
10 4c,3,4,79,right,31,blue diamond,0.471,1,0
10 4c,3,4,20,left,31,blue diamond,0.67,0,0
10 4c,3,4,323,left,31,blue diamond,0.661,0,0
10 4c,3,4,533,left,0,orange semicircle,0.801,0,0
10 4c,3,4,404,left,0,orange semicircle,0.366,0,0
10 4c,3,4,54,left,0,orange semicircle,0.444,0,0
10 4c,3,4,251,left,0,orange semicircle,0.571,0,0
10 4c,3,4,356,left,0,orange semicircle,0.507,0,0
10 4c,3,4,604,left,0,orange semicircle,0.625,0,0
10 4c,3,4,211,left,1,orange semicircle,0.409,0,0
10 4c,3,4,169,left,1,orange semicircle,0.517,0,0
10 4c,3,4,334,left,1,orange semicircle,0.464,0,0
10 4c,3,4,78,right,1,orange semicircle,0.549,1,0
10 4c,3,4,387,left,1,orange semicircle,0.525,0,0
10 4c,3,4,86,left,1,orange semicircle,0.603,0,0
10 4c,3,4,337,right,4,orange semicircle,0.557,1,0
10 4c,3,4,368,right,4,orange semicircle,0.463,1,0
10 4c,3,4,129,right,4,orange semicircle,0.53,1,0
10 4c,3,4,84,right,4,orange semicircle,0.508,1,0
10 4c,3,4,155,left,4,orange semicircle,0.433,0,0
10 4c,3,4,183,left,4,orange semicircle,0.584,0,0
10 4c,3,4,437,left,9,orange semicircle,0.63,0,0
10 4c,3,4,207,left,9,orange semicircle,0.675,0,0
10 4c,3,4,38,left,9,orange semicircle,0.751,0,0
10 4c,3,4,293,left,9,orange semicircle,0.517,0,0
10 4c,3,4,196,left,9,orange semicircle,0.575,0,0
10 4c,3,4,34,right,9,orange semicircle,0.608,1,0
10 4c,3,4,568,left,19,orange semicircle,0.505,0,0
10 4c,3,4,16,left,19,orange semicircle,0.935,0,0
10 4c,3,4,435,right,19,orange semicircle,0.373,1,0
10 4c,3,4,31,left,19,orange semicircle,0.525,0,0
10 4c,3,4,195,right,19,orange semicircle,0.742,1,0
10 4c,3,4,557,right,19,orange semicircle,0.442,1,0
10 4c,3,4,12,right,31,orange semicircle,0.534,1,0
10 4c,3,4,66,right,31,orange semicircle,0.52,1,0
10 4c,3,4,546,right,31,orange semicircle,0.781,1,0
10 4c,3,4,234,right,31,orange semicircle,0.57,1,0
10 4c,3,4,478,left,31,orange semicircle,0.623,0,0
10 4c,3,4,459,left,31,orange semicircle,0.434,0,0
10 4c,3,4,519,right,0,yellow circle,0.456,1,0
10 4c,3,4,598,right,0,yellow circle,0.392,1,0
10 4c,3,4,304,right,0,yellow circle,0.404,1,0
10 4c,3,4,528,right,0,yellow circle,0.394,1,0
10 4c,3,4,209,left,0,yellow circle,0.459,0,0
10 4c,3,4,298,left,0,yellow circle,0.429,0,0
10 4c,3,4,291,left,1,yellow circle,0.489,0,0
10 4c,3,4,271,left,1,yellow circle,0.436,0,0
10 4c,3,4,144,right,1,yellow circle,0.508,1,0
10 4c,3,4,286,left,1,yellow circle,0.414,0,0
10 4c,3,4,56,right,1,yellow circle,0.46,1,0
10 4c,3,4,287,right,1,yellow circle,0.457,1,0
10 4c,3,4,239,left,4,yellow circle,0.451,0,0
10 4c,3,4,333,left,4,yellow circle,0.47,0,0
10 4c,3,4,579,left,4,yellow circle,0.426,0,0
10 4c,3,4,485,right,4,yellow circle,0.401,1,0
10 4c,3,4,232,left,4,yellow circle,0.411,0,0
10 4c,3,4,7,right,4,yellow circle,0.434,1,0
10 4c,3,4,413,right,9,yellow circle,0.867,1,0
10 4c,3,4,464,left,9,yellow circle,0.461,0,0
10 4c,3,4,396,right,9,yellow circle,0.5,1,0
10 4c,3,4,509,right,9,yellow circle,0.439,1,0
10 4c,3,4,37,left,9,yellow circle,0.445,0,0
10 4c,3,4,324,right,9,yellow circle,0.518,1,0
10 4c,3,4,227,right,19,yellow circle,0.451,1,0
10 4c,3,4,491,left,19,yellow circle,0.441,0,0
10 4c,3,4,495,right,19,yellow circle,0.493,1,0
10 4c,3,4,446,right,19,yellow circle,0.345,1,0
10 4c,3,4,512,right,19,yellow circle,0.444,1,0
10 4c,3,4,213,left,19,yellow circle,0.416,0,0
10 4c,3,4,55,left,31,yellow circle,0.486,0,0
10 4c,3,4,165,right,31,yellow circle,0.523,1,0
10 4c,3,4,472,right,31,yellow circle,0.427,1,0
10 4c,3,4,6,right,31,yellow circle,0.568,1,0
10 4c,3,4,351,right,31,yellow circle,0.469,1,0
10 4c,3,4,43,left,31,yellow circle,0.527,0,0
11 1a,20,1,480,left,0,blue,0.75,0,0
11 1a,20,1,28,left,0,blue,0.616,0,0
11 1a,20,1,253,left,0,blue,0.481,0,0
11 1a,20,1,617,right,0,blue,0.775,1,0
11 1a,20,1,166,right,0,blue,0.835,1,0
11 1a,20,1,97,right,0,blue,0.628,1,0
11 1a,20,1,51,right,1,blue,0.752,1,0
11 1a,20,1,128,left,1,blue,0.992,0,0
11 1a,20,1,54,left,1,blue,1.06,0,0
11 1a,20,1,299,left,1,blue,0.726,0,0
11 1a,20,1,466,left,1,blue,0.625,0,0
11 1a,20,1,546,right,1,blue,1.14,1,0
11 1a,20,1,448,left,4,blue,0.611,0,0
11 1a,20,1,370,left,4,blue,0.585,0,0
11 1a,20,1,417,left,4,blue,0.734,0,0
11 1a,20,1,582,left,4,blue,0.685,0,0
11 1a,20,1,114,left,4,blue,1.547,0,0
11 1a,20,1,241,left,4,blue,0.757,0,0
11 1a,20,1,257,right,9,blue,0.98,1,0
11 1a,20,1,381,right,9,blue,0.978,1,0
11 1a,20,1,403,right,9,blue,0.999,1,0
11 1a,20,1,443,right,9,blue,0.611,1,0
11 1a,20,1,271,right,9,blue,0.997,1,0
11 1a,20,1,640,left,9,blue,0.441,0,0
11 1a,20,1,226,left,19,blue,1.322,0,0
11 1a,20,1,533,left,19,blue,0.853,0,0
11 1a,20,1,422,left,19,blue,0.735,0,0
11 1a,20,1,100,right,19,blue,0.609,1,0
11 1a,20,1,564,right,19,blue,0.836,1,0
11 1a,20,1,334,right,19,blue,1.236,1,0
11 1a,20,1,435,right,31,blue,1.216,1,0
11 1a,20,1,461,left,31,blue,0.883,0,0
11 1a,20,1,277,right,31,blue,1.159,1,0
11 1a,20,1,482,left,31,blue,0.635,0,0
11 1a,20,1,18,left,31,blue,0.629,0,0
11 1a,20,1,297,right,31,blue,0.891,1,0
11 1a,20,1,392,left,0,orange,0.763,0,0
11 1a,20,1,38,left,0,orange,0.771,0,0
11 1a,20,1,537,right,0,orange,0.668,1,0
11 1a,20,1,97,right,0,orange,0.628,1,0
11 1a,20,1,480,left,0,orange,0.75,0,0
11 1a,20,1,617,right,0,orange,0.775,1,0
11 1a,20,1,447,right,1,orange,0.47,1,0
11 1a,20,1,382,left,1,orange,0.677,0,0
11 1a,20,1,190,right,1,orange,0.551,1,0
11 1a,20,1,400,left,1,orange,0.604,0,0
11 1a,20,1,107,right,1,orange,0.57,1,0
11 1a,20,1,96,left,1,orange,0.515,0,0
11 1a,20,1,458,right,4,orange,0.717,1,0
11 1a,20,1,621,right,4,orange,0.557,1,0
11 1a,20,1,578,right,4,orange,0.523,1,0
11 1a,20,1,630,left,4,orange,0.714,0,0
11 1a,20,1,309,left,4,orange,0.648,0,0
11 1a,20,1,412,right,4,orange,0.956,1,0
11 1a,20,1,287,left,9,orange,0.668,0,0
11 1a,20,1,511,right,9,orange,0.555,1,0
11 1a,20,1,522,right,9,orange,0.525,1,0
11 1a,20,1,375,right,9,orange,1.288,1,0
11 1a,20,1,602,left,9,orange,0.746,0,0
11 1a,20,1,134,left,9,orange,0.671,0,0
11 1a,20,1,542,left,19,orange,0.69,0,0
11 1a,20,1,612,left,19,orange,0.632,0,0
11 1a,20,1,10,right,19,orange,0.556,1,0
11 1a,20,1,158,right,19,orange,0.769,1,0
11 1a,20,1,521,left,19,orange,0.599,0,0
11 1a,20,1,23,left,19,orange,0.65,0,0
11 1a,20,1,318,right,31,orange,0.649,1,0
11 1a,20,1,292,right,31,orange,1.366,1,0
11 1a,20,1,525,right,31,orange,0.584,1,0
11 1a,20,1,476,right,31,orange,0.75,1,0
11 1a,20,1,494,left,31,orange,1.096,0,0
11 1a,20,1,201,right,31,orange,1.058,1,0
11 1a,20,1,166,right,0,yellow,0.835,1,0
11 1a,20,1,238,right,0,yellow,0.634,1,0
11 1a,20,1,119,right,0,yellow,0.662,1,0
11 1a,20,1,63,left,0,yellow,0.717,0,0
11 1a,20,1,483,left,0,yellow,0.556,0,0
11 1a,20,1,388,left,0,yellow,0.678,0,0
11 1a,20,1,368,right,1,yellow,0.725,1,0
11 1a,20,1,326,left,1,yellow,0.4,0,0
11 1a,20,1,438,left,1,yellow,0.74,0,0
11 1a,20,1,340,right,1,yellow,0.632,1,0
11 1a,20,1,146,right,1,yellow,0.78,1,0
11 1a,20,1,395,right,1,yellow,0.699,1,0
11 1a,20,1,454,left,4,yellow,0.514,0,0
11 1a,20,1,56,right,4,yellow,0.864,1,0
11 1a,20,1,268,left,4,yellow,0.557,0,0
11 1a,20,1,411,right,4,yellow,0.604,1,0
11 1a,20,1,598,left,4,yellow,0.809,0,0
11 1a,20,1,37,right,4,yellow,0.675,1,0
11 1a,20,1,233,right,9,yellow,0.735,1,0
11 1a,20,1,188,left,9,yellow,0.679,0,0
11 1a,20,1,376,left,9,yellow,0.831,0,0
11 1a,20,1,136,left,9,yellow,0.783,0,0
11 1a,20,1,531,right,9,yellow,0.606,1,0
11 1a,20,1,217,right,9,yellow,0.663,1,0
11 1a,20,1,304,right,19,yellow,0.631,1,0
11 1a,20,1,172,right,19,yellow,0.718,1,0
11 1a,20,1,624,left,19,yellow,0.772,0,0
11 1a,20,1,397,right,19,yellow,0.992,1,0
11 1a,20,1,426,right,19,yellow,0.583,1,0
11 1a,20,1,109,right,19,yellow,0.566,1,0
11 1a,20,1,103,right,31,yellow,0.554,1,0
11 1a,20,1,554,left,31,yellow,1.374,0,0
11 1a,20,1,256,left,31,yellow,0.684,0,0
11 1a,20,1,93,left,31,yellow,0.618,0,0
11 1a,20,1,505,right,31,yellow,0.678,1,0
11 1a,20,1,290,right,31,yellow,0.99,1,0
11 1b,11,1,413,right,0,circle,0.434,1,0
11 1b,11,1,506,right,0,circle,0.543,1,0
11 1b,11,1,335,left,0,circle,0.634,0,0
11 1b,11,1,447,left,0,circle,0.436,0,0
11 1b,11,1,623,left,0,circle,0.516,0,0
11 1b,11,1,481,left,0,circle,0.51,0,0
11 1b,11,1,78,right,1,circle,0.545,1,0
11 1b,11,1,573,left,1,circle,0.708,0,0
11 1b,11,1,180,left,1,circle,0.598,0,0
11 1b,11,1,87,right,1,circle,0.876,1,0
11 1b,11,1,556,left,1,circle,0.507,0,0
11 1b,11,1,91,left,1,circle,0.631,0,0
11 1b,11,1,105,left,4,circle,0.703,0,0
11 1b,11,1,365,left,4,circle,0.526,0,0
11 1b,11,1,300,left,4,circle,0.568,0,0
11 1b,11,1,262,right,4,circle,0.669,1,0
11 1b,11,1,70,left,4,circle,0.671,0,0
11 1b,11,1,512,right,4,circle,0.568,1,0
11 1b,11,1,324,left,9,circle,0.574,0,0
11 1b,11,1,76,right,9,circle,0.637,1,0
11 1b,11,1,251,right,9,circle,0.587,1,0
11 1b,11,1,106,left,9,circle,0.626,0,0
11 1b,11,1,303,right,9,circle,0.859,1,0
11 1b,11,1,134,right,9,circle,0.586,1,0
11 1b,11,1,369,right,19,circle,0.471,1,0
11 1b,11,1,22,left,19,circle,0.854,0,0
11 1b,11,1,170,left,19,circle,0.536,0,0
11 1b,11,1,103,left,19,circle,0.656,0,0
11 1b,11,1,240,right,19,circle,0.657,1,0
11 1b,11,1,521,left,19,circle,0.886,0,0
11 1b,11,1,537,right,31,circle,1.01,1,0
11 1b,11,1,627,right,31,circle,0.734,1,0
11 1b,11,1,507,right,31,circle,0.618,1,0
11 1b,11,1,30,right,31,circle,0.902,1,0
11 1b,11,1,346,left,31,circle,0.967,0,0
11 1b,11,1,268,left,31,circle,1.024,0,0
11 1b,11,1,400,right,0,diamond,0.512,1,0
11 1b,11,1,84,left,0,diamond,0.455,0,0
11 1b,11,1,307,left,0,diamond,0.5,0,0
11 1b,11,1,344,right,0,diamond,0.564,1,0
11 1b,11,1,178,left,0,diamond,0.474,0,0
11 1b,11,1,403,left,0,diamond,0.582,0,0
11 1b,11,1,154,right,1,diamond,0.727,1,0
11 1b,11,1,477,right,1,diamond,0.566,1,0
11 1b,11,1,82,left,1,diamond,0.537,0,0
11 1b,11,1,146,left,1,diamond,0.672,0,0
11 1b,11,1,407,left,1,diamond,0.455,0,0
11 1b,11,1,632,right,1,diamond,0.698,1,0
11 1b,11,1,44,left,4,diamond,0.841,0,0
11 1b,11,1,145,right,4,diamond,0.663,1,0
11 1b,11,1,283,left,4,diamond,0.631,0,0
11 1b,11,1,617,right,4,diamond,0.662,1,0
11 1b,11,1,628,left,4,diamond,0.579,0,0
11 1b,11,1,252,right,4,diamond,0.573,1,0
11 1b,11,1,578,left,9,diamond,0.557,0,0
11 1b,11,1,102,right,9,diamond,0.858,1,0
11 1b,11,1,636,right,9,diamond,0.508,1,0
11 1b,11,1,197,left,9,diamond,0.856,0,0
11 1b,11,1,386,right,9,diamond,0.535,1,0
11 1b,11,1,374,right,9,diamond,0.501,1,0
11 1b,11,1,576,right,19,diamond,0.621,1,0
11 1b,11,1,143,right,19,diamond,0.781,1,0
11 1b,11,1,328,right,19,diamond,0.7,1,0
11 1b,11,1,9,right,19,diamond,0.539,1,0
11 1b,11,1,5,right,19,diamond,0.754,1,0
11 1b,11,1,624,left,19,diamond,0.695,0,0
11 1b,11,1,474,right,31,diamond,0.549,1,0
11 1b,11,1,144,right,31,diamond,0.584,1,0
11 1b,11,1,459,left,31,diamond,0.617,0,0
11 1b,11,1,131,right,31,diamond,0.948,1,0
11 1b,11,1,405,left,31,diamond,1.173,0,0
11 1b,11,1,122,left,31,diamond,0.725,0,0
11 1b,11,1,208,left,0,triangle,0.522,0,0
11 1b,11,1,566,right,0,triangle,0.583,1,0
11 1b,11,1,335,left,0,triangle,0.634,0,0
11 1b,11,1,623,left,0,triangle,0.516,0,0
11 1b,11,1,178,left,0,triangle,0.474,0,0
11 1b,11,1,605,left,0,triangle,0.51,0,0
11 1b,11,1,152,left,1,triangle,0.613,0,0
11 1b,11,1,207,right,1,triangle,0.818,1,0
11 1b,11,1,297,right,1,triangle,0.732,1,0
11 1b,11,1,200,right,1,triangle,0.554,1,0
11 1b,11,1,116,right,1,triangle,0.61,1,0
11 1b,11,1,441,left,1,triangle,0.592,0,0
11 1b,11,1,321,left,4,triangle,0.81,0,0
11 1b,11,1,43,right,4,triangle,0.764,1,0
11 1b,11,1,359,right,4,triangle,0.653,1,0
11 1b,11,1,169,right,4,triangle,0.731,1,0
11 1b,11,1,325,left,4,triangle,0.495,0,0
11 1b,11,1,317,left,4,triangle,0.478,0,0
11 1b,11,1,132,right,9,triangle,0.745,1,0
11 1b,11,1,572,right,9,triangle,0.842,1,0
11 1b,11,1,155,left,9,triangle,0.696,0,0
11 1b,11,1,130,left,9,triangle,0.65,0,0
11 1b,11,1,490,left,9,triangle,1.545,0,0
11 1b,11,1,414,left,9,triangle,0.561,0,0
11 1b,11,1,492,left,19,triangle,0.827,0,0
11 1b,11,1,69,right,19,triangle,0.798,1,0
11 1b,11,1,312,left,19,triangle,0.58,0,0
11 1b,11,1,238,left,19,triangle,0.874,0,0
11 1b,11,1,311,right,19,triangle,0.553,1,0
11 1b,11,1,294,right,19,triangle,0.774,1,0
11 1b,11,1,446,right,31,triangle,0.74,1,0
11 1b,11,1,282,left,31,triangle,0.698,0,0
11 1b,11,1,467,right,31,triangle,0.656,1,0
11 1b,11,1,577,left,31,triangle,0.645,0,0
11 1b,11,1,433,left,31,triangle,0.599,0,0
11 1b,11,1,88,left,31,triangle,0.822,0,0
11 2a,6,2,351,right,0,blue circle,0.733,1,0
11 2a,6,2,398,right,0,blue circle,0.466,1,0
11 2a,6,2,353,left,0,blue circle,0.517,0,0
11 2a,6,2,410,right,0,blue circle,0.4,1,0
11 2a,6,2,598,right,0,blue circle,0.396,1,0
11 2a,6,2,431,left,0,blue circle,0.41,0,0
11 2a,6,2,443,right,1,blue circle,0.654,1,0
11 2a,6,2,64,right,1,blue circle,0.438,1,0
11 2a,6,2,31,left,1,blue circle,0.584,0,0
11 2a,6,2,125,left,1,blue circle,0.581,0,0
11 2a,6,2,242,left,1,blue circle,0.466,0,0
11 2a,6,2,328,left,1,blue circle,0.56,0,0
11 2a,6,2,566,left,4,blue circle,0.447,0,0
11 2a,6,2,533,right,4,blue circle,0.561,1,0
11 2a,6,2,563,left,4,blue circle,0.521,0,0
11 2a,6,2,105,left,4,blue circle,0.575,0,0
11 2a,6,2,127,right,4,blue circle,0.482,1,0
11 2a,6,2,544,left,4,blue circle,0.461,0,0
11 2a,6,2,462,left,9,blue circle,0.616,0,0
11 2a,6,2,39,right,9,blue circle,0.379,1,0
11 2a,6,2,404,left,9,blue circle,0.531,0,0
11 2a,6,2,418,right,9,blue circle,0.543,1,0
11 2a,6,2,639,left,9,blue circle,0.604,0,0
11 2a,6,2,58,left,9,blue circle,0.455,0,0
11 2a,6,2,499,left,19,blue circle,0.456,0,0
11 2a,6,2,101,right,19,blue circle,0.509,1,0
11 2a,6,2,369,left,19,blue circle,0.528,0,0
11 2a,6,2,468,left,19,blue circle,0.593,0,0
11 2a,6,2,556,right,19,blue circle,0.599,1,0
11 2a,6,2,313,right,19,blue circle,0.46,1,0
11 2a,6,2,6,right,31,blue circle,0.496,1,0
11 2a,6,2,74,right,31,blue circle,0.429,1,0
11 2a,6,2,403,left,31,blue circle,0.563,0,0
11 2a,6,2,523,right,31,blue circle,0.572,1,0
11 2a,6,2,432,right,31,blue circle,0.495,1,0
11 2a,6,2,539,right,31,blue circle,0.479,1,0
11 2a,6,2,131,right,0,orange diamond,0.349,1,0
11 2a,6,2,86,right,0,orange diamond,0.351,1,0
11 2a,6,2,314,left,0,orange diamond,0.426,0,0
11 2a,6,2,352,left,0,orange diamond,0.4,0,0
11 2a,6,2,363,right,0,orange diamond,0.472,1,0
11 2a,6,2,381,left,0,orange diamond,0.399,0,0
11 2a,6,2,454,right,1,orange diamond,0.422,1,0
11 2a,6,2,68,right,1,orange diamond,0.449,1,0
11 2a,6,2,310,left,1,orange diamond,0.538,0,0
11 2a,6,2,147,right,1,orange diamond,0.441,1,0
11 2a,6,2,126,left,1,orange diamond,0.716,0,0
11 2a,6,2,311,left,1,orange diamond,0.538,0,0
11 2a,6,2,536,left,4,orange diamond,0.46,0,0
11 2a,6,2,433,right,4,orange diamond,0.485,1,0
11 2a,6,2,548,left,4,orange diamond,0.478,0,0
11 2a,6,2,46,left,4,orange diamond,0.47,0,0
11 2a,6,2,133,right,4,orange diamond,0.433,1,0
11 2a,6,2,342,right,4,orange diamond,0.48,1,0
11 2a,6,2,476,left,9,orange diamond,0.404,0,0
11 2a,6,2,178,right,9,orange diamond,0.521,1,0
11 2a,6,2,72,left,9,orange diamond,0.372,0,0
11 2a,6,2,70,right,9,orange diamond,0.407,1,0
11 2a,6,2,455,left,9,orange diamond,0.384,0,0
11 2a,6,2,51,right,9,orange diamond,0.468,1,0
11 2a,6,2,215,right,19,orange diamond,0.496,1,0
11 2a,6,2,620,right,19,orange diamond,0.519,1,0
11 2a,6,2,95,left,19,orange diamond,0.41,0,0
11 2a,6,2,506,right,19,orange diamond,0.419,1,0
11 2a,6,2,91,right,19,orange diamond,0.534,1,0
11 2a,6,2,262,right,19,orange diamond,0.399,1,0
11 2a,6,2,459,left,31,orange diamond,0.507,0,0
11 2a,6,2,245,right,31,orange diamond,0.442,1,0
11 2a,6,2,535,right,31,orange diamond,0.534,1,0
11 2a,6,2,97,left,31,orange diamond,0.465,0,0
11 2a,6,2,187,left,31,orange diamond,0.425,0,0
11 2a,6,2,100,left,31,orange diamond,0.49,0,0
11 2a,6,2,594,left,0,yellow triangle,0.412,0,0
11 2a,6,2,314,left,0,yellow triangle,0.426,0,0
11 2a,6,2,208,right,0,yellow triangle,0.495,1,0
11 2a,6,2,131,right,0,yellow triangle,0.349,1,0
11 2a,6,2,214,right,0,yellow triangle,0.386,1,0
11 2a,6,2,334,right,0,yellow triangle,0.429,1,0
11 2a,6,2,357,right,1,yellow triangle,0.596,1,0
11 2a,6,2,478,right,1,yellow triangle,0.421,1,0
11 2a,6,2,257,right,1,yellow triangle,0.968,1,0
11 2a,6,2,445,right,1,yellow triangle,0.771,1,0
11 2a,6,2,434,right,1,yellow triangle,0.65,1,0
11 2a,6,2,316,left,1,yellow triangle,0.448,0,0
11 2a,6,2,618,right,4,yellow triangle,0.545,1,0
11 2a,6,2,132,left,4,yellow triangle,0.366,0,0
11 2a,6,2,568,left,4,yellow triangle,0.461,0,0
11 2a,6,2,629,left,4,yellow triangle,0.483,0,0
11 2a,6,2,336,right,4,yellow triangle,0.419,1,0
11 2a,6,2,484,right,4,yellow triangle,0.436,1,0
11 2a,6,2,66,left,9,yellow triangle,0.472,0,0
11 2a,6,2,368,right,9,yellow triangle,0.524,1,0
11 2a,6,2,235,right,9,yellow triangle,0.5,1,0
11 2a,6,2,498,right,9,yellow triangle,0.608,1,0
11 2a,6,2,13,left,9,yellow triangle,0.51,0,0
11 2a,6,2,504,right,9,yellow triangle,0.518,1,0
11 2a,6,2,497,left,19,yellow triangle,0.593,0,0
11 2a,6,2,211,right,19,yellow triangle,0.569,1,0
11 2a,6,2,149,right,19,yellow triangle,0.449,1,0
11 2a,6,2,545,left,19,yellow triangle,0.556,0,0
11 2a,6,2,427,left,19,yellow triangle,0.56,0,0
11 2a,6,2,154,left,19,yellow triangle,0.447,0,0
11 2a,6,2,156,right,31,yellow triangle,0.555,1,0
11 2a,6,2,23,left,31,yellow triangle,0.494,0,0
11 2a,6,2,447,left,31,yellow triangle,0.454,0,0
11 2a,6,2,217,right,31,yellow triangle,0.523,1,0
11 2a,6,2,335,left,31,yellow triangle,0.737,0,0
11 2a,6,2,384,right,31,yellow triangle,0.49,1,0
11 2c,4,2,258,left,0,blue diamond,0.638,0,0
11 2c,4,2,534,left,0,blue diamond,0.923,0,0
11 2c,4,2,288,right,0,blue diamond,0.45,1,0
11 2c,4,2,374,right,0,blue diamond,0.437,1,0
11 2c,4,2,238,right,0,blue diamond,0.545,1,0
11 2c,4,2,632,left,0,blue diamond,0.405,0,0
11 2c,4,2,478,left,1,blue diamond,1.038,0,0
11 2c,4,2,269,right,1,blue diamond,0.447,1,0
11 2c,4,2,499,right,1,blue diamond,0.457,1,0
11 2c,4,2,523,right,1,blue diamond,0.453,1,0
11 2c,4,2,115,right,1,blue diamond,0.455,1,0
11 2c,4,2,436,left,1,blue diamond,0.508,0,0
11 2c,4,2,277,right,4,blue diamond,0.42,1,0
11 2c,4,2,129,right,4,blue diamond,0.461,1,0
11 2c,4,2,247,right,4,blue diamond,0.741,1,0
11 2c,4,2,5,left,4,blue diamond,0.508,0,0
11 2c,4,2,372,left,4,blue diamond,0.7,0,0
11 2c,4,2,13,right,4,blue diamond,0.98,1,0
11 2c,4,2,405,right,9,blue diamond,0.79,1,0
11 2c,4,2,440,left,9,blue diamond,0.574,0,0
11 2c,4,2,135,left,9,blue diamond,0.597,0,0
11 2c,4,2,634,left,9,blue diamond,0.764,0,0
11 2c,4,2,430,left,9,blue diamond,0.447,0,0
11 2c,4,2,535,right,9,blue diamond,0.728,1,0
11 2c,4,2,429,left,19,blue diamond,1.01,0,0
11 2c,4,2,43,right,19,blue diamond,0.564,1,0
11 2c,4,2,574,left,19,blue diamond,0.493,0,0
11 2c,4,2,173,left,19,blue diamond,0.468,0,0
11 2c,4,2,69,right,19,blue diamond,0.455,1,0
11 2c,4,2,502,left,19,blue diamond,0.409,0,0
11 2c,4,2,446,right,31,blue diamond,0.504,1,0
11 2c,4,2,621,right,31,blue diamond,0.736,1,0
11 2c,4,2,528,right,31,blue diamond,0.836,1,0
11 2c,4,2,59,left,31,blue diamond,1.127,0,0
11 2c,4,2,155,right,31,blue diamond,0.498,1,0
11 2c,4,2,319,left,31,blue diamond,0.795,0,0
11 2c,4,2,483,right,0,orange triangle,0.398,1,0
11 2c,4,2,104,left,0,orange triangle,0.455,0,0
11 2c,4,2,288,right,0,orange triangle,0.45,1,0
11 2c,4,2,537,right,0,orange triangle,0.338,1,0
11 2c,4,2,165,left,0,orange triangle,0.456,0,0
11 2c,4,2,374,right,0,orange triangle,0.437,1,0
11 2c,4,2,57,left,1,orange triangle,0.484,0,0
11 2c,4,2,488,left,1,orange triangle,0.336,0,0
11 2c,4,2,63,right,1,orange triangle,0.453,1,0
11 2c,4,2,357,right,1,orange triangle,0.62,1,0
11 2c,4,2,309,left,1,orange triangle,0.504,0,0
11 2c,4,2,40,left,1,orange triangle,0.469,0,0
11 2c,4,2,259,right,4,orange triangle,0.38,1,0
11 2c,4,2,305,right,4,orange triangle,0.418,1,0
11 2c,4,2,406,left,4,orange triangle,0.418,0,0
11 2c,4,2,602,left,4,orange triangle,0.5,0,0
11 2c,4,2,606,right,4,orange triangle,0.497,1,0
11 2c,4,2,255,left,4,orange triangle,0.538,0,0
11 2c,4,2,590,left,9,orange triangle,0.466,0,0
11 2c,4,2,186,left,9,orange triangle,0.479,0,0
11 2c,4,2,178,right,9,orange triangle,0.651,1,0
11 2c,4,2,149,right,9,orange triangle,0.68,1,0
11 2c,4,2,482,right,9,orange triangle,0.534,1,0
11 2c,4,2,226,left,9,orange triangle,0.548,0,0
11 2c,4,2,132,left,19,orange triangle,0.507,0,0
11 2c,4,2,306,left,19,orange triangle,0.417,0,0
11 2c,4,2,409,left,19,orange triangle,0.525,0,0
11 2c,4,2,353,left,19,orange triangle,0.44,0,0
11 2c,4,2,373,right,19,orange triangle,0.844,1,0
11 2c,4,2,605,left,19,orange triangle,0.608,0,0
11 2c,4,2,239,right,31,orange triangle,0.44,1,0
11 2c,4,2,382,right,31,orange triangle,0.513,1,0
11 2c,4,2,16,left,31,orange triangle,0.956,0,0
11 2c,4,2,553,right,31,orange triangle,0.372,1,0
11 2c,4,2,212,left,31,orange triangle,0.345,0,0
11 2c,4,2,300,right,31,orange triangle,0.729,1,0
11 2c,4,2,527,left,0,yellow circle,0.442,0,0
11 2c,4,2,22,right,0,yellow circle,0.894,1,0
11 2c,4,2,202,left,0,yellow circle,0.329,0,0
11 2c,4,2,424,left,0,yellow circle,0.755,0,0
11 2c,4,2,35,right,0,yellow circle,0.579,1,0
11 2c,4,2,104,left,0,yellow circle,0.455,0,0
11 2c,4,2,328,right,1,yellow circle,0.382,1,0
11 2c,4,2,64,left,1,yellow circle,0.4,0,0
11 2c,4,2,272,right,1,yellow circle,0.407,1,0
11 2c,4,2,496,left,1,yellow circle,0.544,0,0
11 2c,4,2,257,left,1,yellow circle,0.456,0,0
11 2c,4,2,266,left,1,yellow circle,0.382,0,0
11 2c,4,2,518,left,4,yellow circle,0.369,0,0
11 2c,4,2,587,left,4,yellow circle,0.344,0,0
11 2c,4,2,134,left,4,yellow circle,0.412,0,0
11 2c,4,2,491,right,4,yellow circle,0.391,1,0
11 2c,4,2,181,right,4,yellow circle,0.597,1,0
11 2c,4,2,30,left,4,yellow circle,0.414,0,0
11 2c,4,2,346,right,9,yellow circle,0.411,1,0
11 2c,4,2,503,right,9,yellow circle,0.35,1,0
11 2c,4,2,614,right,9,yellow circle,0.508,1,0
11 2c,4,2,295,right,9,yellow circle,0.419,1,0
11 2c,4,2,375,right,9,yellow circle,0.496,1,0
11 2c,4,2,123,left,9,yellow circle,0.407,0,0
11 2c,4,2,302,right,19,yellow circle,0.724,1,0
11 2c,4,2,290,left,19,yellow circle,0.591,0,0
11 2c,4,2,124,right,19,yellow circle,0.352,1,0
11 2c,4,2,107,left,19,yellow circle,0.487,0,0
11 2c,4,2,530,right,19,yellow circle,0.454,1,0
11 2c,4,2,131,right,19,yellow circle,0.526,1,0
11 2c,4,2,145,right,31,yellow circle,0.967,1,0
11 2c,4,2,448,right,31,yellow circle,0.371,1,0
11 2c,4,2,105,left,31,yellow circle,0.386,0,0
11 2c,4,2,89,right,31,yellow circle,0.414,1,0
11 2c,4,2,542,right,31,yellow circle,0.407,1,0
11 2c,4,2,182,left,31,yellow circle,0.366,0,0
11 3a,8,3,400,left,0,blue,0.463,0,0
11 3a,8,3,183,left,0,blue,0.38,0,0
11 3a,8,3,359,left,0,blue,0.464,0,0
11 3a,8,3,55,left,0,blue,0.466,0,0
11 3a,8,3,592,right,0,blue,0.713,1,0
11 3a,8,3,579,left,0,blue,0.492,0,0
11 3a,8,3,510,right,1,blue,0.606,1,0
11 3a,8,3,106,left,1,blue,0.614,0,0
11 3a,8,3,519,right,1,blue,0.534,1,0
11 3a,8,3,423,right,1,blue,0.541,1,0
11 3a,8,3,152,right,1,blue,0.419,1,0
11 3a,8,3,339,right,1,blue,0.488,1,0
11 3a,8,3,365,right,4,blue,0.527,1,0
11 3a,8,3,245,left,4,blue,0.449,0,0
11 3a,8,3,578,left,4,blue,0.527,0,0
11 3a,8,3,327,right,4,blue,0.533,1,0
11 3a,8,3,586,left,4,blue,0.459,0,0
11 3a,8,3,101,left,4,blue,0.448,0,0
11 3a,8,3,284,right,9,blue,0.474,1,0
11 3a,8,3,618,left,9,blue,0.467,0,0
11 3a,8,3,26,right,9,blue,0.694,1,0
11 3a,8,3,615,left,9,blue,0.425,0,0
11 3a,8,3,389,left,9,blue,0.521,0,0
11 3a,8,3,141,right,9,blue,0.597,1,0
11 3a,8,3,582,left,19,blue,0.352,0,0
11 3a,8,3,44,left,19,blue,0.575,0,0
11 3a,8,3,412,left,19,blue,0.356,0,0
11 3a,8,3,83,left,19,blue,0.467,0,0
11 3a,8,3,498,left,19,blue,0.649,0,0
11 3a,8,3,63,right,19,blue,0.626,1,0
11 3a,8,3,445,right,31,blue,0.791,1,0
11 3a,8,3,338,right,31,blue,0.49,1,0
11 3a,8,3,409,right,31,blue,0.754,1,0
11 3a,8,3,309,left,31,blue,0.48,0,0
11 3a,8,3,552,left,31,blue,0.673,0,0
11 3a,8,3,513,right,31,blue,0.484,1,0
11 3a,8,3,64,right,0,orange,0.433,1,0
11 3a,8,3,150,right,0,orange,0.508,1,0
