p_id,ps_id,exp_id,trial,t_id,N_T,d_feature,rt,response,error
1 1a,9,1,32,left,0,orange,0.48,0,0
1 1a,9,1,184,left,0,orange,0.725,0,0
1 1a,9,1,161,right,0,orange,0.586,1,0
1 1a,9,1,411,left,0,orange,0.386,0,0
1 1a,9,1,622,right,0,orange,0.365,1,0
1 1a,9,1,458,right,0,orange,0.503,1,0
1 1a,9,1,167,right,1,orange,0.397,1,0
1 1a,9,1,61,left,1,orange,0.359,0,0
1 1a,9,1,39,right,1,orange,0.543,1,0
1 1a,9,1,606,right,1,orange,0.491,1,0
1 1a,9,1,166,right,1,orange,0.404,1,0
1 1a,9,1,225,left,1,orange,0.606,0,0
1 1a,9,1,131,left,4,orange,0.505,0,0
1 1a,9,1,102,right,4,orange,0.523,1,0
1 1a,9,1,27,right,4,orange,0.53,1,0
1 1a,9,1,248,right,4,orange,0.601,1,0
1 1a,9,1,337,left,4,orange,0.473,0,0
1 1a,9,1,141,right,4,orange,0.45,1,0
1 1a,9,1,568,left,9,orange,0.392,0,0
1 1a,9,1,570,right,9,orange,0.531,1,0
1 1a,9,1,385,left,9,orange,0.437,0,0
1 1a,9,1,535,right,9,orange,0.384,1,0
1 1a,9,1,350,left,9,orange,0.517,0,0
1 1a,9,1,420,left,9,orange,0.43,0,0
1 1a,9,1,132,right,19,orange,0.511,1,0
1 1a,9,1,527,left,19,orange,0.488,0,0
1 1a,9,1,546,right,19,orange,0.43,1,0
1 1a,9,1,444,left,19,orange,0.453,0,0
1 1a,9,1,316,left,19,orange,0.427,0,0
1 1a,9,1,75,left,19,orange,0.373,0,0
1 1a,9,1,616,right,31,orange,0.538,1,0
1 1a,9,1,383,right,31,orange,0.412,1,0
1 1a,9,1,623,left,31,orange,0.42,0,0
1 1a,9,1,213,right,31,orange,0.458,1,0
1 1a,9,1,112,right,31,orange,0.411,1,0
1 1a,9,1,320,left,31,orange,0.479,0,0
1 1a,9,1,391,right,0,blue,0.387,1,0
1 1a,9,1,411,left,0,blue,0.386,0,0
1 1a,9,1,32,left,0,blue,0.48,0,0
1 1a,9,1,635,left,0,blue,0.533,0,0
1 1a,9,1,23,left,0,blue,0.378,0,0
1 1a,9,1,353,right,0,blue,0.366,1,0
1 1a,9,1,126,left,1,blue,0.649,0,0
1 1a,9,1,595,right,1,blue,0.608,1,0
1 1a,9,1,522,right,1,blue,0.488,1,0
1 1a,9,1,29,left,1,blue,0.712,0,0
1 1a,9,1,488,left,1,blue,0.528,0,0
1 1a,9,1,430,left,1,blue,0.48,0,0
1 1a,9,1,35,right,4,blue,0.717,1,0
1 1a,9,1,358,left,4,blue,1.087,0,0
1 1a,9,1,26,right,4,blue,0.685,1,0
1 1a,9,1,457,left,4,blue,0.555,0,0
1 1a,9,1,119,right,4,blue,0.557,1,0
1 1a,9,1,632,right,4,blue,0.526,1,0
1 1a,9,1,265,right,9,blue,0.826,1,0
1 1a,9,1,260,left,9,blue,1.004,0,0
1 1a,9,1,291,left,9,blue,0.743,0,0
1 1a,9,1,84,left,9,blue,0.821,0,0
1 1a,9,1,453,left,9,blue,0.419,0,0
1 1a,9,1,137,right,9,blue,1.519,1,0
1 1a,9,1,152,left,19,blue,0.997,0,0
1 1a,9,1,183,right,19,blue,0.793,1,0
1 1a,9,1,273,right,19,blue,0.426,1,0
1 1a,9,1,87,right,19,blue,0.598,1,0
1 1a,9,1,499,right,19,blue,0.694,1,0
1 1a,9,1,236,right,19,blue,0.807,1,0
1 1a,9,1,14,left,31,blue,0.727,0,0
1 1a,9,1,460,right,31,blue,0.906,1,0
1 1a,9,1,501,right,31,blue,1.594,1,0
1 1a,9,1,81,right,31,blue,0.581,1,0
1 1a,9,1,394,left,31,blue,0.75,0,0
1 1a,9,1,465,right,31,blue,0.455,1,0
1 1a,9,1,305,left,0,yellow,0.53,0,0
1 1a,9,1,411,left,0,yellow,0.386,0,0
1 1a,9,1,391,right,0,yellow,0.387,1,0
1 1a,9,1,149,left,0,yellow,0.433,0,0
1 1a,9,1,638,right,0,yellow,0.707,1,0
1 1a,9,1,635,left,0,yellow,0.533,0,0
1 1a,9,1,557,right,1,yellow,0.475,1,0
1 1a,9,1,209,right,1,yellow,0.459,1,0
1 1a,9,1,608,right,1,yellow,0.52,1,0
1 1a,9,1,226,right,1,yellow,0.484,1,0
1 1a,9,1,432,left,1,yellow,0.426,0,0
1 1a,9,1,227,left,1,yellow,0.39,0,0
1 1a,9,1,96,left,4,yellow,0.473,0,0
1 1a,9,1,416,left,4,yellow,0.489,0,0
1 1a,9,1,113,left,4,yellow,0.688,0,0
1 1a,9,1,303,left,4,yellow,0.497,0,0
1 1a,9,1,34,left,4,yellow,0.419,0,0
1 1a,9,1,478,left,4,yellow,0.437,0,0
1 1a,9,1,192,right,9,yellow,0.806,1,0
1 1a,9,1,310,left,9,yellow,0.52,0,0
1 1a,9,1,234,right,9,yellow,0.628,1,0
1 1a,9,1,567,right,9,yellow,0.52,1,0
1 1a,9,1,135,left,9,yellow,0.547,0,0
1 1a,9,1,20,right,9,yellow,0.398,1,0
1 1a,9,1,409,left,19,yellow,0.467,0,0
1 1a,9,1,537,right,19,yellow,0.62,1,0
1 1a,9,1,43,left,19,yellow,0.446,0,0
1 1a,9,1,531,left,19,yellow,0.455,0,0
1 1a,9,1,367,left,19,yellow,0.524,0,0
1 1a,9,1,513,right,19,yellow,0.499,1,0
1 1a,9,1,336,right,31,yellow,0.545,1,0
1 1a,9,1,560,left,31,yellow,0.413,0,0
1 1a,9,1,442,left,31,yellow,0.471,0,0
1 1a,9,1,484,left,31,yellow,0.48,0,0
1 1a,9,1,592,right,31,yellow,0.456,1,0
1 1a,9,1,17,left,31,yellow,0.546,0,0
1 1a,9,1,55,right,0,diamond,0.549,1,0
1 1a,9,1,4,left,0,diamond,0.379,0,0
1 1a,9,1,638,right,0,diamond,0.707,1,0
1 1a,9,1,622,right,0,diamond,0.365,1,0
1 1a,9,1,458,right,0,diamond,0.503,1,0
1 1a,9,1,528,right,0,diamond,0.44,1,0
1 1a,9,1,635,left,0,circle,0.533,0,0
1 1a,9,1,369,right,0,circle,0.382,1,0
1 1a,9,1,45,right,0,circle,0.375,1,0
1 1a,9,1,151,right,0,circle,0.41,1,0
1 1a,9,1,353,right,0,circle,0.366,1,0
1 1a,9,1,242,right,0,circle,0.384,1,0
1 1a,9,1,635,left,0,triangle,0.533,0,0
1 1a,9,1,55,right,0,triangle,0.549,1,0
1 1a,9,1,507,right,0,triangle,0.4,1,0
1 1a,9,1,241,right,0,triangle,0.367,1,0
1 1a,9,1,36,left,0,triangle,0.373,0,0
1 1a,9,1,280,right,0,triangle,0.424,1,0
1 1b,2,1,68,right,0,orange,0.431,1,0
1 1b,2,1,112,left,0,orange,0.355,0,0
1 1b,2,1,567,left,0,orange,0.452,0,0
1 1b,2,1,238,left,0,orange,0.385,0,0
1 1b,2,1,509,right,0,orange,0.561,1,0
1 1b,2,1,195,left,0,orange,0.454,0,0
1 1b,2,1,120,right,0,blue,0.436,1,0
1 1b,2,1,46,right,0,blue,0.381,1,0
1 1b,2,1,39,left,0,blue,0.438,0,0
1 1b,2,1,486,right,0,blue,0.385,1,0
1 1b,2,1,238,left,0,blue,0.385,0,0
1 1b,2,1,38,left,0,blue,0.518,0,0
1 1b,2,1,509,right,0,yellow,0.561,1,0
1 1b,2,1,120,right,0,yellow,0.436,1,0
1 1b,2,1,486,right,0,yellow,0.385,1,0
1 1b,2,1,68,right,0,yellow,0.431,1,0
1 1b,2,1,50,left,0,yellow,0.423,0,0
1 1b,2,1,539,left,0,yellow,0.452,0,0
1 1b,2,1,460,right,0,diamond,0.76,1,0
1 1b,2,1,293,right,0,diamond,0.439,1,0
1 1b,2,1,298,right,0,diamond,0.412,1,0
1 1b,2,1,30,right,0,diamond,0.551,1,0
1 1b,2,1,370,left,0,diamond,0.353,0,0
1 1b,2,1,308,right,0,diamond,0.513,1,0
1 1b,2,1,439,left,1,diamond,0.458,0,0
1 1b,2,1,427,right,1,diamond,0.366,1,0
1 1b,2,1,540,right,1,diamond,0.75,1,0
1 1b,2,1,192,left,1,diamond,0.571,0,0
1 1b,2,1,107,left,1,diamond,0.47,0,0
1 1b,2,1,595,right,1,diamond,0.405,1,0
1 1b,2,1,159,left,4,diamond,0.384,0,0
1 1b,2,1,302,right,4,diamond,0.582,1,0
1 1b,2,1,20,right,4,diamond,0.6,1,0
1 1b,2,1,578,left,4,diamond,0.427,0,0
1 1b,2,1,372,right,4,diamond,0.678,1,0
1 1b,2,1,632,right,4,diamond,0.481,1,0
1 1b,2,1,365,left,9,diamond,0.402,0,0
1 1b,2,1,435,left,9,diamond,0.494,0,0
1 1b,2,1,581,left,9,diamond,0.82,0,0
1 1b,2,1,380,right,9,diamond,0.537,1,0
1 1b,2,1,440,left,9,diamond,1.072,0,0
1 1b,2,1,260,right,9,diamond,0.45,1,0
1 1b,2,1,367,left,19,diamond,0.749,0,0
1 1b,2,1,545,left,19,diamond,0.452,0,0
1 1b,2,1,123,left,19,diamond,0.537,0,0
1 1b,2,1,27,right,19,diamond,0.841,1,0
1 1b,2,1,556,left,19,diamond,0.535,0,0
1 1b,2,1,377,right,19,diamond,0.601,1,0
1 1b,2,1,505,left,31,diamond,0.563,0,0
1 1b,2,1,356,right,31,diamond,0.503,1,0
1 1b,2,1,185,right,31,diamond,0.597,1,0
1 1b,2,1,59,right,31,diamond,0.575,1,0
1 1b,2,1,616,left,31,diamond,0.589,0,0
1 1b,2,1,197,left,31,diamond,0.557,0,0
1 1b,2,1,257,left,0,circle,0.594,0,0
1 1b,2,1,567,left,0,circle,0.452,0,0
1 1b,2,1,486,right,0,circle,0.385,1,0
1 1b,2,1,112,left,0,circle,0.355,0,0
1 1b,2,1,635,right,0,circle,0.39,1,0
1 1b,2,1,293,right,0,circle,0.439,1,0
1 1b,2,1,456,right,1,circle,0.616,1,0
1 1b,2,1,494,right,1,circle,0.457,1,0
1 1b,2,1,236,left,1,circle,0.548,0,0
1 1b,2,1,394,right,1,circle,0.513,1,0
1 1b,2,1,237,left,1,circle,0.538,0,0
1 1b,2,1,382,left,1,circle,0.664,0,0
1 1b,2,1,145,right,4,circle,0.627,1,0
1 1b,2,1,289,right,4,circle,0.529,1,0
1 1b,2,1,41,left,4,circle,1.021,0,0
1 1b,2,1,537,right,4,circle,0.449,1,0
1 1b,2,1,446,left,4,circle,0.446,0,0
1 1b,2,1,219,left,4,circle,0.66,0,0
1 1b,2,1,498,left,9,circle,0.421,0,0
1 1b,2,1,489,right,9,circle,0.542,1,0
1 1b,2,1,266,left,9,circle,0.476,0,0
1 1b,2,1,467,left,9,circle,0.734,0,0
1 1b,2,1,339,right,9,circle,0.84,1,0
1 1b,2,1,81,right,9,circle,0.537,1,0
1 1b,2,1,136,left,19,circle,0.799,0,0
1 1b,2,1,404,right,19,circle,0.534,1,0
1 1b,2,1,61,right,19,circle,0.442,1,0
1 1b,2,1,214,left,19,circle,0.508,0,0
1 1b,2,1,42,left,19,circle,0.472,0,0
1 1b,2,1,368,left,19,circle,0.455,0,0
1 1b,2,1,88,right,31,circle,1.166,1,0
1 1b,2,1,384,left,31,circle,0.464,0,0
1 1b,2,1,359,right,31,circle,0.528,1,0
1 1b,2,1,79,left,31,circle,0.833,0,0
1 1b,2,1,211,left,31,circle,0.563,0,0
1 1b,2,1,103,left,31,circle,0.585,0,0
1 1b,2,1,536,right,0,triangle,0.428,1,0
1 1b,2,1,232,left,0,triangle,0.537,0,0
1 1b,2,1,539,left,0,triangle,0.452,0,0
1 1b,2,1,224,left,0,triangle,0.398,0,0
1 1b,2,1,53,left,0,triangle,0.394,0,0
1 1b,2,1,273,left,0,triangle,0.42,0,0
1 1b,2,1,149,left,1,triangle,0.464,0,0
1 1b,2,1,146,left,1,triangle,0.798,0,0
1 1b,2,1,35,right,1,triangle,0.556,1,0
1 1b,2,1,108,right,1,triangle,0.587,1,0
1 1b,2,1,247,left,1,triangle,0.869,0,0
1 1b,2,1,248,left,1,triangle,0.383,0,0
1 1b,2,1,433,left,4,triangle,0.881,0,0
1 1b,2,1,256,right,4,triangle,0.599,1,0
1 1b,2,1,231,right,4,triangle,0.558,1,0
1 1b,2,1,623,right,4,triangle,0.497,1,0
1 1b,2,1,461,left,4,triangle,0.468,0,0
1 1b,2,1,17,left,4,triangle,0.949,0,0
1 1b,2,1,164,right,9,triangle,1.019,1,0
1 1b,2,1,364,right,9,triangle,0.416,1,0
1 1b,2,1,409,left,9,triangle,0.694,0,0
1 1b,2,1,393,left,9,triangle,0.463,0,0
1 1b,2,1,502,left,9,triangle,0.546,0,0
1 1b,2,1,345,left,9,triangle,0.482,0,0
1 1b,2,1,445,right,19,triangle,1.33,1,0
1 1b,2,1,249,right,19,triangle,1.408,1,0
1 1b,2,1,617,right,19,triangle,0.521,1,0
1 1b,2,1,553,right,19,triangle,0.636,1,0
1 1b,2,1,491,left,19,triangle,0.544,0,0
1 1b,2,1,183,right,19,triangle,0.659,1,0
1 1b,2,1,92,right,31,triangle,0.965,1,0
1 1b,2,1,624,right,31,triangle,1.328,1,0
1 1b,2,1,86,left,31,triangle,1.274,0,0
1 1b,2,1,314,left,31,triangle,1.45,0,0
1 1b,2,1,160,right,31,triangle,0.506,1,0
1 1b,2,1,306,right,31,triangle,1.058,1,0
1 2a,13,2,158,left,0,orange diamond,0.653,0,0
1 2a,13,2,306,left,0,orange diamond,0.48,0,0
1 2a,13,2,639,left,0,orange diamond,0.357,0,0
1 2a,13,2,122,right,0,orange diamond,0.413,1,0
1 2a,13,2,442,left,0,orange diamond,0.434,0,0
1 2a,13,2,551,right,0,orange diamond,0.636,1,0
1 2a,13,2,40,left,1,orange diamond,0.351,0,0
1 2a,13,2,370,right,1,orange diamond,0.503,1,0
1 2a,13,2,374,right,1,orange diamond,0.428,1,0
1 2a,13,2,387,right,1,orange diamond,0.391,1,0
1 2a,13,2,589,left,1,orange diamond,0.364,0,0
1 2a,13,2,594,left,1,orange diamond,0.416,0,0
1 2a,13,2,33,left,4,orange diamond,0.458,0,0
1 2a,13,2,203,left,4,orange diamond,0.369,0,0
1 2a,13,2,525,right,4,orange diamond,0.482,1,0
1 2a,13,2,327,right,4,orange diamond,0.415,1,0
1 2a,13,2,254,left,4,orange diamond,0.433,0,0
1 2a,13,2,175,left,4,orange diamond,0.502,0,0
1 2a,13,2,75,right,9,orange diamond,0.49,1,0
1 2a,13,2,295,left,9,orange diamond,0.462,0,0
1 2a,13,2,297,right,9,orange diamond,0.535,1,0
1 2a,13,2,62,left,9,orange diamond,0.48,0,0
1 2a,13,2,25,right,9,orange diamond,0.413,1,0
1 2a,13,2,69,left,9,orange diamond,0.466,0,0
1 2a,13,2,95,right,19,orange diamond,0.412,1,0
1 2a,13,2,311,left,19,orange diamond,0.424,0,0
1 2a,13,2,527,left,19,orange diamond,0.493,0,0
1 2a,13,2,350,right,19,orange diamond,0.597,1,0
1 2a,13,2,121,right,19,orange diamond,0.464,1,0
1 2a,13,2,303,right,19,orange diamond,0.414,1,0
1 2a,13,2,192,left,31,orange diamond,0.523,0,0
1 2a,13,2,90,left,31,orange diamond,0.372,0,0
1 2a,13,2,365,right,31,orange diamond,0.709,1,0
1 2a,13,2,73,left,31,orange diamond,0.548,0,0
1 2a,13,2,449,left,31,orange diamond,0.52,0,0
1 2a,13,2,536,left,31,orange diamond,0.468,0,0
1 2a,13,2,3,left,0,blue circle,0.463,0,0
1 2a,13,2,231,right,0,blue circle,0.443,1,0
1 2a,13,2,313,left,0,blue circle,0.492,0,0
1 2a,13,2,546,left,0,blue circle,0.366,0,0
1 2a,13,2,299,left,0,blue circle,0.427,0,0
1 2a,13,2,315,right,0,blue circle,0.452,1,0
1 2a,13,2,23,left,1,blue circle,0.531,0,0
1 2a,13,2,132,left,1,blue circle,0.401,0,0
1 2a,13,2,478,left,1,blue circle,0.434,0,0
1 2a,13,2,246,right,1,blue circle,0.419,1,0
1 2a,13,2,634,right,1,blue circle,0.464,1,0
1 2a,13,2,6,right,1,blue circle,0.456,1,0
1 2a,13,2,27,left,4,blue circle,0.616,0,0
1 2a,13,2,253,right,4,blue circle,0.65,1,0
1 2a,13,2,606,left,4,blue circle,0.388,0,0
1 2a,13,2,142,left,4,blue circle,0.56,0,0
1 2a,13,2,464,right,4,blue circle,0.413,1,0
1 2a,13,2,394,right,4,blue circle,0.562,1,0
1 2a,13,2,437,right,9,blue circle,0.617,1,0
1 2a,13,2,510,right,9,blue circle,0.493,1,0
1 2a,13,2,324,right,9,blue circle,0.681,1,0
1 2a,13,2,559,left,9,blue circle,0.649,0,0
1 2a,13,2,46,right,9,blue circle,0.488,1,0
1 2a,13,2,399,left,9,blue circle,0.477,0,0
1 2a,13,2,396,left,19,blue circle,0.604,0,0
1 2a,13,2,201,left,19,blue circle,0.508,0,0
1 2a,13,2,53,left,19,blue circle,0.554,0,0
1 2a,13,2,338,right,19,blue circle,0.633,1,0
1 2a,13,2,376,right,19,blue circle,0.417,1,0
1 2a,13,2,38,left,19,blue circle,0.585,0,0
1 2a,13,2,563,right,31,blue circle,0.77,1,0
1 2a,13,2,108,right,31,blue circle,0.642,1,0
1 2a,13,2,76,left,31,blue circle,0.564,0,0
1 2a,13,2,199,right,31,blue circle,0.479,1,0
1 2a,13,2,438,right,31,blue circle,0.502,1,0
1 2a,13,2,377,left,31,blue circle,0.645,0,0
1 2a,13,2,287,left,0,yellow triangle,0.499,0,0
1 2a,13,2,190,right,0,yellow triangle,0.453,1,0
1 2a,13,2,302,right,0,yellow triangle,0.398,1,0
1 2a,13,2,125,right,0,yellow triangle,0.357,1,0
1 2a,13,2,552,left,0,yellow triangle,0.403,0,0
1 2a,13,2,202,left,0,yellow triangle,0.402,0,0
1 2a,13,2,181,right,1,yellow triangle,0.429,1,0
1 2a,13,2,2,right,1,yellow triangle,0.598,1,0
1 2a,13,2,272,left,1,yellow triangle,0.577,0,0
1 2a,13,2,407,left,1,yellow triangle,0.503,0,0
1 2a,13,2,364,left,1,yellow triangle,0.493,0,0
1 2a,13,2,117,right,1,yellow triangle,0.442,1,0
1 2a,13,2,296,left,4,yellow triangle,0.544,0,0
1 2a,13,2,619,right,4,yellow triangle,0.471,1,0
1 2a,13,2,31,right,4,yellow triangle,0.538,1,0
1 2a,13,2,603,right,4,yellow triangle,0.403,1,0
1 2a,13,2,183,left,4,yellow triangle,0.77,0,0
1 2a,13,2,63,left,4,yellow triangle,0.548,0,0
1 2a,13,2,247,right,9,yellow triangle,0.466,1,0
1 2a,13,2,430,right,9,yellow triangle,0.421,1,0
1 2a,13,2,610,right,9,yellow triangle,0.548,1,0
1 2a,13,2,54,left,9,yellow triangle,0.466,0,0
1 2a,13,2,429,left,9,yellow triangle,0.449,0,0
1 2a,13,2,300,left,9,yellow triangle,0.566,0,0
1 2a,13,2,207,right,19,yellow triangle,0.529,1,0
1 2a,13,2,128,left,19,yellow triangle,0.553,0,0
1 2a,13,2,294,right,19,yellow triangle,0.494,1,0
1 2a,13,2,543,right,19,yellow triangle,0.504,1,0
1 2a,13,2,615,right,19,yellow triangle,0.447,1,0
1 2a,13,2,228,right,19,yellow triangle,0.456,1,0
1 2a,13,2,553,right,31,yellow triangle,0.697,1,0
1 2a,13,2,52,right,31,yellow triangle,0.589,1,0
1 2a,13,2,586,left,31,yellow triangle,0.561,0,0
1 2a,13,2,408,left,31,yellow triangle,0.693,0,0
1 2a,13,2,15,right,31,yellow triangle,0.565,1,0
1 2a,13,2,65,left,31,yellow triangle,0.414,0,0
1 2a,13,2,231,right,0,orange circle,0.443,1,0
1 2a,13,2,215,right,0,orange circle,0.349,1,0
1 2a,13,2,302,right,0,orange circle,0.398,1,0
1 2a,13,2,79,right,0,orange circle,0.564,1,0
1 2a,13,2,551,right,0,orange circle,0.636,1,0
1 2a,13,2,170,right,0,orange circle,0.381,1,0
1 2a,13,2,170,right,0,yellow diamond,0.381,1,0
1 2a,13,2,314,left,0,yellow diamond,0.42,0,0
1 2a,13,2,306,left,0,yellow diamond,0.48,0,0
1 2a,13,2,302,right,0,yellow diamond,0.398,1,0
1 2a,13,2,313,left,0,yellow diamond,0.492,0,0
1 2a,13,2,202,left,0,yellow diamond,0.402,0,0
1 2a,13,2,302,right,0,blue triangle,0.398,1,0
1 2a,13,2,170,right,0,blue triangle,0.381,1,0
1 2a,13,2,21,right,0,blue triangle,0.483,1,0
1 2a,13,2,180,right,0,blue triangle,0.339,1,0
1 2a,13,2,287,left,0,blue triangle,0.499,0,0
1 2a,13,2,632,left,0,blue triangle,0.377,0,0
1 2b,15,2,311,left,0,orange diamond,0.58,0,0
1 2b,15,2,538,right,0,orange diamond,0.64,1,0
1 2b,15,2,52,right,0,orange diamond,0.633,1,0
1 2b,15,2,189,left,0,orange diamond,0.565,0,0
1 2b,15,2,23,left,0,orange diamond,0.399,0,0
1 2b,15,2,4,right,0,orange diamond,0.393,1,0
1 2b,15,2,9,right,0,blue circle,0.413,1,0
1 2b,15,2,89,right,0,blue circle,0.556,1,0
1 2b,15,2,274,left,0,blue circle,1.369,0,0
1 2b,15,2,628,right,0,blue circle,0.631,1,0
1 2b,15,2,86,left,0,blue circle,0.482,0,0
1 2b,15,2,23,left,0,blue circle,0.399,0,0
1 2b,15,2,448,left,0,yellow triangle,0.384,0,0
1 2b,15,2,343,left,0,yellow triangle,0.532,0,0
1 2b,15,2,496,left,0,yellow triangle,0.537,0,0
1 2b,15,2,9,right,0,yellow triangle,0.413,1,0
1 2b,15,2,568,left,0,yellow triangle,0.414,0,0
1 2b,15,2,164,right,0,yellow triangle,0.383,1,0
1 2b,15,2,104,left,0,orange circle,0.372,0,0
1 2b,15,2,343,left,0,orange circle,0.532,0,0
1 2b,15,2,120,right,0,orange circle,0.58,1,0
1 2b,15,2,21,left,0,orange circle,0.531,0,0
1 2b,15,2,189,left,0,orange circle,0.565,0,0
1 2b,15,2,315,right,0,orange circle,0.46,1,0
1 2b,15,2,94,right,1,orange circle,0.53,1,0
1 2b,15,2,602,left,1,orange circle,0.387,0,0
1 2b,15,2,428,right,1,orange circle,0.542,1,0
1 2b,15,2,307,right,1,orange circle,0.388,1,0
1 2b,15,2,376,right,1,orange circle,0.433,1,0
1 2b,15,2,482,left,1,orange circle,0.383,0,0
1 2b,15,2,615,right,4,orange circle,0.527,1,0
1 2b,15,2,534,left,4,orange circle,0.561,0,0
1 2b,15,2,56,right,4,orange circle,0.561,1,0
1 2b,15,2,556,left,4,orange circle,0.403,0,0
1 2b,15,2,444,left,4,orange circle,0.455,0,0
1 2b,15,2,404,right,4,orange circle,0.444,1,0
1 2b,15,2,609,right,9,orange circle,0.49,1,0
1 2b,15,2,101,right,9,orange circle,1.016,1,0
1 2b,15,2,27,left,9,orange circle,0.55,0,0
1 2b,15,2,552,left,9,orange circle,0.468,0,0
1 2b,15,2,258,right,9,orange circle,0.483,1,0
1 2b,15,2,68,left,9,orange circle,0.528,0,0
1 2b,15,2,302,right,19,orange circle,0.793,1,0
1 2b,15,2,276,left,19,orange circle,0.521,0,0
1 2b,15,2,8,left,19,orange circle,0.692,0,0
1 2b,15,2,616,right,19,orange circle,0.451,1,0
1 2b,15,2,198,left,19,orange circle,0.577,0,0
1 2b,15,2,300,left,19,orange circle,0.595,0,0
1 2b,15,2,301,right,31,orange circle,0.592,1,0
1 2b,15,2,163,left,31,orange circle,0.434,0,0
1 2b,15,2,523,right,31,orange circle,0.39,1,0
1 2b,15,2,256,right,31,orange circle,0.563,1,0
1 2b,15,2,140,left,31,orange circle,0.95,0,0
1 2b,15,2,545,left,31,orange circle,0.528,0,0
1 2b,15,2,465,left,0,yellow diamond,0.548,0,0
1 2b,15,2,282,right,0,yellow diamond,0.371,1,0
1 2b,15,2,432,right,0,yellow diamond,0.501,1,0
1 2b,15,2,457,left,0,yellow diamond,0.436,0,0
1 2b,15,2,584,right,0,yellow diamond,0.42,1,0
1 2b,15,2,189,left,0,yellow diamond,0.565,0,0
1 2b,15,2,69,right,1,yellow diamond,0.44,1,0
1 2b,15,2,493,left,1,yellow diamond,0.409,0,0
1 2b,15,2,380,left,1,yellow diamond,0.741,0,0
1 2b,15,2,144,right,1,yellow diamond,0.489,1,0
1 2b,15,2,435,right,1,yellow diamond,0.427,1,0
1 2b,15,2,188,right,1,yellow diamond,0.536,1,0
1 2b,15,2,329,left,4,yellow diamond,0.551,0,0
1 2b,15,2,150,right,4,yellow diamond,0.641,1,0
1 2b,15,2,96,right,4,yellow diamond,0.636,1,0
1 2b,15,2,180,right,4,yellow diamond,0.551,1,0
1 2b,15,2,178,right,4,yellow diamond,0.388,1,0
1 2b,15,2,106,right,4,yellow diamond,0.703,1,0
1 2b,15,2,159,right,9,yellow diamond,0.5,1,0
1 2b,15,2,423,left,9,yellow diamond,0.411,0,0
1 2b,15,2,541,left,9,yellow diamond,0.473,0,0
1 2b,15,2,470,right,9,yellow diamond,0.491,1,0
1 2b,15,2,259,left,9,yellow diamond,0.555,0,0
1 2b,15,2,618,left,9,yellow diamond,0.408,0,0
1 2b,15,2,387,right,19,yellow diamond,0.631,1,0
1 2b,15,2,20,left,19,yellow diamond,0.522,0,0
1 2b,15,2,634,right,19,yellow diamond,0.578,1,0
1 2b,15,2,55,right,19,yellow diamond,0.811,1,0
1 2b,15,2,479,left,19,yellow diamond,0.499,0,0
1 2b,15,2,50,left,19,yellow diamond,0.5,0,0
1 2b,15,2,183,left,31,yellow diamond,0.457,0,0
1 2b,15,2,75,right,31,yellow diamond,0.403,1,0
1 2b,15,2,235,right,31,yellow diamond,0.441,1,0
1 2b,15,2,579,left,31,yellow diamond,0.464,0,0
1 2b,15,2,165,left,31,yellow diamond,0.633,0,0
1 2b,15,2,37,right,31,yellow diamond,0.671,1,0
1 2b,15,2,282,right,0,blue triangle,0.371,1,0
1 2b,15,2,278,left,0,blue triangle,0.616,0,0
1 2b,15,2,584,right,0,blue triangle,0.42,1,0
1 2b,15,2,311,left,0,blue triangle,0.58,0,0
1 2b,15,2,52,right,0,blue triangle,0.633,1,0
1 2b,15,2,4,right,0,blue triangle,0.393,1,0
1 2b,15,2,313,left,1,blue triangle,0.482,0,0
1 2b,15,2,43,left,1,blue triangle,0.869,0,0
1 2b,15,2,455,right,1,blue triangle,0.414,1,0
1 2b,15,2,244,left,1,blue triangle,0.543,0,0
1 2b,15,2,625,left,1,blue triangle,0.492,0,0
1 2b,15,2,396,right,1,blue triangle,0.739,1,0
1 2b,15,2,60,left,4,blue triangle,0.532,0,0
1 2b,15,2,145,left,4,blue triangle,0.741,0,0
1 2b,15,2,596,left,4,blue triangle,0.457,0,0
1 2b,15,2,312,left,4,blue triangle,0.783,0,0
1 2b,15,2,129,right,4,blue triangle,0.879,1,0
1 2b,15,2,469,left,4,blue triangle,0.443,0,0
1 2b,15,2,456,right,9,blue triangle,0.654,1,0
1 2b,15,2,557,right,9,blue triangle,0.529,1,0
1 2b,15,2,354,right,9,blue triangle,0.668,1,0
1 2b,15,2,279,left,9,blue triangle,0.649,0,0
1 2b,15,2,297,right,9,blue triangle,0.609,1,0
1 2b,15,2,214,right,9,blue triangle,0.804,1,0
1 2b,15,2,319,left,19,blue triangle,1.063,0,0
1 2b,15,2,505,left,19,blue triangle,0.435,0,0
1 2b,15,2,481,left,19,blue triangle,0.729,0,0
1 2b,15,2,309,left,19,blue triangle,0.734,0,0
1 2b,15,2,154,right,19,blue triangle,0.772,1,0
1 2b,15,2,161,left,19,blue triangle,0.959,0,0
1 2b,15,2,372,left,31,blue triangle,0.571,0,0
1 2b,15,2,406,right,31,blue triangle,0.931,1,0
1 2b,15,2,600,right,31,blue triangle,0.575,1,0
1 2b,15,2,10,right,31,blue triangle,0.927,1,0
1 2b,15,2,187,right,31,blue triangle,0.443,1,0
1 2b,15,2,199,left,31,blue triangle,0.612,0,0
1 2c,8,2,94,right,0,orange diamond,0.556,1,0
1 2c,8,2,593,left,0,orange diamond,0.568,0,0
1 2c,8,2,194,left,0,orange diamond,0.577,0,0
1 2c,8,2,510,left,0,orange diamond,0.568,0,0
1 2c,8,2,262,right,0,orange diamond,0.457,1,0
1 2c,8,2,473,right,0,orange diamond,0.418,1,0
1 2c,8,2,328,left,0,blue circle,0.796,0,0
1 2c,8,2,521,right,0,blue circle,0.953,1,0
1 2c,8,2,614,right,0,blue circle,0.565,1,0
1 2c,8,2,411,left,0,blue circle,0.474,0,0
1 2c,8,2,139,left,0,blue circle,0.473,0,0
1 2c,8,2,581,left,0,blue circle,0.392,0,0
1 2c,8,2,635,right,0,yellow triangle,0.382,1,0
1 2c,8,2,31,right,0,yellow triangle,0.535,1,0
1 2c,8,2,573,right,0,yellow triangle,0.557,1,0
1 2c,8,2,444,left,0,yellow triangle,0.403,0,0
1 2c,8,2,625,right,0,yellow triangle,0.577,1,0
1 2c,8,2,576,right,0,yellow triangle,0.492,1,0
1 2c,8,2,194,left,0,orange circle,0.577,0,0
1 2c,8,2,139,left,0,orange circle,0.473,0,0
1 2c,8,2,444,left,0,orange circle,0.403,0,0
1 2c,8,2,147,right,0,orange circle,0.452,1,0
1 2c,8,2,296,right,0,orange circle,0.446,1,0
1 2c,8,2,97,left,0,orange circle,0.385,0,0
1 2c,8,2,466,right,0,yellow diamond,0.418,1,0
1 2c,8,2,139,left,0,yellow diamond,0.473,0,0
1 2c,8,2,573,right,0,yellow diamond,0.557,1,0
1 2c,8,2,377,left,0,yellow diamond,0.585,0,0
1 2c,8,2,432,right,0,yellow diamond,0.66,1,0
1 2c,8,2,328,left,0,yellow diamond,0.796,0,0
1 2c,8,2,432,right,0,blue triangle,0.66,1,0
1 2c,8,2,510,left,0,blue triangle,0.568,0,0
1 2c,8,2,177,left,0,blue triangle,0.553,0,0
1 2c,8,2,483,right,0,blue triangle,1.152,1,0
1 2c,8,2,614,right,0,blue triangle,0.565,1,0
1 2c,8,2,573,right,0,blue triangle,0.557,1,0
1 2c,8,2,157,left,1,orange triangle,0.467,0,0
1 2c,8,2,364,right,1,orange triangle,0.365,1,0
1 2c,8,2,577,right,1,orange triangle,0.405,1,0
1 2c,8,2,602,left,1,orange triangle,0.479,0,0
1 2c,8,2,181,right,1,orange triangle,1.253,1,0
1 2c,8,2,419,right,1,orange triangle,0.417,1,0
1 2c,8,2,333,right,4,orange triangle,0.851,1,0
1 2c,8,2,461,right,4,orange triangle,0.856,1,0
1 2c,8,2,519,right,4,orange triangle,0.787,1,0
1 2c,8,2,48,right,4,orange triangle,0.489,1,0
1 2c,8,2,76,left,4,orange triangle,0.628,0,0
1 2c,8,2,106,right,4,orange triangle,0.509,1,0
1 2c,8,2,456,right,9,orange triangle,0.616,1,0
1 2c,8,2,241,right,9,orange triangle,0.531,1,0
1 2c,8,2,188,left,9,orange triangle,1.196,0,0
1 2c,8,2,448,left,9,orange triangle,0.596,0,0
1 2c,8,2,161,left,9,orange triangle,0.874,0,0
1 2c,8,2,299,right,9,orange triangle,0.372,1,0
1 2c,8,2,454,right,19,orange triangle,0.924,1,0
1 2c,8,2,534,left,19,orange triangle,0.691,0,0
1 2c,8,2,250,left,19,orange triangle,0.528,0,0
1 2c,8,2,130,left,19,orange triangle,0.678,0,0
1 2c,8,2,562,right,19,orange triangle,0.714,1,0
1 2c,8,2,230,right,19,orange triangle,0.361,1,0
1 2c,8,2,550,left,31,orange triangle,0.88,0,0
1 2c,8,2,409,right,31,orange triangle,0.579,1,0
1 2c,8,2,379,right,31,orange triangle,0.409,1,0
1 2c,8,2,158,left,31,orange triangle,0.593,0,0
1 2c,8,2,65,right,31,orange triangle,0.64,1,0
1 2c,8,2,108,right,31,orange triangle,0.822,1,0
1 2c,8,2,639,right,1,blue diamond,0.506,1,0
1 2c,8,2,226,right,1,blue diamond,0.589,1,0
1 2c,8,2,136,left,1,blue diamond,0.729,0,0
1 2c,8,2,629,left,1,blue diamond,0.52,0,0
1 2c,8,2,615,left,1,blue diamond,0.647,0,0
1 2c,8,2,575,right,1,blue diamond,0.544,1,0
1 2c,8,2,630,left,4,blue diamond,0.519,0,0
1 2c,8,2,479,left,4,blue diamond,0.507,0,0
1 2c,8,2,289,left,4,blue diamond,0.972,0,0
1 2c,8,2,468,right,4,blue diamond,0.502,1,0
1 2c,8,2,616,right,4,blue diamond,0.46,1,0
1 2c,8,2,324,left,4,blue diamond,0.878,0,0
1 2c,8,2,467,right,9,blue diamond,0.506,1,0
1 2c,8,2,63,left,9,blue diamond,0.547,0,0
1 2c,8,2,176,left,9,blue diamond,0.481,0,0
1 2c,8,2,78,left,9,blue diamond,0.522,0,0
1 2c,8,2,341,left,9,blue diamond,0.806,0,0
1 2c,8,2,294,right,9,blue diamond,1.054,1,0
1 2c,8,2,533,right,19,blue diamond,0.647,1,0
1 2c,8,2,488,left,19,blue diamond,0.731,0,0
1 2c,8,2,192,left,19,blue diamond,0.721,0,0
1 2c,8,2,44,right,19,blue diamond,0.697,1,0
1 2c,8,2,273,right,19,blue diamond,0.89,1,0
1 2c,8,2,502,right,19,blue diamond,0.738,1,0
1 2c,8,2,143,left,31,blue diamond,0.755,0,0
1 2c,8,2,102,right,31,blue diamond,0.649,1,0
1 2c,8,2,268,left,31,blue diamond,0.644,0,0
1 2c,8,2,410,right,31,blue diamond,0.819,1,0
1 2c,8,2,592,left,31,blue diamond,0.66,0,0
1 2c,8,2,469,left,31,blue diamond,0.638,0,0
1 2c,8,2,544,left,1,yellow circle,0.62,0,0
1 2c,8,2,238,right,1,yellow circle,0.549,1,0
1 2c,8,2,493,left,1,yellow circle,0.508,0,0
1 2c,8,2,306,left,1,yellow circle,0.434,0,0
1 2c,8,2,116,right,1,yellow circle,0.528,1,0
1 2c,8,2,413,left,1,yellow circle,0.648,0,0
1 2c,8,2,208,left,4,yellow circle,0.651,0,0
1 2c,8,2,579,right,4,yellow circle,0.557,1,0
1 2c,8,2,129,right,4,yellow circle,0.54,1,0
1 2c,8,2,255,left,4,yellow circle,0.547,0,0
1 2c,8,2,624,right,4,yellow circle,0.584,1,0
1 2c,8,2,125,left,4,yellow circle,0.482,0,0
1 2c,8,2,15,left,9,yellow circle,0.61,0,0
1 2c,8,2,524,left,9,yellow circle,0.416,0,0
1 2c,8,2,68,left,9,yellow circle,0.424,0,0
1 2c,8,2,151,right,9,yellow circle,1.333,1,0
1 2c,8,2,422,right,9,yellow circle,0.542,1,0
1 2c,8,2,590,right,9,yellow circle,0.513,1,0
1 2c,8,2,320,right,19,yellow circle,0.642,1,0
1 2c,8,2,292,left,19,yellow circle,0.453,0,0
1 2c,8,2,380,right,19,yellow circle,0.555,1,0
1 2c,8,2,105,right,19,yellow circle,0.493,1,0
1 2c,8,2,253,left,19,yellow circle,1.01,0,0
1 2c,8,2,523,left,19,yellow circle,0.491,0,0
1 2c,8,2,30,right,31,yellow circle,0.809,1,0
1 2c,8,2,42,left,31,yellow circle,0.826,0,0
1 2c,8,2,486,right,31,yellow circle,0.592,1,0
1 2c,8,2,633,left,31,yellow circle,0.549,0,0
1 2c,8,2,400,left,31,yellow circle,0.597,0,0
1 2c,8,2,59,right,31,yellow circle,0.546,1,0
1 3a,12,3,111,left,0,orange,0.46,0,0
1 3a,12,3,605,right,0,orange,0.417,1,0
1 3a,12,3,637,left,0,orange,0.512,0,0
1 3a,12,3,616,right,0,orange,0.416,1,0
1 3a,12,3,289,right,0,orange,0.397,1,0
1 3a,12,3,250,left,0,orange,0.518,0,0
1 3a,12,3,576,right,1,orange,0.41,1,0
1 3a,12,3,443,right,1,orange,0.435,1,0
1 3a,12,3,128,left,1,orange,0.428,0,0
1 3a,12,3,440,left,1,orange,0.4,0,0
1 3a,12,3,379,right,1,orange,0.404,1,0
1 3a,12,3,480,left,1,orange,1.064,0,0
1 3a,12,3,220,right,4,orange,0.45,1,0
1 3a,12,3,584,left,4,orange,0.59,0,0
1 3a,12,3,330,right,4,orange,0.57,1,0
1 3a,12,3,354,right,4,orange,0.516,1,0
1 3a,12,3,626,left,4,orange,0.488,0,0
1 3a,12,3,332,left,4,orange,0.378,0,0
1 3a,12,3,137,left,9,orange,0.762,0,0
1 3a,12,3,225,left,9,orange,0.574,0,0
1 3a,12,3,233,left,9,orange,0.562,0,0
1 3a,12,3,380,left,9,orange,0.767,0,0
1 3a,12,3,244,right,9,orange,0.525,1,0
1 3a,12,3,7,left,9,orange,0.7,0,0
1 3a,12,3,533,right,19,orange,0.536,1,0
1 3a,12,3,11,left,19,orange,0.489,0,0
1 3a,12,3,456,right,19,orange,0.655,1,0
1 3a,12,3,481,left,19,orange,0.91,0,0
1 3a,12,3,57,left,19,orange,0.557,0,0
1 3a,12,3,476,right,19,orange,0.938,1,0
1 3a,12,3,400,left,31,orange,0.507,0,0
1 3a,12,3,168,left,31,orange,0.575,0,0
1 3a,12,3,87,left,31,orange,0.595,0,0
1 3a,12,3,407,left,31,orange,0.551,0,0
1 3a,12,3,349,right,31,orange,0.405,1,0
1 3a,12,3,105,left,31,orange,0.575,0,0
1 3a,12,3,472,right,0,blue,0.602,1,0
1 3a,12,3,205,right,0,blue,0.35,1,0
1 3a,12,3,385,left,0,blue,0.649,0,0
1 3a,12,3,616,right,0,blue,0.416,1,0
1 3a,12,3,9,left,0,blue,0.501,0,0
1 3a,12,3,580,left,0,blue,0.444,0,0
1 3a,12,3,368,right,1,blue,0.473,1,0
1 3a,12,3,411,left,1,blue,0.427,0,0
1 3a,12,3,585,right,1,blue,0.571,1,0
1 3a,12,3,281,left,1,blue,0.671,0,0
1 3a,12,3,235,right,1,blue,0.334,1,0
1 3a,12,3,366,right,1,blue,0.558,1,0
1 3a,12,3,362,left,4,blue,0.434,0,0
1 3a,12,3,353,left,4,blue,0.768,0,0
1 3a,12,3,190,right,4,blue,0.417,1,0
1 3a,12,3,49,right,4,blue,0.495,1,0
1 3a,12,3,446,left,4,blue,0.672,0,0
1 3a,12,3,426,left,4,blue,0.574,0,0
1 3a,12,3,340,left,9,blue,0.466,0,0
1 3a,12,3,33,left,9,blue,0.386,0,0
1 3a,12,3,559,left,9,blue,0.492,0,0
1 3a,12,3,32,left,9,blue,0.626,0,0
1 3a,12,3,106,left,9,blue,0.715,0,0
1 3a,12,3,312,left,9,blue,0.492,0,0
1 3a,12,3,451,right,19,blue,0.555,1,0
1 3a,12,3,203,left,19,blue,0.844,0,0
1 3a,12,3,114,left,19,blue,0.451,0,0
1 3a,12,3,294,right,19,blue,0.491,1,0
1 3a,12,3,259,left,19,blue,0.505,0,0
1 3a,12,3,430,left,19,blue,0.917,0,0
1 3a,12,3,625,right,31,blue,0.473,1,0
1 3a,12,3,147,right,31,blue,0.549,1,0
1 3a,12,3,529,right,31,blue,0.447,1,0
1 3a,12,3,466,right,31,blue,0.515,1,0
1 3a,12,3,154,left,31,blue,0.565,0,0
1 3a,12,3,258,right,31,blue,0.674,1,0
1 3a,12,3,215,right,0,yellow,0.487,1,0
1 3a,12,3,91,right,0,yellow,0.438,1,0
1 3a,12,3,9,left,0,yellow,0.501,0,0
1 3a,12,3,306,right,0,yellow,0.398,1,0
1 3a,12,3,605,right,0,yellow,0.417,1,0
1 3a,12,3,385,left,0,yellow,0.649,0,0
1 3a,12,3,474,right,1,yellow,0.718,1,0
1 3a,12,3,29,right,1,yellow,0.407,1,0
1 3a,12,3,538,left,1,yellow,0.52,0,0
1 3a,12,3,497,right,1,yellow,0.522,1,0
1 3a,12,3,395,right,1,yellow,0.458,1,0
1 3a,12,3,74,left,1,yellow,0.577,0,0
1 3a,12,3,343,right,4,yellow,0.391,1,0
1 3a,12,3,599,left,4,yellow,0.494,0,0
1 3a,12,3,391,right,4,yellow,0.451,1,0
1 3a,12,3,130,left,4,yellow,0.485,0,0
1 3a,12,3,67,left,4,yellow,0.532,0,0
1 3a,12,3,247,left,4,yellow,0.577,0,0
1 3a,12,3,398,left,9,yellow,0.62,0,0
1 3a,12,3,528,right,9,yellow,0.554,1,0
1 3a,12,3,135,right,9,yellow,0.455,1,0
1 3a,12,3,246,right,9,yellow,0.699,1,0
1 3a,12,3,339,right,9,yellow,0.446,1,0
1 3a,12,3,560,right,9,yellow,0.439,1,0
1 3a,12,3,252,left,19,yellow,0.543,0,0
1 3a,12,3,210,left,19,yellow,0.742,0,0
1 3a,12,3,1,right,19,yellow,0.655,1,0
1 3a,12,3,405,left,19,yellow,0.517,0,0
1 3a,12,3,549,right,19,yellow,0.753,1,0
1 3a,12,3,371,right,19,yellow,0.468,1,0
1 3a,12,3,184,left,31,yellow,0.536,0,0
1 3a,12,3,65,left,31,yellow,0.758,0,0
1 3a,12,3,277,right,31,yellow,0.773,1,0
1 3a,12,3,319,right,31,yellow,0.519,1,0
1 3a,12,3,348,right,31,yellow,0.47,1,0
1 3a,12,3,512,left,31,yellow,0.711,0,0
1 3a,12,3,205,right,0,diamond,0.35,1,0
1 3a,12,3,24,right,0,diamond,0.542,1,0
1 3a,12,3,471,right,0,diamond,0.518,1,0
1 3a,12,3,91,right,0,diamond,0.438,1,0
1 3a,12,3,336,left,0,diamond,0.381,0,0
1 3a,12,3,141,left,0,diamond,0.677,0,0
1 3a,12,3,542,right,0,circle,0.491,1,0
1 3a,12,3,637,left,0,circle,0.512,0,0
1 3a,12,3,205,right,0,circle,0.35,1,0
1 3a,12,3,289,right,0,circle,0.397,1,0
1 3a,12,3,385,left,0,circle,0.649,0,0
1 3a,12,3,591,left,0,circle,0.401,0,0
1 3a,12,3,148,right,0,semicircle,0.602,1,0
1 3a,12,3,587,right,0,semicircle,0.457,1,0
1 3a,12,3,385,left,0,semicircle,0.649,0,0
1 3a,12,3,336,left,0,semicircle,0.381,0,0
1 3a,12,3,558,left,0,semicircle,0.657,0,0
1 3a,12,3,31,left,0,semicircle,0.408,0,0
1 3b,11,3,220,left,0,orange,0.533,0,0
1 3b,11,3,338,left,0,orange,0.432,0,0
1 3b,11,3,440,right,0,orange,0.443,1,0
1 3b,11,3,612,left,0,orange,0.451,0,0
1 3b,11,3,562,left,0,orange,0.411,0,0
1 3b,11,3,73,left,0,orange,0.406,0,0
1 3b,11,3,377,right,0,blue,0.5,1,0
1 3b,11,3,10,left,0,blue,0.369,0,0
1 3b,11,3,227,left,0,blue,0.529,0,0
1 3b,11,3,612,left,0,blue,0.451,0,0
1 3b,11,3,528,left,0,blue,0.637,0,0
1 3b,11,3,492,right,0,blue,0.577,1,0
1 3b,11,3,495,right,0,yellow,0.564,1,0
1 3b,11,3,220,left,0,yellow,0.533,0,0
1 3b,11,3,43,right,0,yellow,0.393,1,0
1 3b,11,3,168,right,0,yellow,0.497,1,0
1 3b,11,3,154,left,0,yellow,0.534,0,0
1 3b,11,3,178,right,0,yellow,0.503,1,0
1 3b,11,3,528,left,0,diamond,0.637,0,0
1 3b,11,3,175,right,0,diamond,0.484,1,0
1 3b,11,3,495,right,0,diamond,0.564,1,0
1 3b,11,3,440,right,0,diamond,0.443,1,0
1 3b,11,3,434,right,0,diamond,0.444,1,0
1 3b,11,3,489,right,0,diamond,0.414,1,0
1 3b,11,3,413,left,1,diamond,0.499,0,0
1 3b,11,3,601,left,1,diamond,0.49,0,0
1 3b,11,3,385,left,1,diamond,0.451,0,0
1 3b,11,3,542,right,1,diamond,0.577,1,0
1 3b,11,3,186,left,1,diamond,0.533,0,0
1 3b,11,3,606,left,1,diamond,0.346,0,0
1 3b,11,3,520,left,4,diamond,0.517,0,0
1 3b,11,3,564,left,4,diamond,0.429,0,0
1 3b,11,3,176,left,4,diamond,0.401,0,0
1 3b,11,3,77,left,4,diamond,0.531,0,0
1 3b,11,3,308,right,4,diamond,0.417,1,0
1 3b,11,3,56,left,4,diamond,0.52,0,0
1 3b,11,3,149,right,9,diamond,0.465,1,0
1 3b,11,3,293,right,9,diamond,0.702,1,0
1 3b,11,3,608,left,9,diamond,0.471,0,0
1 3b,11,3,383,left,9,diamond,0.53,0,0
1 3b,11,3,431,right,9,diamond,0.476,1,0
1 3b,11,3,541,left,9,diamond,0.534,0,0
1 3b,11,3,591,right,19,diamond,0.842,1,0
1 3b,11,3,445,right,19,diamond,0.629,1,0
1 3b,11,3,166,left,19,diamond,0.53,0,0
1 3b,11,3,392,right,19,diamond,0.694,1,0
1 3b,11,3,514,right,19,diamond,0.541,1,0
1 3b,11,3,476,right,19,diamond,0.507,1,0
1 3b,11,3,278,left,31,diamond,0.496,0,0
1 3b,11,3,636,right,31,diamond,0.719,1,0
1 3b,11,3,26,right,31,diamond,0.601,1,0
1 3b,11,3,327,left,31,diamond,0.504,0,0
1 3b,11,3,365,right,31,diamond,0.509,1,0
1 3b,11,3,370,left,31,diamond,0.475,0,0
1 3b,11,3,134,right,0,circle,0.531,1,0
1 3b,11,3,328,left,0,circle,0.471,0,0
1 3b,11,3,92,right,0,circle,0.445,1,0
1 3b,11,3,457,right,0,circle,0.4,1,0
1 3b,11,3,93,left,0,circle,0.434,0,0
1 3b,11,3,43,right,0,circle,0.393,1,0
1 3b,11,3,422,left,1,circle,0.514,0,0
1 3b,11,3,23,left,1,circle,0.457,0,0
1 3b,11,3,215,right,1,circle,0.615,1,0
1 3b,11,3,193,left,1,circle,0.392,0,0
1 3b,11,3,364,left,1,circle,0.422,0,0
1 3b,11,3,205,left,1,circle,0.467,0,0
1 3b,11,3,298,left,4,circle,0.417,0,0
1 3b,11,3,95,left,4,circle,0.418,0,0
1 3b,11,3,625,left,4,circle,0.738,0,0
1 3b,11,3,127,right,4,circle,0.431,1,0
1 3b,11,3,155,right,4,circle,0.405,1,0
1 3b,11,3,297,left,4,circle,0.5,0,0
1 3b,11,3,437,right,9,circle,0.508,1,0
1 3b,11,3,545,left,9,circle,0.44,0,0
1 3b,11,3,361,right,9,circle,0.502,1,0
1 3b,11,3,185,left,9,circle,0.521,0,0
1 3b,11,3,319,left,9,circle,0.439,0,0
1 3b,11,3,279,left,9,circle,0.439,0,0
1 3b,11,3,39,right,19,circle,0.597,1,0
1 3b,11,3,221,right,19,circle,0.525,1,0
1 3b,11,3,48,left,19,circle,0.723,0,0
1 3b,11,3,256,right,19,circle,0.64,1,0
1 3b,11,3,458,right,19,circle,0.612,1,0
1 3b,11,3,577,right,19,circle,0.679,1,0
1 3b,11,3,420,right,31,circle,0.495,1,0
1 3b,11,3,268,right,31,circle,0.459,1,0
1 3b,11,3,354,right,31,circle,0.418,1,0
1 3b,11,3,425,left,31,circle,0.512,0,0
1 3b,11,3,3,left,31,circle,0.491,0,0
1 3b,11,3,254,left,31,circle,0.483,0,0
1 3b,11,3,338,left,0,semicircle,0.432,0,0
1 3b,11,3,178,right,0,semicircle,0.503,1,0
1 3b,11,3,73,left,0,semicircle,0.406,0,0
1 3b,11,3,582,right,0,semicircle,0.523,1,0
1 3b,11,3,334,left,0,semicircle,0.452,0,0
1 3b,11,3,168,right,0,semicircle,0.497,1,0
1 3b,11,3,341,left,1,semicircle,0.514,0,0
1 3b,11,3,329,left,1,semicircle,0.509,0,0
1 3b,11,3,275,right,1,semicircle,0.566,1,0
1 3b,11,3,64,right,1,semicircle,0.476,1,0
1 3b,11,3,475,left,1,semicircle,0.58,0,0
1 3b,11,3,50,left,1,semicircle,0.533,0,0
1 3b,11,3,249,right,4,semicircle,1.404,1,0
1 3b,11,3,303,left,4,semicircle,0.443,0,0
1 3b,11,3,596,right,4,semicircle,0.649,1,0
1 3b,11,3,262,left,4,semicircle,0.599,0,0
1 3b,11,3,487,left,4,semicircle,0.551,0,0
1 3b,11,3,616,left,4,semicircle,0.586,0,0
1 3b,11,3,28,left,9,semicircle,0.609,0,0
1 3b,11,3,521,left,9,semicircle,0.445,0,0
1 3b,11,3,20,left,9,semicircle,1.094,0,0
1 3b,11,3,87,left,9,semicircle,0.586,0,0
1 3b,11,3,371,right,9,semicircle,0.434,1,0
1 3b,11,3,435,right,9,semicircle,0.535,1,0
1 3b,11,3,34,right,19,semicircle,0.614,1,0
1 3b,11,3,477,right,19,semicircle,0.447,1,0
1 3b,11,3,484,left,19,semicircle,0.398,0,0
1 3b,11,3,551,left,19,semicircle,0.492,0,0
1 3b,11,3,391,right,19,semicircle,0.654,1,0
1 3b,11,3,99,left,19,semicircle,0.901,0,0
1 3b,11,3,466,right,31,semicircle,1.03,1,0
1 3b,11,3,599,left,31,semicircle,0.78,0,0
1 3b,11,3,309,left,31,semicircle,0.708,0,0
1 3b,11,3,131,left,31,semicircle,0.499,0,0
1 3b,11,3,210,left,31,semicircle,0.536,0,0
1 3b,11,3,292,left,31,semicircle,0.783,0,0
1 4a,12,4,67,left,0,orange diamond,0.515,0,0
1 4a,12,4,201,right,0,orange diamond,0.55,1,0
1 4a,12,4,200,left,0,orange diamond,0.438,0,0
1 4a,12,4,434,right,0,orange diamond,0.597,1,0
1 4a,12,4,368,left,0,orange diamond,0.594,0,0
1 4a,12,4,431,left,0,orange diamond,0.706,0,0
1 4a,12,4,236,right,1,orange diamond,0.73,1,0
1 4a,12,4,105,right,1,orange diamond,0.457,1,0
1 4a,12,4,7,left,1,orange diamond,0.466,0,0
1 4a,12,4,208,left,1,orange diamond,0.494,0,0
1 4a,12,4,340,right,1,orange diamond,0.445,1,0
1 4a,12,4,519,left,1,orange diamond,0.964,0,0
1 4a,12,4,34,left,4,orange diamond,0.529,0,0
1 4a,12,4,332,left,4,orange diamond,0.89,0,0
1 4a,12,4,308,right,4,orange diamond,0.504,1,0
1 4a,12,4,370,right,4,orange diamond,0.699,1,0
1 4a,12,4,330,left,4,orange diamond,0.671,0,0
1 4a,12,4,490,right,4,orange diamond,0.68,1,0
1 4a,12,4,452,right,9,orange diamond,0.575,1,0
1 4a,12,4,168,right,9,orange diamond,0.569,1,0
1 4a,12,4,155,left,9,orange diamond,0.513,0,0
1 4a,12,4,145,left,9,orange diamond,0.645,0,0
1 4a,12,4,138,left,9,orange diamond,0.556,0,0
1 4a,12,4,80,left,9,orange diamond,0.589,0,0
1 4a,12,4,595,left,19,orange diamond,0.642,0,0
1 4a,12,4,408,right,19,orange diamond,0.599,1,0
1 4a,12,4,165,left,19,orange diamond,0.465,0,0
1 4a,12,4,631,left,19,orange diamond,0.606,0,0
1 4a,12,4,38,left,19,orange diamond,0.507,0,0
1 4a,12,4,57,right,19,orange diamond,0.626,1,0
1 4a,12,4,72,right,31,orange diamond,0.826,1,0
1 4a,12,4,607,left,31,orange diamond,0.544,0,0
1 4a,12,4,323,right,31,orange diamond,0.783,1,0
1 4a,12,4,70,left,31,orange diamond,0.768,0,0
1 4a,12,4,398,right,31,orange diamond,0.763,1,0
1 4a,12,4,397,left,31,orange diamond,0.579,0,0
1 4a,12,4,125,left,0,blue circle,0.569,0,0
1 4a,12,4,481,right,0,blue circle,0.574,1,0
1 4a,12,4,249,right,0,blue circle,0.468,1,0
1 4a,12,4,371,right,0,blue circle,0.619,1,0
1 4a,12,4,626,right,0,blue circle,0.736,1,0
1 4a,12,4,239,right,0,blue circle,0.559,1,0
1 4a,12,4,433,left,1,blue circle,0.434,0,0
1 4a,12,4,590,right,1,blue circle,0.747,1,0
1 4a,12,4,354,right,1,blue circle,0.617,1,0
1 4a,12,4,135,left,1,blue circle,0.502,0,0
1 4a,12,4,511,left,1,blue circle,0.721,0,0
1 4a,12,4,32,left,1,blue circle,0.627,0,0
1 4a,12,4,379,left,4,blue circle,0.408,0,0
1 4a,12,4,55,left,4,blue circle,0.471,0,0
1 4a,12,4,237,right,4,blue circle,0.475,1,0
1 4a,12,4,489,right,4,blue circle,0.535,1,0
1 4a,12,4,569,right,4,blue circle,0.435,1,0
1 4a,12,4,386,left,4,blue circle,0.708,0,0
1 4a,12,4,19,left,9,blue circle,0.504,0,0
1 4a,12,4,486,right,9,blue circle,0.796,1,0
1 4a,12,4,94,left,9,blue circle,0.674,0,0
1 4a,12,4,338,right,9,blue circle,0.682,1,0
1 4a,12,4,235,right,9,blue circle,0.632,1,0
1 4a,12,4,518,right,9,blue circle,0.713,1,0
1 4a,12,4,463,right,19,blue circle,0.611,1,0
1 4a,12,4,17,right,19,blue circle,0.433,1,0
1 4a,12,4,188,left,19,blue circle,0.763,0,0
1 4a,12,4,167,right,19,blue circle,0.653,1,0
1 4a,12,4,140,right,19,blue circle,0.573,1,0
1 4a,12,4,632,left,19,blue circle,0.495,0,0
1 4a,12,4,307,left,31,blue circle,0.518,0,0
1 4a,12,4,5,right,31,blue circle,0.387,1,0
1 4a,12,4,203,right,31,blue circle,0.562,1,0
1 4a,12,4,364,right,31,blue circle,0.598,1,0
1 4a,12,4,559,right,31,blue circle,0.625,1,0
1 4a,12,4,447,left,31,blue circle,0.528,0,0
1 4a,12,4,617,left,0,orange circle,0.347,0,0
1 4a,12,4,249,right,0,orange circle,0.468,1,0
1 4a,12,4,368,left,0,orange circle,0.594,0,0
1 4a,12,4,377,right,0,orange circle,0.658,1,0
1 4a,12,4,229,right,0,orange circle,0.463,1,0
1 4a,12,4,371,right,0,orange circle,0.619,1,0
1 4a,12,4,460,right,0,yellow diamond,0.5,1,0
1 4a,12,4,251,right,0,yellow diamond,0.49,1,0
1 4a,12,4,431,left,0,yellow diamond,0.706,0,0
1 4a,12,4,116,left,0,yellow diamond,0.488,0,0
1 4a,12,4,249,right,0,yellow diamond,0.468,1,0
1 4a,12,4,377,right,0,yellow diamond,0.658,1,0
1 4a,12,4,82,left,0,blue diamond,0.415,0,0
1 4a,12,4,456,right,0,blue diamond,0.682,1,0
1 4a,12,4,578,left,0,blue diamond,0.446,0,0
1 4a,12,4,616,left,0,blue diamond,0.655,0,0
1 4a,12,4,434,right,0,blue diamond,0.597,1,0
1 4a,12,4,260,right,0,blue diamond,0.553,1,0
1 4a,12,4,2,left,0,yellow circle,0.42,0,0
1 4a,12,4,189,right,0,yellow circle,0.678,1,0
1 4a,12,4,578,left,0,yellow circle,0.446,0,0
1 4a,12,4,67,left,0,yellow circle,0.515,0,0
1 4a,12,4,560,right,0,yellow circle,0.353,1,0
1 4a,12,4,125,left,0,yellow circle,0.569,0,0
1 4a,12,4,13,left,1,yellow semicircle,0.383,0,0
1 4a,12,4,219,left,1,yellow semicircle,0.614,0,0
1 4a,12,4,129,right,1,yellow semicircle,0.465,1,0
1 4a,12,4,257,left,1,yellow semicircle,0.654,0,0
1 4a,12,4,547,right,1,yellow semicircle,0.528,1,0
1 4a,12,4,148,left,1,yellow semicircle,0.635,0,0
1 4a,12,4,381,right,4,yellow semicircle,0.5,1,0
1 4a,12,4,221,left,4,yellow semicircle,0.779,0,0
1 4a,12,4,273,right,4,yellow semicircle,0.775,1,0
1 4a,12,4,508,right,4,yellow semicircle,0.553,1,0
1 4a,12,4,83,right,4,yellow semicircle,0.403,1,0
1 4a,12,4,270,right,4,yellow semicircle,0.712,1,0
1 4a,12,4,531,right,9,yellow semicircle,0.577,1,0
1 4a,12,4,87,left,9,yellow semicircle,0.698,0,0
1 4a,12,4,448,right,9,yellow semicircle,0.556,1,0
1 4a,12,4,315,right,9,yellow semicircle,0.584,1,0
1 4a,12,4,365,right,9,yellow semicircle,0.681,1,0
1 4a,12,4,517,left,9,yellow semicircle,0.565,0,0
1 4a,12,4,150,right,19,yellow semicircle,1.051,1,0
1 4a,12,4,525,left,19,yellow semicircle,0.448,0,0
1 4a,12,4,15,right,19,yellow semicircle,0.648,1,0
1 4a,12,4,142,left,19,yellow semicircle,0.595,0,0
1 4a,12,4,190,right,19,yellow semicircle,0.493,1,0
1 4a,12,4,299,right,19,yellow semicircle,0.447,1,0
1 4a,12,4,172,left,31,yellow semicircle,0.574,0,0
1 4a,12,4,59,right,31,yellow semicircle,0.693,1,0
1 4a,12,4,360,right,31,yellow semicircle,0.926,1,0
1 4a,12,4,549,left,31,yellow semicircle,0.447,0,0
1 4a,12,4,492,right,31,yellow semicircle,0.587,1,0
1 4a,12,4,563,right,31,yellow semicircle,0.494,1,0
1 4b,15,4,90,left,0,orange diamond,0.387,0,0
1 4b,15,4,540,right,0,orange diamond,0.612,1,0
1 4b,15,4,275,left,0,orange diamond,0.435,0,0
1 4b,15,4,472,left,0,orange diamond,0.406,0,0
1 4b,15,4,522,right,0,orange diamond,0.506,1,0
1 4b,15,4,313,left,0,orange diamond,0.534,0,0
1 4b,15,4,286,right,0,blue circle,0.361,1,0
1 4b,15,4,94,left,0,blue circle,0.79,0,0
1 4b,15,4,85,left,0,blue circle,0.521,0,0
1 4b,15,4,472,left,0,blue circle,0.406,0,0
1 4b,15,4,505,right,0,blue circle,0.452,1,0
1 4b,15,4,287,right,0,blue circle,0.516,1,0
1 4b,15,4,552,right,0,orange circle,0.409,1,0
1 4b,15,4,132,right,0,orange circle,0.485,1,0
1 4b,15,4,509,right,0,orange circle,0.545,1,0
1 4b,15,4,52,right,0,orange circle,0.64,1,0
1 4b,15,4,623,left,0,orange circle,0.512,0,0
1 4b,15,4,25,left,0,orange circle,0.454,0,0
1 4b,15,4,455,left,1,orange circle,0.386,0,0
1 4b,15,4,570,right,1,orange circle,0.758,1,0
1 4b,15,4,519,right,1,orange circle,0.491,1,0
1 4b,15,4,219,left,1,orange circle,0.365,0,0
1 4b,15,4,613,right,1,orange circle,0.459,1,0
1 4b,15,4,296,right,1,orange circle,0.744,1,0
1 4b,15,4,376,left,4,orange circle,0.606,0,0
1 4b,15,4,124,right,4,orange circle,0.471,1,0
1 4b,15,4,3,left,4,orange circle,0.383,0,0
1 4b,15,4,222,left,4,orange circle,0.52,0,0
1 4b,15,4,323,right,4,orange circle,0.431,1,0
1 4b,15,4,452,left,4,orange circle,0.383,0,0
1 4b,15,4,257,right,9,orange circle,0.462,1,0
1 4b,15,4,115,right,9,orange circle,0.424,1,0
1 4b,15,4,111,right,9,orange circle,0.422,1,0
1 4b,15,4,290,left,9,orange circle,0.458,0,0
1 4b,15,4,238,left,9,orange circle,0.44,0,0
1 4b,15,4,523,left,9,orange circle,0.369,0,0
1 4b,15,4,379,left,19,orange circle,0.403,0,0
1 4b,15,4,597,left,19,orange circle,0.475,0,0
1 4b,15,4,224,left,19,orange circle,0.449,0,0
1 4b,15,4,157,right,19,orange circle,0.442,1,0
1 4b,15,4,511,left,19,orange circle,0.569,0,0
1 4b,15,4,278,left,19,orange circle,0.377,0,0
1 4b,15,4,41,left,31,orange circle,1.141,0,0
1 4b,15,4,629,left,31,orange circle,0.808,0,0
1 4b,15,4,121,left,31,orange circle,0.745,0,0
1 4b,15,4,141,left,31,orange circle,0.667,0,0
1 4b,15,4,237,right,31,orange circle,0.437,1,0
1 4b,15,4,138,right,31,orange circle,0.438,1,0
1 4b,15,4,472,left,0,yellow diamond,0.406,0,0
1 4b,15,4,250,right,0,yellow diamond,0.446,1,0
1 4b,15,4,552,right,0,yellow diamond,0.409,1,0
1 4b,15,4,85,left,0,yellow diamond,0.521,0,0
1 4b,15,4,441,right,0,yellow diamond,0.459,1,0
1 4b,15,4,90,left,0,yellow diamond,0.387,0,0
1 4b,15,4,402,right,1,yellow diamond,0.482,1,0
1 4b,15,4,200,left,1,yellow diamond,0.487,0,0
1 4b,15,4,341,right,1,yellow diamond,0.526,1,0
1 4b,15,4,167,left,1,yellow diamond,0.384,0,0
1 4b,15,4,449,right,1,yellow diamond,0.498,1,0
1 4b,15,4,89,left,1,yellow diamond,0.431,0,0
1 4b,15,4,585,right,4,yellow diamond,0.431,1,0
1 4b,15,4,426,left,4,yellow diamond,0.808,0,0
1 4b,15,4,340,right,4,yellow diamond,0.587,1,0
1 4b,15,4,362,left,4,yellow diamond,0.365,0,0
1 4b,15,4,496,right,4,yellow diamond,0.496,1,0
1 4b,15,4,105,right,4,yellow diamond,0.469,1,0
1 4b,15,4,71,right,9,yellow diamond,0.5,1,0
1 4b,15,4,586,left,9,yellow diamond,0.358,0,0
1 4b,15,4,373,right,9,yellow diamond,0.458,1,0
1 4b,15,4,81,left,9,yellow diamond,0.584,0,0
1 4b,15,4,19,right,9,yellow diamond,0.463,1,0
1 4b,15,4,479,left,9,yellow diamond,0.455,0,0
1 4b,15,4,62,right,19,yellow diamond,0.444,1,0
1 4b,15,4,619,right,19,yellow diamond,0.423,1,0
1 4b,15,4,358,left,19,yellow diamond,0.371,0,0
1 4b,15,4,146,left,19,yellow diamond,0.405,0,0
1 4b,15,4,315,right,19,yellow diamond,0.509,1,0
1 4b,15,4,386,right,19,yellow diamond,0.672,1,0
1 4b,15,4,27,left,31,yellow diamond,0.455,0,0
1 4b,15,4,136,right,31,yellow diamond,0.585,1,0
1 4b,15,4,119,right,31,yellow diamond,0.511,1,0
1 4b,15,4,197,right,31,yellow diamond,0.695,1,0
1 4b,15,4,98,right,31,yellow diamond,0.524,1,0
1 4b,15,4,158,right,31,yellow diamond,0.445,1,0
1 4b,15,4,394,left,0,blue diamond,0.366,0,0
1 4b,15,4,286,right,0,blue diamond,0.361,1,0
1 4b,15,4,216,right,0,blue diamond,0.389,1,0
1 4b,15,4,518,left,0,blue diamond,0.466,0,0
1 4b,15,4,245,left,0,blue diamond,0.531,0,0
1 4b,15,4,392,right,0,blue diamond,0.457,1,0
1 4b,15,4,509,right,0,yellow circle,0.545,1,0
1 4b,15,4,392,right,0,yellow circle,0.457,1,0
1 4b,15,4,275,left,0,yellow circle,0.435,0,0
1 4b,15,4,243,right,0,yellow circle,0.523,1,0
1 4b,15,4,211,left,0,yellow circle,0.371,0,0
1 4b,15,4,300,right,0,yellow circle,0.561,1,0
1 4b,15,4,507,left,1,blue semicircle,0.594,0,0
1 4b,15,4,235,right,1,blue semicircle,0.592,1,0
1 4b,15,4,467,right,1,blue semicircle,0.485,1,0
1 4b,15,4,342,left,1,blue semicircle,0.663,0,0
1 4b,15,4,230,left,1,blue semicircle,0.423,0,0
1 4b,15,4,328,left,1,blue semicircle,0.488,0,0
1 4b,15,4,202,left,4,blue semicircle,0.832,0,0
1 4b,15,4,234,right,4,blue semicircle,0.601,1,0
1 4b,15,4,528,right,4,blue semicircle,0.454,1,0
1 4b,15,4,106,right,4,blue semicircle,0.538,1,0
1 4b,15,4,125,left,4,blue semicircle,0.488,0,0
1 4b,15,4,572,left,4,blue semicircle,0.71,0,0
1 4b,15,4,575,right,9,blue semicircle,0.487,1,0
1 4b,15,4,176,left,9,blue semicircle,0.882,0,0
1 4b,15,4,173,left,9,blue semicircle,0.385,0,0
1 4b,15,4,209,left,9,blue semicircle,0.692,0,0
1 4b,15,4,459,left,9,blue semicircle,0.586,0,0
1 4b,15,4,628,right,9,blue semicircle,0.486,1,0
1 4b,15,4,632,left,19,blue semicircle,0.549,0,0
1 4b,15,4,189,right,19,blue semicircle,0.536,1,0
1 4b,15,4,239,left,19,blue semicircle,0.446,0,0
1 4b,15,4,558,left,19,blue semicircle,0.472,0,0
1 4b,15,4,145,left,19,blue semicircle,0.53,0,0
1 4b,15,4,221,right,19,blue semicircle,0.495,1,0
1 4b,15,4,551,left,31,blue semicircle,0.415,0,0
1 4b,15,4,295,left,31,blue semicircle,0.424,0,0
1 4b,15,4,495,right,31,blue semicircle,0.477,1,0
1 4b,15,4,187,left,31,blue semicircle,0.635,0,0
1 4b,15,4,545,left,31,blue semicircle,0.629,0,0
1 4b,15,4,307,right,31,blue semicircle,0.649,1,0
1 4c,12,4,151,right,0,orange diamond,0.379,1,0
1 4c,12,4,55,left,0,orange diamond,0.512,0,0
1 4c,12,4,424,right,0,orange diamond,0.396,1,0
1 4c,12,4,109,right,0,orange diamond,0.441,1,0
1 4c,12,4,439,left,0,orange diamond,0.512,0,0
1 4c,12,4,20,left,0,orange diamond,0.409,0,0
1 4c,12,4,356,right,0,blue circle,0.41,1,0
1 4c,12,4,582,left,0,blue circle,0.42,0,0
1 4c,12,4,422,right,0,blue circle,0.367,1,0
1 4c,12,4,225,right,0,blue circle,0.424,1,0
1 4c,12,4,192,right,0,blue circle,0.47,1,0
1 4c,12,4,276,right,0,blue circle,0.458,1,0
1 4c,12,4,55,left,0,orange circle,0.512,0,0
1 4c,12,4,401,right,0,orange circle,0.631,1,0
1 4c,12,4,572,right,0,orange circle,0.489,1,0
1 4c,12,4,619,right,0,orange circle,0.823,1,0
1 4c,12,4,154,right,0,orange circle,0.377,1,0
1 4c,12,4,475,right,0,orange circle,0.432,1,0
1 4c,12,4,591,left,0,yellow diamond,0.33,0,0
1 4c,12,4,395,left,0,yellow diamond,0.371,0,0
1 4c,12,4,340,left,0,yellow diamond,0.331,0,0
1 4c,12,4,361,right,0,yellow diamond,0.595,1,0
1 4c,12,4,417,left,0,yellow diamond,0.362,0,0
1 4c,12,4,605,left,0,yellow diamond,0.403,0,0
1 4c,12,4,591,left,0,blue diamond,0.33,0,0
1 4c,12,4,278,left,0,blue diamond,0.347,0,0
1 4c,12,4,605,left,0,blue diamond,0.403,0,0
1 4c,12,4,182,left,0,blue diamond,0.447,0,0
1 4c,12,4,424,right,0,blue diamond,0.396,1,0
1 4c,12,4,395,left,0,blue diamond,0.371,0,0
1 4c,12,4,487,right,1,blue diamond,0.377,1,0
1 4c,12,4,389,left,1,blue diamond,0.373,0,0
1 4c,12,4,97,right,1,blue diamond,0.342,1,0
1 4c,12,4,175,left,1,blue diamond,0.486,0,0
1 4c,12,4,460,right,1,blue diamond,0.414,1,0
1 4c,12,4,565,left,1,blue diamond,0.544,0,0
1 4c,12,4,386,left,4,blue diamond,0.429,0,0
1 4c,12,4,57,right,4,blue diamond,0.413,1,0
1 4c,12,4,279,right,4,blue diamond,0.394,1,0
1 4c,12,4,520,left,4,blue diamond,0.47,0,0
1 4c,12,4,331,left,4,blue diamond,0.381,0,0
1 4c,12,4,498,right,4,blue diamond,0.492,1,0
1 4c,12,4,190,left,9,blue diamond,0.389,0,0
1 4c,12,4,447,left,9,blue diamond,0.385,0,0
1 4c,12,4,341,right,9,blue diamond,0.427,1,0
1 4c,12,4,87,right,9,blue diamond,0.398,1,0
1 4c,12,4,43,right,9,blue diamond,0.359,1,0
1 4c,12,4,34,right,9,blue diamond,0.445,1,0
1 4c,12,4,569,right,19,blue diamond,0.504,1,0
1 4c,12,4,214,left,19,blue diamond,0.458,0,0
1 4c,12,4,500,right,19,blue diamond,0.351,1,0
1 4c,12,4,11,right,19,blue diamond,0.569,1,0
1 4c,12,4,334,left,19,blue diamond,0.403,0,0
1 4c,12,4,585,left,19,blue diamond,0.427,0,0
1 4c,12,4,13,left,31,blue diamond,0.515,0,0
1 4c,12,4,387,left,31,blue diamond,0.406,0,0
1 4c,12,4,499,right,31,blue diamond,0.442,1,0
1 4c,12,4,246,right,31,blue diamond,0.481,1,0
1 4c,12,4,287,right,31,blue diamond,0.438,1,0
1 4c,12,4,228,left,31,blue diamond,0.618,0,0
1 4c,12,4,605,left,0,yellow circle,0.403,0,0
1 4c,12,4,591,left,0,yellow circle,0.33,0,0
1 4c,12,4,395,left,0,yellow circle,0.371,0,0
1 4c,12,4,422,right,0,yellow circle,0.367,1,0
1 4c,12,4,417,left,0,yellow circle,0.362,0,0
1 4c,12,4,619,right,0,yellow circle,0.823,1,0
1 4c,12,4,468,left,1,yellow circle,0.497,0,0
1 4c,12,4,69,right,1,yellow circle,0.506,1,0
1 4c,12,4,283,right,1,yellow circle,0.43,1,0
1 4c,12,4,519,left,1,yellow circle,0.41,0,0
1 4c,12,4,100,right,1,yellow circle,0.391,1,0
1 4c,12,4,392,right,1,yellow circle,0.444,1,0
1 4c,12,4,488,left,4,yellow circle,0.761,0,0
1 4c,12,4,508,left,4,yellow circle,0.334,0,0
1 4c,12,4,618,right,4,yellow circle,0.436,1,0
1 4c,12,4,579,left,4,yellow circle,0.447,0,0
1 4c,12,4,315,left,4,yellow circle,0.454,0,0
1 4c,12,4,112,left,4,yellow circle,0.43,0,0
1 4c,12,4,3,left,9,yellow circle,0.559,0,0
1 4c,12,4,163,left,9,yellow circle,0.367,0,0
1 4c,12,4,235,left,9,yellow circle,0.445,0,0
1 4c,12,4,554,right,9,yellow circle,0.403,1,0
1 4c,12,4,145,left,9,yellow circle,0.545,0,0
1 4c,12,4,429,right,9,yellow circle,0.41,1,0
1 4c,12,4,627,left,19,yellow circle,0.507,0,0
1 4c,12,4,237,right,19,yellow circle,0.519,1,0
1 4c,12,4,525,right,19,yellow circle,0.458,1,0
1 4c,12,4,431,left,19,yellow circle,0.404,0,0
1 4c,12,4,96,left,19,yellow circle,0.409,0,0
1 4c,12,4,470,right,19,yellow circle,0.417,1,0
1 4c,12,4,540,right,31,yellow circle,0.4,1,0
1 4c,12,4,209,left,31,yellow circle,0.451,0,0
1 4c,12,4,41,left,31,yellow circle,0.518,0,0
1 4c,12,4,226,right,31,yellow circle,0.544,1,0
1 4c,12,4,164,left,31,yellow circle,0.374,0,0
1 4c,12,4,80,right,31,yellow circle,0.381,1,0
1 4c,12,4,47,right,1,orange semicircle,0.501,1,0
1 4c,12,4,31,right,1,orange semicircle,0.534,1,0
1 4c,12,4,505,left,1,orange semicircle,0.36,0,0
1 4c,12,4,26,right,1,orange semicircle,0.452,1,0
1 4c,12,4,462,right,1,orange semicircle,0.514,1,0
1 4c,12,4,161,left,1,orange semicircle,0.418,0,0
1 4c,12,4,173,right,4,orange semicircle,0.815,1,0
1 4c,12,4,513,left,4,orange semicircle,0.475,0,0
1 4c,12,4,191,left,4,orange semicircle,0.43,0,0
1 4c,12,4,632,right,4,orange semicircle,0.48,1,0
1 4c,12,4,328,left,4,orange semicircle,0.463,0,0
1 4c,12,4,258,right,4,orange semicircle,0.472,1,0
1 4c,12,4,141,right,9,orange semicircle,0.653,1,0
1 4c,12,4,471,right,9,orange semicircle,0.467,1,0
1 4c,12,4,148,left,9,orange semicircle,0.414,0,0
1 4c,12,4,531,right,9,orange semicircle,0.381,1,0
1 4c,12,4,405,right,9,orange semicircle,0.499,1,0
1 4c,12,4,282,right,9,orange semicircle,0.463,1,0
1 4c,12,4,364,left,19,orange semicircle,0.401,0,0
1 4c,12,4,521,right,19,orange semicircle,0.555,1,0
1 4c,12,4,383,left,19,orange semicircle,0.444,0,0
1 4c,12,4,583,right,19,orange semicircle,0.541,1,0
1 4c,12,4,51,left,19,orange semicircle,0.531,0,0
1 4c,12,4,44,right,19,orange semicircle,0.486,1,0
1 4c,12,4,211,left,31,orange semicircle,0.443,0,0
1 4c,12,4,248,left,31,orange semicircle,0.434,0,0
1 4c,12,4,456,right,31,orange semicircle,0.636,1,0
1 4c,12,4,296,right,31,orange semicircle,0.402,1,0
1 4c,12,4,615,left,31,orange semicircle,0.551,0,0
1 4c,12,4,281,left,31,orange semicircle,1.052,0,0
10 1a,1,1,86,right,0,orange,0.375,1,0
10 1a,1,1,255,right,0,orange,0.366,1,0
10 1a,1,1,55,left,0,orange,0.438,0,0
10 1a,1,1,284,right,0,orange,0.395,1,0
10 1a,1,1,530,left,0,orange,0.501,0,0
10 1a,1,1,516,left,0,orange,0.341,0,0
10 1a,1,1,414,left,1,orange,0.543,0,0
10 1a,1,1,250,left,1,orange,0.371,0,0
10 1a,1,1,317,right,1,orange,0.47,1,0
10 1a,1,1,93,left,1,orange,0.429,0,0
10 1a,1,1,49,right,1,orange,0.486,1,0
10 1a,1,1,239,left,1,orange,0.453,0,0
10 1a,1,1,382,right,4,orange,0.463,1,0
10 1a,1,1,339,left,4,orange,0.396,0,0
10 1a,1,1,314,left,4,orange,0.443,0,0
10 1a,1,1,120,right,4,orange,0.698,1,0
10 1a,1,1,313,left,4,orange,0.456,0,0
10 1a,1,1,23,left,4,orange,0.513,0,0
10 1a,1,1,192,left,9,orange,0.556,0,0
10 1a,1,1,189,right,9,orange,0.441,1,0
10 1a,1,1,204,right,9,orange,0.413,1,0
10 1a,1,1,539,left,9,orange,0.454,0,0
10 1a,1,1,395,left,9,orange,0.427,0,0
10 1a,1,1,107,right,9,orange,0.495,1,0
10 1a,1,1,139,right,19,orange,0.55,1,0
10 1a,1,1,129,right,19,orange,0.414,1,0
10 1a,1,1,103,right,19,orange,0.475,1,0
10 1a,1,1,358,left,19,orange,0.373,0,0
10 1a,1,1,640,left,19,orange,0.526,0,0
10 1a,1,1,528,left,19,orange,0.53,0,0
10 1a,1,1,564,left,31,orange,0.438,0,0
10 1a,1,1,581,left,31,orange,0.446,0,0
10 1a,1,1,123,right,31,orange,0.462,1,0
10 1a,1,1,454,right,31,orange,0.495,1,0
10 1a,1,1,473,left,31,orange,0.602,0,0
10 1a,1,1,205,right,31,orange,0.449,1,0
10 1a,1,1,346,left,0,blue,0.554,0,0
10 1a,1,1,415,right,0,blue,0.489,1,0
10 1a,1,1,393,left,0,blue,0.537,0,0
10 1a,1,1,464,right,0,blue,1.117,1,0
10 1a,1,1,91,left,0,blue,0.365,0,0
10 1a,1,1,504,right,0,blue,0.377,1,0
10 1a,1,1,235,left,1,blue,0.538,0,0
10 1a,1,1,404,left,1,blue,0.474,0,0
10 1a,1,1,143,right,1,blue,0.417,1,0
10 1a,1,1,519,left,1,blue,0.41,0,0
10 1a,1,1,521,left,1,blue,0.672,0,0
10 1a,1,1,375,right,1,blue,0.359,1,0
10 1a,1,1,142,right,4,blue,0.466,1,0
10 1a,1,1,354,left,4,blue,0.54,0,0
10 1a,1,1,223,left,4,blue,0.436,0,0
10 1a,1,1,237,left,4,blue,0.583,0,0
10 1a,1,1,538,right,4,blue,0.544,1,0
10 1a,1,1,614,left,4,blue,1.017,0,0
10 1a,1,1,533,left,9,blue,0.425,0,0
10 1a,1,1,419,left,9,blue,1.013,0,0
10 1a,1,1,41,right,9,blue,0.924,1,0
10 1a,1,1,546,left,9,blue,0.626,0,0
10 1a,1,1,221,left,9,blue,0.55,0,0
10 1a,1,1,482,left,9,blue,0.67,0,0
10 1a,1,1,421,left,19,blue,0.607,0,0
10 1a,1,1,227,right,19,blue,0.486,1,0
10 1a,1,1,322,left,19,blue,0.456,0,0
10 1a,1,1,193,right,19,blue,0.707,1,0
10 1a,1,1,244,left,19,blue,0.85,0,0
10 1a,1,1,162,right,19,blue,0.572,1,0
10 1a,1,1,577,right,31,blue,0.787,1,0
10 1a,1,1,485,right,31,blue,0.549,1,0
10 1a,1,1,453,left,31,blue,0.906,0,0
10 1a,1,1,269,left,31,blue,0.466,0,0
10 1a,1,1,524,left,31,blue,0.687,0,0
10 1a,1,1,344,right,31,blue,0.466,1,0
10 1a,1,1,249,right,0,yellow,0.363,1,0
10 1a,1,1,255,right,0,yellow,0.366,1,0
10 1a,1,1,21,right,0,yellow,0.426,1,0
10 1a,1,1,464,right,0,yellow,1.117,1,0
10 1a,1,1,336,left,0,yellow,0.408,0,0
10 1a,1,1,284,right,0,yellow,0.395,1,0
10 1a,1,1,273,right,1,yellow,0.409,1,0
10 1a,1,1,511,left,1,yellow,0.391,0,0
10 1a,1,1,280,right,1,yellow,0.417,1,0
10 1a,1,1,604,right,1,yellow,0.435,1,0
10 1a,1,1,15,right,1,yellow,0.424,1,0
10 1a,1,1,238,left,1,yellow,0.464,0,0
10 1a,1,1,213,left,4,yellow,0.55,0,0
10 1a,1,1,210,right,4,yellow,0.471,1,0
10 1a,1,1,607,left,4,yellow,0.433,0,0
10 1a,1,1,392,left,4,yellow,0.442,0,0
10 1a,1,1,353,right,4,yellow,0.42,1,0
10 1a,1,1,158,right,4,yellow,0.426,1,0
10 1a,1,1,450,left,9,yellow,0.635,0,0
10 1a,1,1,301,left,9,yellow,0.556,0,0
10 1a,1,1,242,right,9,yellow,0.554,1,0
10 1a,1,1,165,left,9,yellow,0.452,0,0
10 1a,1,1,214,right,9,yellow,0.463,1,0
10 1a,1,1,624,left,9,yellow,1.311,0,0
10 1a,1,1,42,right,19,yellow,0.459,1,0
10 1a,1,1,348,left,19,yellow,0.458,0,0
10 1a,1,1,98,left,19,yellow,0.445,0,0
10 1a,1,1,615,right,19,yellow,0.429,1,0
10 1a,1,1,549,right,19,yellow,0.504,1,0
10 1a,1,1,110,right,19,yellow,0.585,1,0
10 1a,1,1,611,left,31,yellow,0.414,0,0
10 1a,1,1,543,right,31,yellow,0.45,1,0
10 1a,1,1,166,right,31,yellow,0.574,1,0
10 1a,1,1,155,right,31,yellow,0.461,1,0
10 1a,1,1,635,right,31,yellow,0.502,1,0
10 1a,1,1,281,right,31,yellow,0.5,1,0
10 1a,1,1,55,left,0,diamond,0.438,0,0
10 1a,1,1,284,right,0,diamond,0.395,1,0
10 1a,1,1,610,right,0,diamond,0.41,1,0
10 1a,1,1,415,right,0,diamond,0.489,1,0
10 1a,1,1,346,left,0,diamond,0.554,0,0
10 1a,1,1,487,left,0,diamond,0.683,0,0
10 1a,1,1,415,right,0,circle,0.489,1,0
10 1a,1,1,455,left,0,circle,0.752,0,0
10 1a,1,1,504,right,0,circle,0.377,1,0
10 1a,1,1,630,right,0,circle,0.709,1,0
10 1a,1,1,610,right,0,circle,0.41,1,0
10 1a,1,1,336,left,0,circle,0.408,0,0
10 1a,1,1,312,left,0,triangle,0.42,0,0
10 1a,1,1,487,left,0,triangle,0.683,0,0
10 1a,1,1,86,right,0,triangle,0.375,1,0
10 1a,1,1,580,right,0,triangle,0.447,1,0
10 1a,1,1,21,right,0,triangle,0.426,1,0
10 1a,1,1,346,left,0,triangle,0.554,0,0
10 2b,10,2,503,right,0,orange diamond,0.554,1,0
10 2b,10,2,94,left,0,orange diamond,0.476,0,0
10 2b,10,2,8,right,0,orange diamond,0.468,1,0
10 2b,10,2,319,right,0,orange diamond,0.564,1,0
10 2b,10,2,427,left,0,orange diamond,0.447,0,0
10 2b,10,2,205,left,0,orange diamond,0.441,0,0
10 2b,10,2,283,right,0,blue circle,0.417,1,0
10 2b,10,2,205,left,0,blue circle,0.441,0,0
10 2b,10,2,511,left,0,blue circle,0.395,0,0
10 2b,10,2,112,left,0,blue circle,0.567,0,0
10 2b,10,2,612,right,0,blue circle,0.751,1,0
10 2b,10,2,640,left,0,blue circle,0.534,0,0
10 2b,10,2,487,right,0,yellow triangle,1.167,1,0
10 2b,10,2,56,right,0,yellow triangle,0.518,1,0
10 2b,10,2,70,right,0,yellow triangle,0.474,1,0
10 2b,10,2,58,left,0,yellow triangle,0.567,0,0
10 2b,10,2,283,right,0,yellow triangle,0.417,1,0
10 2b,10,2,225,right,0,yellow triangle,0.416,1,0
10 2b,10,2,385,right,0,orange circle,0.482,1,0
10 2b,10,2,20,right,0,orange circle,0.439,1,0
10 2b,10,2,25,right,0,orange circle,0.483,1,0
10 2b,10,2,205,left,0,orange circle,0.441,0,0
10 2b,10,2,70,right,0,orange circle,0.474,1,0
10 2b,10,2,94,left,0,orange circle,0.476,0,0
10 2b,10,2,514,left,1,orange circle,0.476,0,0
10 2b,10,2,199,left,1,orange circle,0.484,0,0
10 2b,10,2,326,left,1,orange circle,0.561,0,0
10 2b,10,2,113,right,1,orange circle,0.497,1,0
10 2b,10,2,40,right,1,orange circle,0.582,1,0
10 2b,10,2,582,right,1,orange circle,0.675,1,0
10 2b,10,2,548,right,4,orange circle,0.633,1,0
10 2b,10,2,523,left,4,orange circle,0.436,0,0
10 2b,10,2,1,left,4,orange circle,0.794,0,0
10 2b,10,2,360,right,4,orange circle,0.51,1,0
10 2b,10,2,173,right,4,orange circle,0.401,1,0
10 2b,10,2,479,right,4,orange circle,0.569,1,0
10 2b,10,2,250,right,9,orange circle,1.03,1,0
10 2b,10,2,369,left,9,orange circle,0.4,0,0
10 2b,10,2,599,left,9,orange circle,0.498,0,0
10 2b,10,2,432,left,9,orange circle,0.454,0,0
10 2b,10,2,121,right,9,orange circle,0.546,1,0
10 2b,10,2,585,left,9,orange circle,0.502,0,0
10 2b,10,2,314,right,19,orange circle,0.591,1,0
10 2b,10,2,178,left,19,orange circle,0.442,0,0
10 2b,10,2,233,left,19,orange circle,0.528,0,0
10 2b,10,2,638,right,19,orange circle,0.463,1,0
10 2b,10,2,403,right,19,orange circle,0.472,1,0
10 2b,10,2,243,right,19,orange circle,0.425,1,0
10 2b,10,2,474,left,31,orange circle,0.528,0,0
10 2b,10,2,303,right,31,orange circle,0.437,1,0
10 2b,10,2,505,right,31,orange circle,0.693,1,0
10 2b,10,2,562,right,31,orange circle,0.404,1,0
10 2b,10,2,353,left,31,orange circle,0.489,0,0
10 2b,10,2,124,right,31,orange circle,0.474,1,0
10 2b,10,2,283,right,0,yellow diamond,0.417,1,0
10 2b,10,2,8,right,0,yellow diamond,0.468,1,0
10 2b,10,2,427,left,0,yellow diamond,0.447,0,0
10 2b,10,2,70,right,0,yellow diamond,0.474,1,0
10 2b,10,2,385,right,0,yellow diamond,0.482,1,0
10 2b,10,2,511,left,0,yellow diamond,0.395,0,0
10 2b,10,2,357,left,1,yellow diamond,0.392,0,0
10 2b,10,2,137,left,1,yellow diamond,0.467,0,0
10 2b,10,2,543,left,1,yellow diamond,0.426,0,0
10 2b,10,2,145,right,1,yellow diamond,0.491,1,0
10 2b,10,2,170,left,1,yellow diamond,0.5,0,0
10 2b,10,2,153,left,1,yellow diamond,0.444,0,0
10 2b,10,2,278,right,4,yellow diamond,0.458,1,0
10 2b,10,2,593,right,4,yellow diamond,0.516,1,0
10 2b,10,2,77,left,4,yellow diamond,0.439,0,0
10 2b,10,2,453,left,4,yellow diamond,0.42,0,0
10 2b,10,2,456,right,4,yellow diamond,0.413,1,0
10 2b,10,2,304,left,4,yellow diamond,0.624,0,0
10 2b,10,2,2,left,9,yellow diamond,0.531,0,0
10 2b,10,2,172,left,9,yellow diamond,0.433,0,0
10 2b,10,2,87,left,9,yellow diamond,0.515,0,0
10 2b,10,2,36,left,9,yellow diamond,0.528,0,0
10 2b,10,2,221,right,9,yellow diamond,0.487,1,0
10 2b,10,2,447,left,9,yellow diamond,0.372,0,0
10 2b,10,2,376,right,19,yellow diamond,0.686,1,0
10 2b,10,2,293,right,19,yellow diamond,0.516,1,0
10 2b,10,2,388,left,19,yellow diamond,0.568,0,0
10 2b,10,2,492,right,19,yellow diamond,0.536,1,0
10 2b,10,2,299,left,19,yellow diamond,0.435,0,0
10 2b,10,2,160,left,19,yellow diamond,0.448,0,0
10 2b,10,2,615,right,31,yellow diamond,0.428,1,0
10 2b,10,2,568,left,31,yellow diamond,0.401,0,0
10 2b,10,2,538,left,31,yellow diamond,0.51,0,0
10 2b,10,2,553,right,31,yellow diamond,0.49,1,0
10 2b,10,2,613,left,31,yellow diamond,0.376,0,0
10 2b,10,2,78,right,31,yellow diamond,0.529,1,0
10 2b,10,2,94,left,0,blue triangle,0.476,0,0
10 2b,10,2,142,right,0,blue triangle,0.511,1,0
10 2b,10,2,70,right,0,blue triangle,0.474,1,0
10 2b,10,2,275,right,0,blue triangle,0.488,1,0
10 2b,10,2,396,left,0,blue triangle,0.484,0,0
10 2b,10,2,319,right,0,blue triangle,0.564,1,0
10 2b,10,2,261,right,1,blue triangle,0.406,1,0
10 2b,10,2,298,right,1,blue triangle,0.447,1,0
10 2b,10,2,375,right,1,blue triangle,0.53,1,0
10 2b,10,2,392,left,1,blue triangle,0.472,0,0
10 2b,10,2,394,right,1,blue triangle,0.624,1,0
10 2b,10,2,461,right,1,blue triangle,0.4,1,0
10 2b,10,2,435,right,4,blue triangle,0.503,1,0
10 2b,10,2,248,left,4,blue triangle,0.757,0,0
10 2b,10,2,313,right,4,blue triangle,0.455,1,0
10 2b,10,2,526,left,4,blue triangle,0.503,0,0
10 2b,10,2,496,left,4,blue triangle,0.611,0,0
10 2b,10,2,41,left,4,blue triangle,0.997,0,0
10 2b,10,2,586,right,9,blue triangle,0.484,1,0
10 2b,10,2,288,right,9,blue triangle,0.753,1,0
10 2b,10,2,559,left,9,blue triangle,0.599,0,0
10 2b,10,2,30,right,9,blue triangle,0.49,1,0
10 2b,10,2,155,right,9,blue triangle,0.615,1,0
10 2b,10,2,603,right,9,blue triangle,0.617,1,0
10 2b,10,2,381,right,19,blue triangle,0.824,1,0
10 2b,10,2,433,left,19,blue triangle,0.483,0,0
10 2b,10,2,418,right,19,blue triangle,0.749,1,0
10 2b,10,2,422,right,19,blue triangle,0.654,1,0
10 2b,10,2,469,left,19,blue triangle,0.679,0,0
10 2b,10,2,560,left,19,blue triangle,0.619,0,0
10 2b,10,2,143,left,31,blue triangle,0.676,0,0
10 2b,10,2,109,left,31,blue triangle,0.844,0,0
10 2b,10,2,405,right,31,blue triangle,0.848,1,0
10 2b,10,2,175,left,31,blue triangle,0.822,0,0
10 2b,10,2,531,left,31,blue triangle,0.473,0,0
10 2b,10,2,379,right,31,blue triangle,0.526,1,0
10 2c,9,2,245,right,0,orange diamond,0.393,1,0
10 2c,9,2,38,right,0,orange diamond,0.398,1,0
10 2c,9,2,164,left,0,orange diamond,0.475,0,0
10 2c,9,2,181,right,0,orange diamond,0.681,1,0
10 2c,9,2,495,right,0,orange diamond,0.425,1,0
10 2c,9,2,65,right,0,orange diamond,0.465,1,0
10 2c,9,2,139,right,0,blue circle,0.429,1,0
10 2c,9,2,65,right,0,blue circle,0.465,1,0
10 2c,9,2,45,right,0,blue circle,0.465,1,0
10 2c,9,2,193,right,0,blue circle,0.444,1,0
10 2c,9,2,25,left,0,blue circle,0.439,0,0
10 2c,9,2,399,left,0,blue circle,0.367,0,0
10 2c,9,2,268,right,0,yellow triangle,0.478,1,0
10 2c,9,2,7,left,0,yellow triangle,0.424,0,0
10 2c,9,2,65,right,0,yellow triangle,0.465,1,0
10 2c,9,2,122,right,0,yellow triangle,0.381,1,0
10 2c,9,2,376,left,0,yellow triangle,0.442,0,0
10 2c,9,2,193,right,0,yellow triangle,0.444,1,0
10 2c,9,2,164,left,0,orange circle,0.475,0,0
10 2c,9,2,65,right,0,orange circle,0.465,1,0
10 2c,9,2,45,right,0,orange circle,0.465,1,0
10 2c,9,2,368,left,0,orange circle,0.377,0,0
10 2c,9,2,75,right,0,orange circle,0.419,1,0
10 2c,9,2,399,left,0,orange circle,0.367,0,0
10 2c,9,2,70,left,0,yellow diamond,0.444,0,0
10 2c,9,2,75,right,0,yellow diamond,0.419,1,0
10 2c,9,2,108,left,0,yellow diamond,0.398,0,0
10 2c,9,2,339,left,0,yellow diamond,0.527,0,0
10 2c,9,2,25,left,0,yellow diamond,0.439,0,0
10 2c,9,2,327,left,0,yellow diamond,0.438,0,0
10 2c,9,2,108,left,0,blue triangle,0.398,0,0
10 2c,9,2,25,left,0,blue triangle,0.439,0,0
10 2c,9,2,601,left,0,blue triangle,1.604,0,0
10 2c,9,2,556,left,0,blue triangle,0.45,0,0
10 2c,9,2,79,left,0,blue triangle,0.473,0,0
10 2c,9,2,599,right,0,blue triangle,0.438,1,0
10 2c,9,2,205,right,1,orange triangle,0.656,1,0
10 2c,9,2,254,right,1,orange triangle,0.432,1,0
10 2c,9,2,626,right,1,orange triangle,0.612,1,0
10 2c,9,2,40,left,1,orange triangle,0.398,0,0
10 2c,9,2,450,left,1,orange triangle,0.539,0,0
10 2c,9,2,590,right,1,orange triangle,0.427,1,0
10 2c,9,2,328,right,4,orange triangle,0.514,1,0
10 2c,9,2,243,left,4,orange triangle,0.474,0,0
10 2c,9,2,500,left,4,orange triangle,0.511,0,0
10 2c,9,2,347,left,4,orange triangle,0.423,0,0
10 2c,9,2,411,left,4,orange triangle,0.575,0,0
10 2c,9,2,487,left,4,orange triangle,0.511,0,0
10 2c,9,2,290,left,9,orange triangle,0.561,0,0
10 2c,9,2,104,left,9,orange triangle,0.439,0,0
10 2c,9,2,72,left,9,orange triangle,0.492,0,0
10 2c,9,2,156,left,9,orange triangle,0.437,0,0
10 2c,9,2,98,right,9,orange triangle,0.402,1,0
10 2c,9,2,204,right,9,orange triangle,0.553,1,0
10 2c,9,2,438,right,19,orange triangle,0.543,1,0
10 2c,9,2,220,right,19,orange triangle,0.612,1,0
10 2c,9,2,337,left,19,orange triangle,0.454,0,0
10 2c,9,2,352,left,19,orange triangle,0.489,0,0
10 2c,9,2,412,left,19,orange triangle,0.586,0,0
10 2c,9,2,492,right,19,orange triangle,0.507,1,0
10 2c,9,2,241,right,31,orange triangle,0.516,1,0
10 2c,9,2,151,right,31,orange triangle,0.489,1,0
10 2c,9,2,278,left,31,orange triangle,0.459,0,0
10 2c,9,2,429,left,31,orange triangle,0.447,0,0
10 2c,9,2,637,right,31,orange triangle,0.543,1,0
10 2c,9,2,406,right,31,orange triangle,0.601,1,0
10 2c,9,2,491,right,1,blue diamond,0.465,1,0
10 2c,9,2,408,left,1,blue diamond,0.44,0,0
10 2c,9,2,610,left,1,blue diamond,0.513,0,0
10 2c,9,2,253,right,1,blue diamond,0.452,1,0
10 2c,9,2,384,right,1,blue diamond,0.468,1,0
10 2c,9,2,44,right,1,blue diamond,0.499,1,0
10 2c,9,2,478,left,4,blue diamond,0.961,0,0
10 2c,9,2,78,right,4,blue diamond,0.595,1,0
10 2c,9,2,409,left,4,blue diamond,0.597,0,0
10 2c,9,2,219,left,4,blue diamond,0.533,0,0
10 2c,9,2,298,left,4,blue diamond,0.548,0,0
10 2c,9,2,109,right,4,blue diamond,0.538,1,0
10 2c,9,2,50,left,9,blue diamond,0.537,0,0
10 2c,9,2,183,right,9,blue diamond,0.369,1,0
10 2c,9,2,466,right,9,blue diamond,0.528,1,0
10 2c,9,2,121,right,9,blue diamond,0.512,1,0
10 2c,9,2,284,right,9,blue diamond,0.622,1,0
10 2c,9,2,366,left,9,blue diamond,0.473,0,0
10 2c,9,2,26,right,19,blue diamond,0.508,1,0
10 2c,9,2,23,left,19,blue diamond,0.504,0,0
10 2c,9,2,202,right,19,blue diamond,0.597,1,0
10 2c,9,2,182,left,19,blue diamond,0.425,0,0
10 2c,9,2,303,right,19,blue diamond,0.623,1,0
10 2c,9,2,80,left,19,blue diamond,0.617,0,0
10 2c,9,2,482,right,31,blue diamond,0.514,1,0
10 2c,9,2,325,right,31,blue diamond,0.613,1,0
10 2c,9,2,87,left,31,blue diamond,0.816,0,0
10 2c,9,2,619,left,31,blue diamond,0.51,0,0
10 2c,9,2,308,left,31,blue diamond,0.493,0,0
10 2c,9,2,143,right,31,blue diamond,0.487,1,0
10 2c,9,2,174,left,1,yellow circle,0.522,0,0
10 2c,9,2,213,right,1,yellow circle,0.406,1,0
10 2c,9,2,324,left,1,yellow circle,0.33,0,0
10 2c,9,2,88,left,1,yellow circle,0.426,0,0
10 2c,9,2,283,left,1,yellow circle,0.355,0,0
10 2c,9,2,196,right,1,yellow circle,0.434,1,0
10 2c,9,2,553,left,4,yellow circle,0.439,0,0
10 2c,9,2,380,right,4,yellow circle,0.353,1,0
10 2c,9,2,6,left,4,yellow circle,0.423,0,0
10 2c,9,2,232,right,4,yellow circle,0.533,1,0
10 2c,9,2,66,right,4,yellow circle,0.441,1,0
10 2c,9,2,415,left,4,yellow circle,0.437,0,0
10 2c,9,2,179,right,9,yellow circle,0.466,1,0
10 2c,9,2,410,right,9,yellow circle,0.439,1,0
10 2c,9,2,207,left,9,yellow circle,0.429,0,0
10 2c,9,2,363,left,9,yellow circle,0.48,0,0
10 2c,9,2,549,left,9,yellow circle,0.436,0,0
10 2c,9,2,331,left,9,yellow circle,0.521,0,0
10 2c,9,2,281,left,19,yellow circle,0.46,0,0
10 2c,9,2,393,left,19,yellow circle,0.617,0,0
10 2c,9,2,457,right,19,yellow circle,0.548,1,0
10 2c,9,2,312,left,19,yellow circle,0.405,0,0
10 2c,9,2,315,left,19,yellow circle,0.433,0,0
10 2c,9,2,235,left,19,yellow circle,0.402,0,0
10 2c,9,2,365,right,31,yellow circle,0.444,1,0
10 2c,9,2,385,right,31,yellow circle,0.434,1,0
10 2c,9,2,124,left,31,yellow circle,0.351,0,0
10 2c,9,2,514,right,31,yellow circle,0.51,1,0
10 2c,9,2,221,right,31,yellow circle,0.415,1,0
10 2c,9,2,459,left,31,yellow circle,0.429,0,0
10 3b,10,3,325,right,0,orange,0.443,1,0
10 3b,10,3,366,right,0,orange,0.764,1,0
10 3b,10,3,342,right,0,orange,0.458,1,0
10 3b,10,3,389,left,0,orange,0.394,0,0
10 3b,10,3,186,left,0,orange,0.445,0,0
10 3b,10,3,600,left,0,orange,0.428,0,0
10 3b,10,3,130,left,0,blue,0.426,0,0
10 3b,10,3,625,left,0,blue,0.466,0,0
10 3b,10,3,241,left,0,blue,0.433,0,0
10 3b,10,3,484,left,0,blue,0.449,0,0
10 3b,10,3,377,left,0,blue,0.38,0,0
10 3b,10,3,398,left,0,blue,0.358,0,0
10 3b,10,3,89,left,0,yellow,0.501,0,0
10 3b,10,3,159,right,0,yellow,0.435,1,0
10 3b,10,3,220,right,0,yellow,0.534,1,0
10 3b,10,3,186,left,0,yellow,0.445,0,0
10 3b,10,3,515,right,0,yellow,0.428,1,0
10 3b,10,3,581,right,0,yellow,0.467,1,0
10 3b,10,3,515,right,0,diamond,0.428,1,0
10 3b,10,3,412,right,0,diamond,0.431,1,0
10 3b,10,3,589,left,0,diamond,0.355,0,0
10 3b,10,3,182,right,0,diamond,0.466,1,0
10 3b,10,3,160,right,0,diamond,0.442,1,0
10 3b,10,3,581,right,0,diamond,0.467,1,0
10 3b,10,3,444,right,1,diamond,0.399,1,0
10 3b,10,3,593,right,1,diamond,0.699,1,0
10 3b,10,3,436,left,1,diamond,0.581,0,0
10 3b,10,3,253,right,1,diamond,0.398,1,0
10 3b,10,3,157,left,1,diamond,0.4,0,0
10 3b,10,3,483,right,1,diamond,0.672,1,0
10 3b,10,3,211,right,4,diamond,0.499,1,0
10 3b,10,3,28,right,4,diamond,0.573,1,0
10 3b,10,3,640,right,4,diamond,0.48,1,0
10 3b,10,3,409,left,4,diamond,0.35,0,0
10 3b,10,3,385,left,4,diamond,0.401,0,0
10 3b,10,3,271,right,4,diamond,0.401,1,0
10 3b,10,3,215,left,9,diamond,0.47,0,0
10 3b,10,3,479,left,9,diamond,0.487,0,0
10 3b,10,3,580,right,9,diamond,0.488,1,0
10 3b,10,3,30,left,9,diamond,0.479,0,0
10 3b,10,3,3,right,9,diamond,0.614,1,0
10 3b,10,3,454,right,9,diamond,0.581,1,0
10 3b,10,3,608,left,19,diamond,0.911,0,0
10 3b,10,3,227,right,19,diamond,0.546,1,0
10 3b,10,3,620,left,19,diamond,0.44,0,0
10 3b,10,3,519,right,19,diamond,0.453,1,0
10 3b,10,3,309,right,19,diamond,0.527,1,0
10 3b,10,3,168,left,19,diamond,0.671,0,0
10 3b,10,3,341,left,31,diamond,0.687,0,0
10 3b,10,3,386,right,31,diamond,0.459,1,0
10 3b,10,3,363,left,31,diamond,0.427,0,0
10 3b,10,3,192,left,31,diamond,0.75,0,0
10 3b,10,3,172,right,31,diamond,0.593,1,0
10 3b,10,3,142,right,31,diamond,0.553,1,0
10 3b,10,3,293,left,0,circle,0.396,0,0
10 3b,10,3,408,left,0,circle,0.377,0,0
10 3b,10,3,342,right,0,circle,0.458,1,0
10 3b,10,3,64,left,0,circle,0.449,0,0
10 3b,10,3,377,left,0,circle,0.38,0,0
10 3b,10,3,412,right,0,circle,0.431,1,0
10 3b,10,3,242,right,1,circle,0.408,1,0
10 3b,10,3,504,left,1,circle,0.454,0,0
10 3b,10,3,158,right,1,circle,0.511,1,0
10 3b,10,3,63,left,1,circle,0.603,0,0
10 3b,10,3,639,left,1,circle,0.491,0,0
10 3b,10,3,27,right,1,circle,0.555,1,0
10 3b,10,3,76,left,4,circle,0.446,0,0
10 3b,10,3,34,left,4,circle,0.417,0,0
10 3b,10,3,433,left,4,circle,0.473,0,0
10 3b,10,3,81,left,4,circle,0.465,0,0
10 3b,10,3,402,left,4,circle,0.478,0,0
10 3b,10,3,516,right,4,circle,0.443,1,0
10 3b,10,3,119,right,9,circle,0.461,1,0
10 3b,10,3,384,left,9,circle,0.447,0,0
10 3b,10,3,60,right,9,circle,0.666,1,0
10 3b,10,3,62,right,9,circle,0.5,1,0
10 3b,10,3,237,left,9,circle,0.436,0,0
10 3b,10,3,478,right,9,circle,0.48,1,0
10 3b,10,3,33,right,19,circle,0.504,1,0
10 3b,10,3,2,left,19,circle,0.575,0,0
10 3b,10,3,473,left,19,circle,0.411,0,0
10 3b,10,3,303,left,19,circle,0.449,0,0
10 3b,10,3,522,right,19,circle,0.588,1,0
10 3b,10,3,470,left,19,circle,0.504,0,0
10 3b,10,3,434,right,31,circle,0.677,1,0
10 3b,10,3,426,left,31,circle,0.546,0,0
10 3b,10,3,601,left,31,circle,0.573,0,0
10 3b,10,3,502,right,31,circle,0.453,1,0
10 3b,10,3,118,right,31,circle,0.561,1,0
10 3b,10,3,229,right,31,circle,0.535,1,0
10 3b,10,3,130,left,0,semicircle,0.426,0,0
10 3b,10,3,342,right,0,semicircle,0.458,1,0
10 3b,10,3,186,left,0,semicircle,0.445,0,0
10 3b,10,3,8,right,0,semicircle,0.43,1,0
10 3b,10,3,160,right,0,semicircle,0.442,1,0
10 3b,10,3,512,right,0,semicircle,0.469,1,0
10 3b,10,3,128,right,1,semicircle,0.465,1,0
10 3b,10,3,552,right,1,semicircle,0.815,1,0
10 3b,10,3,359,right,1,semicircle,0.456,1,0
10 3b,10,3,506,right,1,semicircle,0.623,1,0
10 3b,10,3,297,left,1,semicircle,0.435,0,0
10 3b,10,3,448,left,1,semicircle,0.471,0,0
10 3b,10,3,35,left,4,semicircle,0.622,0,0
10 3b,10,3,53,right,4,semicircle,0.563,1,0
10 3b,10,3,607,left,4,semicircle,0.609,0,0
10 3b,10,3,619,right,4,semicircle,0.534,1,0
10 3b,10,3,178,left,4,semicircle,0.731,0,0
10 3b,10,3,420,left,4,semicircle,0.411,0,0
10 3b,10,3,181,left,9,semicircle,0.693,0,0
10 3b,10,3,240,left,9,semicircle,0.487,0,0
10 3b,10,3,20,right,9,semicircle,0.966,1,0
10 3b,10,3,544,right,9,semicircle,0.461,1,0
10 3b,10,3,460,right,9,semicircle,0.662,1,0
10 3b,10,3,162,right,9,semicircle,0.949,1,0
10 3b,10,3,489,right,19,semicircle,0.669,1,0
10 3b,10,3,139,left,19,semicircle,0.732,0,0
10 3b,10,3,261,right,19,semicircle,1.617,1,0
10 3b,10,3,570,left,19,semicircle,0.843,0,0
10 3b,10,3,101,left,19,semicircle,0.682,0,0
10 3b,10,3,628,right,19,semicircle,0.743,1,0
10 3b,10,3,317,right,31,semicircle,0.663,1,0
10 3b,10,3,70,left,31,semicircle,0.772,0,0
10 3b,10,3,379,right,31,semicircle,0.705,1,0
10 3b,10,3,100,left,31,semicircle,0.731,0,0
10 3b,10,3,187,right,31,semicircle,1.614,1,0
10 3b,10,3,406,right,31,semicircle,0.566,1,0
10 4a,14,4,139,right,0,orange diamond,0.357,1,0
10 4a,14,4,379,left,0,orange diamond,0.349,0,0
10 4a,14,4,202,left,0,orange diamond,0.676,0,0
10 4a,14,4,515,right,0,orange diamond,0.556,1,0
10 4a,14,4,455,right,0,orange diamond,0.531,1,0
10 4a,14,4,147,left,0,orange diamond,0.353,0,0
10 4a,14,4,239,left,1,orange diamond,0.366,0,0
10 4a,14,4,77,left,1,orange diamond,0.404,0,0
10 4a,14,4,624,right,1,orange diamond,0.461,1,0
10 4a,14,4,548,right,1,orange diamond,0.587,1,0
10 4a,14,4,283,left,1,orange diamond,0.48,0,0
10 4a,14,4,620,right,1,orange diamond,0.541,1,0
10 4a,14,4,338,left,4,orange diamond,0.54,0,0
10 4a,14,4,28,left,4,orange diamond,0.589,0,0
10 4a,14,4,601,right,4,orange diamond,0.562,1,0
10 4a,14,4,240,left,4,orange diamond,0.374,0,0
10 4a,14,4,511,left,4,orange diamond,0.511,0,0
10 4a,14,4,427,right,4,orange diamond,0.681,1,0
10 4a,14,4,340,right,9,orange diamond,0.492,1,0
10 4a,14,4,219,right,9,orange diamond,0.373,1,0
10 4a,14,4,106,left,9,orange diamond,0.615,0,0
10 4a,14,4,579,right,9,orange diamond,0.535,1,0
10 4a,14,4,486,left,9,orange diamond,0.51,0,0
10 4a,14,4,556,left,9,orange diamond,0.434,0,0
10 4a,14,4,227,right,19,orange diamond,0.506,1,0
10 4a,14,4,221,left,19,orange diamond,0.627,0,0
10 4a,14,4,394,right,19,orange diamond,0.573,1,0
10 4a,14,4,380,left,19,orange diamond,0.521,0,0
10 4a,14,4,157,left,19,orange diamond,0.793,0,0
10 4a,14,4,99,right,19,orange diamond,0.503,1,0
10 4a,14,4,406,right,31,orange diamond,0.538,1,0
10 4a,14,4,605,left,31,orange diamond,0.953,0,0
10 4a,14,4,327,left,31,orange diamond,0.463,0,0
10 4a,14,4,411,left,31,orange diamond,0.594,0,0
10 4a,14,4,229,left,31,orange diamond,0.607,0,0
10 4a,14,4,175,right,31,orange diamond,0.582,1,0
10 4a,14,4,317,left,0,blue circle,0.475,0,0
10 4a,14,4,470,right,0,blue circle,0.549,1,0
10 4a,14,4,553,right,0,blue circle,0.378,1,0
10 4a,14,4,333,right,0,blue circle,0.429,1,0
10 4a,14,4,297,left,0,blue circle,0.406,0,0
10 4a,14,4,455,right,0,blue circle,0.531,1,0
10 4a,14,4,545,left,1,blue circle,0.821,0,0
10 4a,14,4,517,left,1,blue circle,0.494,0,0
10 4a,14,4,191,left,1,blue circle,0.574,0,0
10 4a,14,4,12,left,1,blue circle,0.365,0,0
10 4a,14,4,535,right,1,blue circle,0.462,1,0
10 4a,14,4,550,left,1,blue circle,0.337,0,0
10 4a,14,4,285,right,4,blue circle,0.609,1,0
10 4a,14,4,183,right,4,blue circle,0.422,1,0
10 4a,14,4,355,right,4,blue circle,0.532,1,0
10 4a,14,4,253,right,4,blue circle,0.332,1,0
10 4a,14,4,393,right,4,blue circle,0.35,1,0
10 4a,14,4,128,right,4,blue circle,0.369,1,0
10 4a,14,4,367,right,9,blue circle,0.406,1,0
10 4a,14,4,172,right,9,blue circle,0.425,1,0
10 4a,14,4,372,right,9,blue circle,0.481,1,0
10 4a,14,4,321,right,9,blue circle,0.414,1,0
10 4a,14,4,295,left,9,blue circle,0.388,0,0
10 4a,14,4,189,right,9,blue circle,0.418,1,0
10 4a,14,4,121,right,19,blue circle,0.435,1,0
10 4a,14,4,375,left,19,blue circle,0.426,0,0
10 4a,14,4,84,left,19,blue circle,0.413,0,0
10 4a,14,4,498,right,19,blue circle,0.434,1,0
10 4a,14,4,563,right,19,blue circle,0.438,1,0
10 4a,14,4,508,left,19,blue circle,0.504,0,0
10 4a,14,4,312,right,31,blue circle,0.422,1,0
10 4a,14,4,96,left,31,blue circle,0.573,0,0
10 4a,14,4,453,right,31,blue circle,0.377,1,0
10 4a,14,4,583,right,31,blue circle,0.776,1,0
10 4a,14,4,414,right,31,blue circle,0.37,1,0
10 4a,14,4,623,left,31,blue circle,0.463,0,0
10 4a,14,4,553,right,0,orange circle,0.378,1,0
10 4a,14,4,236,right,0,orange circle,0.352,1,0
10 4a,14,4,379,left,0,orange circle,0.349,0,0
10 4a,14,4,370,left,0,orange circle,0.388,0,0
10 4a,14,4,470,right,0,orange circle,0.549,1,0
10 4a,14,4,417,left,0,orange circle,0.873,0,0
10 4a,14,4,632,left,0,yellow diamond,0.456,0,0
10 4a,14,4,515,right,0,yellow diamond,0.556,1,0
10 4a,14,4,317,left,0,yellow diamond,0.475,0,0
10 4a,14,4,417,left,0,yellow diamond,0.873,0,0
10 4a,14,4,202,left,0,yellow diamond,0.676,0,0
10 4a,14,4,180,right,0,yellow diamond,0.51,1,0
10 4a,14,4,444,left,0,blue diamond,0.665,0,0
10 4a,14,4,323,left,0,blue diamond,0.41,0,0
10 4a,14,4,147,left,0,blue diamond,0.353,0,0
10 4a,14,4,516,left,0,blue diamond,0.369,0,0
10 4a,14,4,568,left,0,blue diamond,0.462,0,0
10 4a,14,4,123,right,0,blue diamond,0.339,1,0
10 4a,14,4,310,left,0,yellow circle,0.395,0,0
10 4a,14,4,591,right,0,yellow circle,0.82,1,0
10 4a,14,4,126,right,0,yellow circle,0.354,1,0
10 4a,14,4,323,left,0,yellow circle,0.41,0,0
10 4a,14,4,385,right,0,yellow circle,0.671,1,0
10 4a,14,4,417,left,0,yellow circle,0.873,0,0
10 4a,14,4,465,left,1,yellow semicircle,0.443,0,0
10 4a,14,4,360,left,1,yellow semicircle,0.495,0,0
10 4a,14,4,526,left,1,yellow semicircle,0.48,0,0
10 4a,14,4,115,left,1,yellow semicircle,0.439,0,0
10 4a,14,4,40,right,1,yellow semicircle,0.46,1,0
10 4a,14,4,130,right,1,yellow semicircle,0.347,1,0
10 4a,14,4,474,left,4,yellow semicircle,0.41,0,0
10 4a,14,4,347,right,4,yellow semicircle,0.555,1,0
10 4a,14,4,482,right,4,yellow semicircle,0.593,1,0
10 4a,14,4,266,right,4,yellow semicircle,0.36,1,0
10 4a,14,4,621,right,4,yellow semicircle,0.431,1,0
10 4a,14,4,502,right,4,yellow semicircle,0.419,1,0
10 4a,14,4,309,left,9,yellow semicircle,0.511,0,0
10 4a,14,4,566,right,9,yellow semicircle,0.332,1,0
10 4a,14,4,396,left,9,yellow semicircle,0.387,0,0
10 4a,14,4,135,left,9,yellow semicircle,0.434,0,0
10 4a,14,4,287,right,9,yellow semicircle,0.383,1,0
10 4a,14,4,348,left,9,yellow semicircle,0.429,0,0
10 4a,14,4,256,right,19,yellow semicircle,0.367,1,0
10 4a,14,4,16,left,19,yellow semicircle,0.492,0,0
10 4a,14,4,452,left,19,yellow semicircle,0.446,0,0
10 4a,14,4,354,right,19,yellow semicircle,0.484,1,0
10 4a,14,4,306,left,19,yellow semicircle,0.417,0,0
10 4a,14,4,303,left,19,yellow semicircle,0.496,0,0
10 4a,14,4,599,left,31,yellow semicircle,0.499,0,0
10 4a,14,4,551,left,31,yellow semicircle,0.642,0,0
10 4a,14,4,290,left,31,yellow semicircle,0.472,0,0
10 4a,14,4,337,left,31,yellow semicircle,0.49,0,0
10 4a,14,4,589,left,31,yellow semicircle,0.461,0,0
10 4a,14,4,481,right,31,yellow semicircle,0.929,1,0
10 4b,2,4,40,right,0,orange diamond,0.411,1,0
10 4b,2,4,275,left,0,orange diamond,0.365,0,0
10 4b,2,4,484,right,0,orange diamond,0.503,1,0
10 4b,2,4,507,right,0,orange diamond,0.339,1,0
10 4b,2,4,32,left,0,orange diamond,0.349,0,0
10 4b,2,4,28,right,0,orange diamond,0.375,1,0
10 4b,2,4,349,left,0,blue circle,0.468,0,0
10 4b,2,4,228,left,0,blue circle,0.407,0,0
10 4b,2,4,143,right,0,blue circle,0.505,1,0
10 4b,2,4,462,right,0,blue circle,0.591,1,0
10 4b,2,4,347,right,0,blue circle,0.35,1,0
10 4b,2,4,581,left,0,blue circle,0.416,0,0
10 4b,2,4,639,right,0,orange circle,0.404,1,0
10 4b,2,4,103,left,0,orange circle,0.523,0,0
10 4b,2,4,275,left,0,orange circle,0.365,0,0
10 4b,2,4,144,right,0,orange circle,0.423,1,0
10 4b,2,4,318,right,0,orange circle,0.338,1,0
10 4b,2,4,507,right,0,orange circle,0.339,1,0
10 4b,2,4,2,right,1,orange circle,0.379,1,0
10 4b,2,4,624,left,1,orange circle,0.366,0,0
10 4b,2,4,412,left,1,orange circle,0.422,0,0
10 4b,2,4,426,right,1,orange circle,0.5,1,0
10 4b,2,4,606,left,1,orange circle,0.42,0,0
10 4b,2,4,308,right,1,orange circle,0.357,1,0
10 4b,2,4,279,left,4,orange circle,0.488,0,0
10 4b,2,4,235,right,4,orange circle,0.497,1,0
10 4b,2,4,422,left,4,orange circle,0.397,0,0
10 4b,2,4,278,right,4,orange circle,0.373,1,0
10 4b,2,4,116,left,4,orange circle,0.381,0,0
10 4b,2,4,381,left,4,orange circle,0.65,0,0
10 4b,2,4,523,left,9,orange circle,0.387,0,0
10 4b,2,4,7,right,9,orange circle,0.45,1,0
10 4b,2,4,185,right,9,orange circle,0.465,1,0
10 4b,2,4,139,right,9,orange circle,0.455,1,0
10 4b,2,4,341,right,9,orange circle,0.724,1,0
10 4b,2,4,181,right,9,orange circle,0.564,1,0
10 4b,2,4,390,left,19,orange circle,0.468,0,0
10 4b,2,4,131,left,19,orange circle,0.533,0,0
10 4b,2,4,528,right,19,orange circle,0.448,1,0
10 4b,2,4,495,right,19,orange circle,0.361,1,0
10 4b,2,4,39,left,19,orange circle,0.647,0,0
10 4b,2,4,214,right,19,orange circle,0.685,1,0
10 4b,2,4,237,left,31,orange circle,0.364,0,0
10 4b,2,4,589,left,31,orange circle,0.406,0,0
10 4b,2,4,346,right,31,orange circle,0.408,1,0
10 4b,2,4,180,left,31,orange circle,0.386,0,0
10 4b,2,4,521,left,31,orange circle,0.474,0,0
10 4b,2,4,138,left,31,orange circle,0.501,0,0
10 4b,2,4,88,right,0,yellow diamond,0.396,1,0
10 4b,2,4,254,right,0,yellow diamond,0.361,1,0
10 4b,2,4,143,right,0,yellow diamond,0.505,1,0
10 4b,2,4,32,left,0,yellow diamond,0.349,0,0
10 4b,2,4,462,right,0,yellow diamond,0.591,1,0
10 4b,2,4,349,left,0,yellow diamond,0.468,0,0
10 4b,2,4,123,right,1,yellow diamond,0.397,1,0
10 4b,2,4,49,right,1,yellow diamond,0.367,1,0
10 4b,2,4,435,left,1,yellow diamond,0.573,0,0
10 4b,2,4,111,left,1,yellow diamond,0.48,0,0
10 4b,2,4,217,right,1,yellow diamond,0.418,1,0
10 4b,2,4,531,right,1,yellow diamond,0.39,1,0
10 4b,2,4,312,left,4,yellow diamond,0.513,0,0
10 4b,2,4,530,left,4,yellow diamond,0.352,0,0
10 4b,2,4,80,right,4,yellow diamond,0.348,1,0
10 4b,2,4,208,left,4,yellow diamond,0.414,0,0
10 4b,2,4,368,right,4,yellow diamond,0.388,1,0
10 4b,2,4,130,right,4,yellow diamond,0.468,1,0
10 4b,2,4,3,left,9,yellow diamond,0.434,0,0
10 4b,2,4,100,right,9,yellow diamond,0.372,1,0
10 4b,2,4,71,right,9,yellow diamond,0.471,1,0
10 4b,2,4,461,left,9,yellow diamond,0.364,0,0
10 4b,2,4,127,left,9,yellow diamond,0.392,0,0
10 4b,2,4,110,left,9,yellow diamond,0.42,0,0
10 4b,2,4,360,right,19,yellow diamond,0.519,1,0
10 4b,2,4,69,left,19,yellow diamond,0.613,0,0
10 4b,2,4,491,right,19,yellow diamond,0.46,1,0
10 4b,2,4,380,left,19,yellow diamond,0.548,0,0
10 4b,2,4,200,right,19,yellow diamond,0.552,1,0
10 4b,2,4,10,left,19,yellow diamond,0.457,0,0
10 4b,2,4,591,left,31,yellow diamond,0.445,0,0
10 4b,2,4,404,left,31,yellow diamond,0.576,0,0
10 4b,2,4,323,right,31,yellow diamond,0.42,1,0
10 4b,2,4,227,right,31,yellow diamond,0.392,1,0
10 4b,2,4,618,left,31,yellow diamond,0.461,0,0
10 4b,2,4,493,right,31,yellow diamond,0.435,1,0
10 4b,2,4,452,right,0,blue diamond,0.477,1,0
10 4b,2,4,489,left,0,blue diamond,0.528,0,0
10 4b,2,4,462,right,0,blue diamond,0.591,1,0
10 4b,2,4,254,right,0,blue diamond,0.361,1,0
10 4b,2,4,372,left,0,blue diamond,0.573,0,0
10 4b,2,4,174,left,0,blue diamond,0.39,0,0
10 4b,2,4,32,left,0,yellow circle,0.349,0,0
10 4b,2,4,40,right,0,yellow circle,0.411,1,0
10 4b,2,4,416,left,0,yellow circle,0.33,0,0
10 4b,2,4,588,left,0,yellow circle,0.379,0,0
10 4b,2,4,275,left,0,yellow circle,0.365,0,0
10 4b,2,4,249,left,0,yellow circle,0.435,0,0
10 4b,2,4,229,left,1,blue semicircle,0.416,0,0
10 4b,2,4,135,left,1,blue semicircle,0.334,0,0
10 4b,2,4,506,left,1,blue semicircle,0.331,0,0
10 4b,2,4,295,left,1,blue semicircle,0.411,0,0
10 4b,2,4,89,right,1,blue semicircle,0.411,1,0
10 4b,2,4,514,right,1,blue semicircle,0.343,1,0
10 4b,2,4,309,left,4,blue semicircle,0.443,0,0
10 4b,2,4,548,left,4,blue semicircle,0.4,0,0
10 4b,2,4,68,right,4,blue semicircle,0.398,1,0
10 4b,2,4,58,right,4,blue semicircle,0.387,1,0
10 4b,2,4,159,right,4,blue semicircle,0.44,1,0
10 4b,2,4,590,left,4,blue semicircle,0.454,0,0
10 4b,2,4,17,left,9,blue semicircle,0.57,0,0
10 4b,2,4,451,right,9,blue semicircle,0.435,1,0
10 4b,2,4,430,left,9,blue semicircle,0.641,0,0
10 4b,2,4,327,left,9,blue semicircle,0.37,0,0
10 4b,2,4,82,right,9,blue semicircle,0.365,1,0
10 4b,2,4,104,right,9,blue semicircle,0.435,1,0
10 4b,2,4,170,right,19,blue semicircle,0.394,1,0
10 4b,2,4,287,right,19,blue semicircle,0.388,1,0
10 4b,2,4,357,right,19,blue semicircle,0.368,1,0
10 4b,2,4,367,left,19,blue semicircle,0.386,0,0
10 4b,2,4,120,right,19,blue semicircle,0.487,1,0
10 4b,2,4,274,left,19,blue semicircle,0.533,0,0
10 4b,2,4,67,right,31,blue semicircle,0.463,1,0
10 4b,2,4,242,right,31,blue semicircle,0.466,1,0
10 4b,2,4,213,right,31,blue semicircle,0.48,1,0
10 4b,2,4,379,right,31,blue semicircle,0.454,1,0
10 4b,2,4,433,right,31,blue semicircle,0.478,1,0
10 4b,2,4,29,left,31,blue semicircle,0.562,0,0
10 4c,8,4,71,right,0,orange diamond,0.454,1,0
10 4c,8,4,376,right,0,orange diamond,0.455,1,0
10 4c,8,4,150,left,0,orange diamond,0.426,0,0
10 4c,8,4,587,right,0,orange diamond,0.458,1,0
10 4c,8,4,407,right,0,orange diamond,0.424,1,0
10 4c,8,4,298,left,0,orange diamond,0.429,0,0
10 4c,8,4,400,right,0,blue circle,0.375,1,0
10 4c,8,4,488,left,0,blue circle,0.414,0,0
10 4c,8,4,588,left,0,blue circle,0.429,0,0
10 4c,8,4,266,right,0,blue circle,0.495,1,0
10 4c,8,4,233,left,0,blue circle,0.371,0,0
10 4c,8,4,598,right,0,blue circle,0.392,1,0
10 4c,8,4,270,left,0,orange circle,0.403,0,0
10 4c,8,4,404,left,0,orange circle,0.366,0,0
10 4c,8,4,407,right,0,orange circle,0.424,1,0
10 4c,8,4,587,right,0,orange circle,0.458,1,0
10 4c,8,4,304,right,0,orange circle,0.404,1,0
10 4c,8,4,488,left,0,orange circle,0.414,0,0
10 4c,8,4,528,right,0,yellow diamond,0.394,1,0
10 4c,8,4,71,right,0,yellow diamond,0.454,1,0
10 4c,8,4,405,right,0,yellow diamond,0.367,1,0
10 4c,8,4,266,right,0,yellow diamond,0.495,1,0
10 4c,8,4,407,right,0,yellow diamond,0.424,1,0
10 4c,8,4,251,left,0,yellow diamond,0.571,0,0
10 4c,8,4,71,right,0,blue diamond,0.454,1,0
10 4c,8,4,407,right,0,blue diamond,0.424,1,0
10 4c,8,4,270,left,0,blue diamond,0.403,0,0
10 4c,8,4,473,right,0,blue diamond,0.471,1,0
10 4c,8,4,519,right,0,blue diamond,0.456,1,0
10 4c,8,4,304,right,0,blue diamond,0.404,1,0
10 4c,8,4,59,right,1,blue diamond,0.603,1,0
10 4c,8,4,521,left,1,blue diamond,1.023,0,0
10 4c,8,4,592,right,1,blue diamond,0.432,1,0
10 4c,8,4,452,right,1,blue diamond,0.394,1,0
10 4c,8,4,131,left,1,blue diamond,0.52,0,0
10 4c,8,4,74,left,1,blue diamond,0.521,0,0
10 4c,8,4,463,left,4,blue diamond,0.372,0,0
10 4c,8,4,398,right,4,blue diamond,0.565,1,0
10 4c,8,4,581,left,4,blue diamond,0.372,0,0
10 4c,8,4,63,right,4,blue diamond,0.531,1,0
10 4c,8,4,372,left,4,blue diamond,0.475,0,0
10 4c,8,4,406,left,4,blue diamond,0.479,0,0
10 4c,8,4,240,left,9,blue diamond,0.42,0,0
10 4c,8,4,584,right,9,blue diamond,0.744,1,0
10 4c,8,4,124,left,9,blue diamond,0.641,0,0
10 4c,8,4,174,left,9,blue diamond,0.618,0,0
10 4c,8,4,173,right,9,blue diamond,0.642,1,0
10 4c,8,4,236,left,9,blue diamond,0.461,0,0
10 4c,8,4,439,left,19,blue diamond,0.377,0,0
10 4c,8,4,414,left,19,blue diamond,0.455,0,0
10 4c,8,4,556,right,19,blue diamond,0.458,1,0
10 4c,8,4,242,left,19,blue diamond,0.434,0,0
10 4c,8,4,453,left,19,blue diamond,0.474,0,0
10 4c,8,4,629,left,19,blue diamond,0.69,0,0
10 4c,8,4,618,right,31,blue diamond,0.462,1,0
10 4c,8,4,505,right,31,blue diamond,0.38,1,0
10 4c,8,4,469,right,31,blue diamond,0.681,1,0
10 4c,8,4,246,left,31,blue diamond,0.474,0,0
10 4c,8,4,624,left,31,blue diamond,0.639,0,0
10 4c,8,4,79,right,31,blue diamond,0.471,1,0
10 4c,8,4,2,right,0,yellow circle,0.478,1,0
10 4c,8,4,570,right,0,yellow circle,0.388,1,0
10 4c,8,4,329,right,0,yellow circle,0.522,1,0
10 4c,8,4,533,left,0,yellow circle,0.801,0,0
10 4c,8,4,60,left,0,yellow circle,0.423,0,0
10 4c,8,4,270,left,0,yellow circle,0.403,0,0
10 4c,8,4,524,right,1,yellow circle,0.489,1,0
10 4c,8,4,388,right,1,yellow circle,0.525,1,0
10 4c,8,4,317,left,1,yellow circle,0.494,0,0
10 4c,8,4,138,left,1,yellow circle,0.481,0,0
10 4c,8,4,284,right,1,yellow circle,1.392,1,0
10 4c,8,4,637,right,1,yellow circle,0.423,1,0
10 4c,8,4,580,right,4,yellow circle,0.382,1,0
10 4c,8,4,62,right,4,yellow circle,0.76,1,0
10 4c,8,4,265,right,4,yellow circle,0.549,1,0
10 4c,8,4,579,left,4,yellow circle,0.426,0,0
10 4c,8,4,638,right,4,yellow circle,0.453,1,0
10 4c,8,4,222,right,4,yellow circle,0.506,1,0
10 4c,8,4,324,right,9,yellow circle,0.518,1,0
10 4c,8,4,622,right,9,yellow circle,0.799,1,0
10 4c,8,4,112,right,9,yellow circle,0.488,1,0
10 4c,8,4,509,right,9,yellow circle,0.439,1,0
10 4c,8,4,396,right,9,yellow circle,0.5,1,0
10 4c,8,4,263,right,9,yellow circle,0.507,1,0
10 4c,8,4,552,right,19,yellow circle,0.465,1,0
10 4c,8,4,626,right,19,yellow circle,0.579,1,0
10 4c,8,4,394,right,19,yellow circle,0.445,1,0
10 4c,8,4,597,right,19,yellow circle,0.495,1,0
10 4c,8,4,492,right,19,yellow circle,0.492,1,0
10 4c,8,4,395,left,19,yellow circle,0.549,0,0
10 4c,8,4,176,left,31,yellow circle,0.476,0,0
10 4c,8,4,55,left,31,yellow circle,0.486,0,0
10 4c,8,4,341,left,31,yellow circle,0.483,0,0
10 4c,8,4,43,left,31,yellow circle,0.527,0,0
10 4c,8,4,6,right,31,yellow circle,0.568,1,0
10 4c,8,4,13,right,31,yellow circle,0.688,1,0
10 4c,8,4,143,left,1,orange semicircle,0.386,0,0
10 4c,8,4,169,left,1,orange semicircle,0.517,0,0
10 4c,8,4,443,right,1,orange semicircle,0.365,1,0
10 4c,8,4,428,left,1,orange semicircle,0.367,0,0
10 4c,8,4,571,left,1,orange semicircle,0.567,0,0
10 4c,8,4,471,right,1,orange semicircle,0.38,1,0
10 4c,8,4,245,right,4,orange semicircle,0.735,1,0
10 4c,8,4,101,right,4,orange semicircle,0.471,1,0
10 4c,8,4,328,left,4,orange semicircle,0.456,0,0
10 4c,8,4,258,left,4,orange semicircle,0.594,0,0
10 4c,8,4,98,left,4,orange semicircle,0.691,0,0
10 4c,8,4,15,left,4,orange semicircle,0.62,0,0
10 4c,8,4,427,right,9,orange semicircle,0.574,1,0
10 4c,8,4,51,right,9,orange semicircle,0.826,1,0
10 4c,8,4,10,right,9,orange semicircle,0.597,1,0
10 4c,8,4,384,right,9,orange semicircle,0.929,1,0
10 4c,8,4,490,left,9,orange semicircle,0.413,0,0
10 4c,8,4,518,right,9,orange semicircle,0.549,1,0
10 4c,8,4,458,left,19,orange semicircle,0.406,0,0
10 4c,8,4,24,left,19,orange semicircle,0.552,0,0
10 4c,8,4,364,left,19,orange semicircle,0.544,0,0
10 4c,8,4,557,right,19,orange semicircle,0.442,1,0
10 4c,8,4,76,right,19,orange semicircle,0.463,1,0
10 4c,8,4,568,left,19,orange semicircle,0.505,0,0
10 4c,8,4,188,left,31,orange semicircle,0.739,0,0
10 4c,8,4,600,right,31,orange semicircle,0.582,1,0
10 4c,8,4,35,right,31,orange semicircle,0.577,1,0
10 4c,8,4,42,right,31,orange semicircle,0.621,1,0
10 4c,8,4,636,left,31,orange semicircle,0.573,0,0
10 4c,8,4,290,right,31,orange semicircle,0.482,1,0
11 1a,19,1,408,right,0,orange,0.596,1,0
11 1a,19,1,38,left,0,orange,0.771,0,0
11 1a,19,1,189,right,0,orange,0.773,1,0
11 1a,19,1,160,right,0,orange,0.574,1,0
11 1a,19,1,555,right,0,orange,0.898,1,0
11 1a,19,1,537,right,0,orange,0.668,1,0
11 1a,19,1,293,right,1,orange,0.656,1,0
11 1a,19,1,484,right,1,orange,0.799,1,0
11 1a,19,1,246,left,1,orange,0.625,0,0
11 1a,19,1,316,left,1,orange,0.512,0,0
11 1a,19,1,190,right,1,orange,0.551,1,0
11 1a,19,1,203,right,1,orange,0.806,1,0
11 1a,19,1,450,left,4,orange,0.665,0,0
11 1a,19,1,458,right,4,orange,0.717,1,0
11 1a,19,1,291,right,4,orange,0.548,1,0
11 1a,19,1,566,left,4,orange,0.609,0,0
11 1a,19,1,108,left,4,orange,0.538,0,0
11 1a,19,1,148,right,4,orange,0.656,1,0
11 1a,19,1,357,right,9,orange,0.937,1,0
11 1a,19,1,171,right,9,orange,0.531,1,0
11 1a,19,1,538,right,9,orange,0.772,1,0
11 1a,19,1,151,right,9,orange,0.9,1,0
11 1a,19,1,573,left,9,orange,0.848,0,0
11 1a,19,1,522,right,9,orange,0.525,1,0
11 1a,19,1,76,right,19,orange,0.868,1,0
11 1a,19,1,521,left,19,orange,0.599,0,0
11 1a,19,1,489,right,19,orange,0.68,1,0
11 1a,19,1,14,left,19,orange,0.618,0,0
11 1a,19,1,155,left,19,orange,0.712,0,0
11 1a,19,1,46,right,19,orange,0.685,1,0
11 1a,19,1,350,right,31,orange,0.676,1,0
11 1a,19,1,85,right,31,orange,0.546,1,0
11 1a,19,1,269,left,31,orange,0.488,0,0
11 1a,19,1,221,left,31,orange,0.632,0,0
11 1a,19,1,494,left,31,orange,1.096,0,0
11 1a,19,1,101,right,31,orange,0.754,1,0
11 1a,19,1,28,left,0,blue,0.616,0,0
11 1a,19,1,97,right,0,blue,0.628,1,0
11 1a,19,1,166,right,0,blue,0.835,1,0
11 1a,19,1,561,left,0,blue,0.727,0,0
11 1a,19,1,169,right,0,blue,0.664,1,0
11 1a,19,1,160,right,0,blue,0.574,1,0
11 1a,19,1,532,right,1,blue,0.78,1,0
11 1a,19,1,150,left,1,blue,1.357,0,0
11 1a,19,1,406,left,1,blue,0.627,0,0
11 1a,19,1,572,right,1,blue,0.593,1,0
11 1a,19,1,86,right,1,blue,0.79,1,0
11 1a,19,1,51,right,1,blue,0.752,1,0
11 1a,19,1,283,left,4,blue,1.036,0,0
11 1a,19,1,508,left,4,blue,0.693,0,0
11 1a,19,1,60,right,4,blue,0.655,1,0
11 1a,19,1,249,right,4,blue,0.826,1,0
11 1a,19,1,529,right,4,blue,0.997,1,0
11 1a,19,1,432,right,4,blue,0.836,1,0
11 1a,19,1,42,left,9,blue,0.719,0,0
11 1a,19,1,378,left,9,blue,0.831,0,0
11 1a,19,1,328,left,9,blue,0.658,0,0
11 1a,19,1,391,right,9,blue,1.203,1,0
11 1a,19,1,247,right,9,blue,0.681,1,0
11 1a,19,1,95,left,9,blue,0.916,0,0
11 1a,19,1,331,left,19,blue,1.52,0,0
11 1a,19,1,133,left,19,blue,0.872,0,0
11 1a,19,1,183,left,19,blue,0.826,0,0
11 1a,19,1,99,left,19,blue,0.738,0,0
11 1a,19,1,354,left,19,blue,0.949,0,0
11 1a,19,1,167,right,19,blue,0.654,1,0
11 1a,19,1,296,right,31,blue,0.899,1,0
11 1a,19,1,297,right,31,blue,0.891,1,0
11 1a,19,1,475,left,31,blue,1.442,0,0
11 1a,19,1,286,left,31,blue,0.751,0,0
11 1a,19,1,18,left,31,blue,0.629,0,0
11 1a,19,1,387,left,31,blue,0.726,0,0
11 1a,19,1,388,left,0,yellow,0.678,0,0
11 1a,19,1,459,right,0,yellow,0.726,1,0
11 1a,19,1,38,left,0,yellow,0.771,0,0
11 1a,19,1,606,right,0,yellow,0.528,1,0
11 1a,19,1,244,left,0,yellow,0.461,0,0
11 1a,19,1,123,right,0,yellow,0.508,1,0
11 1a,19,1,568,left,1,yellow,0.727,0,0
11 1a,19,1,49,left,1,yellow,1.381,0,0
11 1a,19,1,278,left,1,yellow,0.687,0,0
11 1a,19,1,372,right,1,yellow,0.676,1,0
11 1a,19,1,340,right,1,yellow,0.632,1,0
11 1a,19,1,438,left,1,yellow,0.74,0,0
11 1a,19,1,557,left,4,yellow,0.643,0,0
11 1a,19,1,454,left,4,yellow,0.514,0,0
11 1a,19,1,495,right,4,yellow,1.554,1,0
11 1a,19,1,541,left,4,yellow,0.619,0,0
11 1a,19,1,411,right,4,yellow,0.604,1,0
11 1a,19,1,486,left,4,yellow,0.734,0,0
11 1a,19,1,592,left,9,yellow,0.666,0,0
11 1a,19,1,136,left,9,yellow,0.783,0,0
11 1a,19,1,302,right,9,yellow,0.443,1,0
11 1a,19,1,594,left,9,yellow,0.512,0,0
11 1a,19,1,347,left,9,yellow,0.643,0,0
11 1a,19,1,336,left,9,yellow,0.772,0,0
11 1a,19,1,456,right,19,yellow,0.935,1,0
11 1a,19,1,191,left,19,yellow,0.543,0,0
11 1a,19,1,53,left,19,yellow,0.674,0,0
11 1a,19,1,512,right,19,yellow,0.671,1,0
11 1a,19,1,624,left,19,yellow,0.772,0,0
11 1a,19,1,397,right,19,yellow,0.992,1,0
11 1a,19,1,198,left,31,yellow,0.59,0,0
11 1a,19,1,19,right,31,yellow,0.727,1,0
11 1a,19,1,415,left,31,yellow,0.68,0,0
11 1a,19,1,348,right,31,yellow,0.789,1,0
11 1a,19,1,505,right,31,yellow,0.678,1,0
11 1a,19,1,2,left,31,yellow,0.783,0,0
11 1a,19,1,392,left,0,diamond,0.763,0,0
11 1a,19,1,166,right,0,diamond,0.835,1,0
11 1a,19,1,123,right,0,diamond,0.508,1,0
11 1a,19,1,320,left,0,diamond,0.522,0,0
11 1a,19,1,464,left,0,diamond,0.586,0,0
11 1a,19,1,537,right,0,diamond,0.668,1,0
11 1a,19,1,480,left,0,circle,0.75,0,0
11 1a,19,1,199,right,0,circle,0.558,1,0
11 1a,19,1,464,left,0,circle,0.586,0,0
11 1a,19,1,324,left,0,circle,0.433,0,0
11 1a,19,1,166,right,0,circle,0.835,1,0
11 1a,19,1,169,right,0,circle,0.664,1,0
11 1a,19,1,244,left,0,triangle,0.461,0,0
11 1a,19,1,351,left,0,triangle,0.897,0,0
11 1a,19,1,388,left,0,triangle,0.678,0,0
11 1a,19,1,253,left,0,triangle,0.481,0,0
11 1a,19,1,320,left,0,triangle,0.522,0,0
11 1a,19,1,70,left,0,triangle,0.502,0,0
11 1b,6,1,344,right,0,orange,0.564,1,0
11 1b,6,1,640,left,0,orange,0.499,0,0
11 1b,6,1,588,right,0,orange,0.495,1,0
11 1b,6,1,605,left,0,orange,0.51,0,0
11 1b,6,1,447,left,0,orange,0.436,0,0
11 1b,6,1,481,left,0,orange,0.51,0,0
11 1b,6,1,114,left,0,blue,0.845,0,0
11 1b,6,1,400,right,0,blue,0.512,1,0
11 1b,6,1,420,left,0,blue,0.439,0,0
11 1b,6,1,403,left,0,blue,0.582,0,0
11 1b,6,1,31,right,0,blue,0.607,1,0
11 1b,6,1,247,left,0,blue,0.609,0,0
11 1b,6,1,178,left,0,yellow,0.474,0,0
11 1b,6,1,420,left,0,yellow,0.439,0,0
11 1b,6,1,38,right,0,yellow,0.56,1,0
11 1b,6,1,481,left,0,yellow,0.51,0,0
11 1b,6,1,247,left,0,yellow,0.609,0,0
11 1b,6,1,605,left,0,yellow,0.51,0,0
11 1b,6,1,623,left,0,diamond,0.516,0,0
11 1b,6,1,323,right,0,diamond,0.493,1,0
11 1b,6,1,550,right,0,diamond,0.456,1,0
11 1b,6,1,403,left,0,diamond,0.582,0,0
11 1b,6,1,31,right,0,diamond,0.607,1,0
11 1b,6,1,400,right,0,diamond,0.512,1,0
11 1b,6,1,12,left,1,diamond,0.635,0,0
11 1b,6,1,513,right,1,diamond,0.467,1,0
11 1b,6,1,381,right,1,diamond,0.499,1,0
11 1b,6,1,503,left,1,diamond,0.582,0,0
11 1b,6,1,74,left,1,diamond,0.76,0,0
11 1b,6,1,192,right,1,diamond,0.751,1,0
11 1b,6,1,44,left,4,diamond,0.841,0,0
11 1b,6,1,202,left,4,diamond,0.548,0,0
11 1b,6,1,567,right,4,diamond,0.601,1,0
11 1b,6,1,635,right,4,diamond,0.583,1,0
11 1b,6,1,355,right,4,diamond,0.765,1,0
11 1b,6,1,228,left,4,diamond,0.701,0,0
11 1b,6,1,129,right,9,diamond,1.488,1,0
11 1b,6,1,398,left,9,diamond,0.55,0,0
11 1b,6,1,626,right,9,diamond,0.655,1,0
11 1b,6,1,607,left,9,diamond,0.642,0,0
11 1b,6,1,557,left,9,diamond,0.589,0,0
11 1b,6,1,586,left,9,diamond,0.654,0,0
11 1b,6,1,224,right,19,diamond,0.804,1,0
11 1b,6,1,143,right,19,diamond,0.781,1,0
11 1b,6,1,205,left,19,diamond,0.623,0,0
11 1b,6,1,551,left,19,diamond,0.634,0,0
11 1b,6,1,5,right,19,diamond,0.754,1,0
