p_id,ps_id,exp_id,trial,t_id,N_T,d_feature,rt,response,error
1 1a,9,1,32,left,0,blue,0.48,0,0
1 1a,9,1,184,left,0,blue,0.725,0,0
1 1a,9,1,635,left,0,blue,0.533,0,0
1 1a,9,1,151,right,0,blue,0.41,1,0
1 1a,9,1,45,right,0,blue,0.375,1,0
1 1a,9,1,403,left,0,blue,0.458,0,0
1 1a,9,1,59,left,1,blue,0.605,0,0
1 1a,9,1,143,right,1,blue,0.404,1,0
1 1a,9,1,572,right,1,blue,0.42,1,0
1 1a,9,1,529,left,1,blue,0.394,0,0
1 1a,9,1,313,right,1,blue,0.36,1,0
1 1a,9,1,447,right,1,blue,0.404,1,0
1 1a,9,1,457,left,4,blue,0.555,0,0
1 1a,9,1,389,right,4,blue,0.634,1,0
1 1a,9,1,388,right,4,blue,0.469,1,0
1 1a,9,1,530,right,4,blue,0.425,1,0
1 1a,9,1,269,left,4,blue,0.542,0,0
1 1a,9,1,498,left,4,blue,0.659,0,0
1 1a,9,1,204,right,9,blue,0.499,1,0
1 1a,9,1,137,right,9,blue,1.519,1,0
1 1a,9,1,520,right,9,blue,0.499,1,0
1 1a,9,1,174,right,9,blue,0.615,1,0
1 1a,9,1,348,left,9,blue,0.505,0,0
1 1a,9,1,571,right,9,blue,0.804,1,0
1 1a,9,1,604,left,19,blue,0.568,0,0
1 1a,9,1,125,left,19,blue,0.579,0,0
1 1a,9,1,145,right,19,blue,0.671,1,0
1 1a,9,1,182,right,19,blue,0.416,1,0
1 1a,9,1,273,right,19,blue,0.426,1,0
1 1a,9,1,559,left,19,blue,0.802,0,0
1 1a,9,1,57,right,31,blue,0.494,1,0
1 1a,9,1,164,right,31,blue,0.646,1,0
1 1a,9,1,163,right,31,blue,0.644,1,0
1 1a,9,1,574,left,31,blue,0.499,0,0
1 1a,9,1,38,left,31,blue,1.133,0,0
1 1a,9,1,502,left,31,blue,0.669,0,0
1 1a,9,1,149,left,0,circle,0.433,0,0
1 1a,9,1,628,right,0,circle,0.411,1,0
1 1a,9,1,168,left,0,circle,0.398,0,0
1 1a,9,1,161,right,0,circle,0.586,1,0
1 1a,9,1,411,left,0,circle,0.386,0,0
1 1a,9,1,635,left,0,circle,0.533,0,0
1 1a,9,1,242,right,0,diamond,0.384,1,0
1 1a,9,1,635,left,0,diamond,0.533,0,0
1 1a,9,1,36,left,0,diamond,0.373,0,0
1 1a,9,1,217,left,0,diamond,0.388,0,0
1 1a,9,1,458,right,0,diamond,0.503,1,0
1 1a,9,1,32,left,0,diamond,0.48,0,0
1 1a,9,1,202,right,0,orange,0.37,1,0
1 1a,9,1,635,left,0,orange,0.533,0,0
1 1a,9,1,487,right,0,orange,0.456,1,0
1 1a,9,1,217,left,0,orange,0.388,0,0
1 1a,9,1,528,right,0,orange,0.44,1,0
1 1a,9,1,280,right,0,orange,0.424,1,0
1 1a,9,1,445,left,1,orange,0.438,0,0
1 1a,9,1,505,left,1,orange,0.446,0,0
1 1a,9,1,225,left,1,orange,0.606,0,0
1 1a,9,1,61,left,1,orange,0.359,0,0
1 1a,9,1,562,left,1,orange,0.407,0,0
1 1a,9,1,565,right,1,orange,0.443,1,0
1 1a,9,1,599,right,4,orange,0.383,1,0
1 1a,9,1,73,right,4,orange,0.511,1,0
1 1a,9,1,53,right,4,orange,0.41,1,0
1 1a,9,1,392,left,4,orange,0.544,0,0
1 1a,9,1,5,left,4,orange,0.391,0,0
1 1a,9,1,440,left,4,orange,0.434,0,0
1 1a,9,1,365,left,9,orange,0.527,0,0
1 1a,9,1,356,left,9,orange,0.564,0,0
1 1a,9,1,15,left,9,orange,0.655,0,0
1 1a,9,1,368,left,9,orange,0.633,0,0
1 1a,9,1,617,left,9,orange,0.72,0,0
1 1a,9,1,570,right,9,orange,0.531,1,0
1 1a,9,1,240,left,19,orange,0.565,0,0
1 1a,9,1,581,left,19,orange,0.556,0,0
1 1a,9,1,285,right,19,orange,0.585,1,0
1 1a,9,1,547,right,19,orange,0.47,1,0
1 1a,9,1,493,right,19,orange,0.369,1,0
1 1a,9,1,199,right,19,orange,0.399,1,0
1 1a,9,1,404,right,31,orange,0.432,1,0
1 1a,9,1,64,left,31,orange,0.405,0,0
1 1a,9,1,13,left,31,orange,0.443,0,0
1 1a,9,1,200,right,31,orange,0.724,1,0
1 1a,9,1,274,right,31,orange,0.463,1,0
1 1a,9,1,93,right,31,orange,0.549,1,0
1 1a,9,1,266,left,0,triangle,0.542,0,0
1 1a,9,1,32,left,0,triangle,0.48,0,0
1 1a,9,1,403,left,0,triangle,0.458,0,0
1 1a,9,1,241,right,0,triangle,0.367,1,0
1 1a,9,1,305,left,0,triangle,0.53,0,0
1 1a,9,1,631,left,0,triangle,0.397,0,0
1 1a,9,1,622,right,0,yellow,0.365,1,0
1 1a,9,1,168,left,0,yellow,0.398,0,0
1 1a,9,1,403,left,0,yellow,0.458,0,0
1 1a,9,1,149,left,0,yellow,0.433,0,0
1 1a,9,1,198,left,0,yellow,0.445,0,0
1 1a,9,1,241,right,0,yellow,0.367,1,0
1 1a,9,1,552,left,1,yellow,0.484,0,0
1 1a,9,1,154,left,1,yellow,0.882,0,0
1 1a,9,1,577,left,1,yellow,0.487,0,0
1 1a,9,1,432,left,1,yellow,0.426,0,0
1 1a,9,1,100,right,1,yellow,0.367,1,0
1 1a,9,1,401,right,1,yellow,0.553,1,0
1 1a,9,1,203,right,4,yellow,0.433,1,0
1 1a,9,1,216,left,4,yellow,0.771,0,0
1 1a,9,1,410,right,4,yellow,0.596,1,0
1 1a,9,1,479,left,4,yellow,0.548,0,0
1 1a,9,1,324,left,4,yellow,0.542,0,0
1 1a,9,1,540,left,4,yellow,0.332,0,0
1 1a,9,1,618,left,9,yellow,0.583,0,0
1 1a,9,1,284,right,9,yellow,0.382,1,0
1 1a,9,1,611,right,9,yellow,0.502,1,0
1 1a,9,1,2,right,9,yellow,0.607,1,0
1 1a,9,1,20,right,9,yellow,0.398,1,0
1 1a,9,1,89,left,9,yellow,0.807,0,0
1 1a,9,1,255,right,19,yellow,0.592,1,0
1 1a,9,1,352,right,19,yellow,0.45,1,0
1 1a,9,1,235,left,19,yellow,1.052,0,0
1 1a,9,1,423,left,19,yellow,0.513,0,0
1 1a,9,1,94,left,19,yellow,0.457,0,0
1 1a,9,1,492,left,19,yellow,0.644,0,0
1 1a,9,1,467,right,31,yellow,0.695,1,0
1 1a,9,1,592,right,31,yellow,0.456,1,0
1 1a,9,1,258,right,31,yellow,0.544,1,0
1 1a,9,1,374,right,31,yellow,0.464,1,0
1 1a,9,1,484,left,31,yellow,0.48,0,0
1 1a,9,1,17,left,31,yellow,0.546,0,0
1 1b,2,1,400,left,0,blue,0.724,0,0
1 1b,2,1,401,left,0,blue,0.368,0,0
1 1b,2,1,298,right,0,blue,0.412,1,0
1 1b,2,1,232,left,0,blue,0.537,0,0
1 1b,2,1,257,left,0,blue,0.594,0,0
1 1b,2,1,567,left,0,blue,0.452,0,0
1 1b,2,1,509,right,0,circle,0.561,1,0
1 1b,2,1,397,left,0,circle,0.409,0,0
1 1b,2,1,112,left,0,circle,0.355,0,0
1 1b,2,1,120,right,0,circle,0.436,1,0
1 1b,2,1,39,left,0,circle,0.438,0,0
1 1b,2,1,46,right,0,circle,0.381,1,0
1 1b,2,1,3,right,1,circle,0.436,1,0
1 1b,2,1,374,left,1,circle,0.606,0,0
1 1b,2,1,494,right,1,circle,0.457,1,0
1 1b,2,1,170,left,1,circle,0.469,0,0
1 1b,2,1,353,right,1,circle,0.352,1,0
1 1b,2,1,235,right,1,circle,0.467,1,0
1 1b,2,1,145,right,4,circle,0.627,1,0
1 1b,2,1,289,right,4,circle,0.529,1,0
1 1b,2,1,209,left,4,circle,0.444,0,0
1 1b,2,1,327,right,4,circle,0.502,1,0
1 1b,2,1,521,left,4,circle,0.469,0,0
1 1b,2,1,49,left,4,circle,0.615,0,0
1 1b,2,1,275,left,9,circle,0.503,0,0
1 1b,2,1,610,left,9,circle,0.498,0,0
1 1b,2,1,144,left,9,circle,0.986,0,0
1 1b,2,1,576,left,9,circle,0.56,0,0
1 1b,2,1,498,left,9,circle,0.421,0,0
1 1b,2,1,16,right,9,circle,0.783,1,0
1 1b,2,1,347,left,19,circle,0.453,0,0
1 1b,2,1,443,right,19,circle,0.449,1,0
1 1b,2,1,239,right,19,circle,0.716,1,0
1 1b,2,1,61,right,19,circle,0.442,1,0
1 1b,2,1,216,right,19,circle,0.792,1,0
1 1b,2,1,383,left,19,circle,0.433,0,0
1 1b,2,1,340,right,31,circle,0.49,1,0
1 1b,2,1,211,left,31,circle,0.563,0,0
1 1b,2,1,19,left,31,circle,0.7,0,0
1 1b,2,1,133,right,31,circle,0.533,1,0
1 1b,2,1,423,right,31,circle,0.399,1,0
1 1b,2,1,244,left,31,circle,0.497,0,0
1 1b,2,1,30,right,0,diamond,0.551,1,0
1 1b,2,1,46,right,0,diamond,0.381,1,0
1 1b,2,1,397,left,0,diamond,0.409,0,0
1 1b,2,1,401,left,0,diamond,0.368,0,0
1 1b,2,1,39,left,0,diamond,0.438,0,0
1 1b,2,1,195,left,0,diamond,0.454,0,0
1 1b,2,1,280,left,1,diamond,0.406,0,0
1 1b,2,1,40,right,1,diamond,0.376,1,0
1 1b,2,1,156,left,1,diamond,0.454,0,0
1 1b,2,1,36,right,1,diamond,0.444,1,0
1 1b,2,1,439,left,1,diamond,0.458,0,0
1 1b,2,1,612,left,1,diamond,0.37,0,0
1 1b,2,1,188,right,4,diamond,0.689,1,0
1 1b,2,1,63,left,4,diamond,0.435,0,0
1 1b,2,1,71,right,4,diamond,0.49,1,0
1 1b,2,1,272,left,4,diamond,0.482,0,0
1 1b,2,1,329,right,4,diamond,0.464,1,0
1 1b,2,1,227,left,4,diamond,0.585,0,0
1 1b,2,1,581,left,9,diamond,0.82,0,0
1 1b,2,1,413,right,9,diamond,0.628,1,0
1 1b,2,1,241,right,9,diamond,0.545,1,0
1 1b,2,1,380,right,9,diamond,0.537,1,0
1 1b,2,1,9,right,9,diamond,0.756,1,0
1 1b,2,1,284,right,9,diamond,0.55,1,0
1 1b,2,1,399,left,19,diamond,0.802,0,0
1 1b,2,1,556,left,19,diamond,0.535,0,0
1 1b,2,1,596,left,19,diamond,1.228,0,0
1 1b,2,1,10,left,19,diamond,0.792,0,0
1 1b,2,1,202,right,19,diamond,1.308,1,0
1 1b,2,1,377,right,19,diamond,0.601,1,0
1 1b,2,1,31,left,31,diamond,1.156,0,0
1 1b,2,1,153,left,31,diamond,0.736,0,0
1 1b,2,1,334,left,31,diamond,0.537,0,0
1 1b,2,1,185,right,31,diamond,0.597,1,0
1 1b,2,1,530,right,31,diamond,0.947,1,0
1 1b,2,1,59,right,31,diamond,0.575,1,0
1 1b,2,1,39,left,0,orange,0.438,0,0
1 1b,2,1,460,right,0,orange,0.76,1,0
1 1b,2,1,539,left,0,orange,0.452,0,0
1 1b,2,1,533,right,0,orange,0.364,1,0
1 1b,2,1,400,left,0,orange,0.724,0,0
1 1b,2,1,635,right,0,orange,0.39,1,0
1 1b,2,1,370,left,0,triangle,0.353,0,0
1 1b,2,1,401,left,0,triangle,0.368,0,0
1 1b,2,1,111,right,0,triangle,0.396,1,0
1 1b,2,1,533,right,0,triangle,0.364,1,0
1 1b,2,1,257,left,0,triangle,0.594,0,0
1 1b,2,1,397,left,0,triangle,0.409,0,0
1 1b,2,1,146,left,1,triangle,0.798,0,0
1 1b,2,1,108,right,1,triangle,0.587,1,0
1 1b,2,1,96,left,1,triangle,0.463,0,0
1 1b,2,1,24,right,1,triangle,0.605,1,0
1 1b,2,1,331,left,1,triangle,0.443,0,0
1 1b,2,1,294,right,1,triangle,0.551,1,0
1 1b,2,1,607,right,4,triangle,0.678,1,0
1 1b,2,1,519,right,4,triangle,0.432,1,0
1 1b,2,1,410,right,4,triangle,0.716,1,0
1 1b,2,1,157,left,4,triangle,0.819,0,0
1 1b,2,1,474,left,4,triangle,0.655,0,0
1 1b,2,1,233,right,4,triangle,0.601,1,0
1 1b,2,1,345,left,9,triangle,0.482,0,0
1 1b,2,1,602,left,9,triangle,0.588,0,0
1 1b,2,1,587,left,9,triangle,1.335,0,0
1 1b,2,1,449,left,9,triangle,0.712,0,0
1 1b,2,1,636,left,9,triangle,0.411,0,0
1 1b,2,1,598,right,9,triangle,0.759,1,0
1 1b,2,1,547,left,19,triangle,0.637,0,0
1 1b,2,1,313,right,19,triangle,0.658,1,0
1 1b,2,1,355,left,19,triangle,0.595,0,0
1 1b,2,1,580,left,19,triangle,0.501,0,0
1 1b,2,1,114,right,19,triangle,0.453,1,0
1 1b,2,1,311,left,19,triangle,0.631,0,0
1 1b,2,1,178,left,31,triangle,0.894,0,0
1 1b,2,1,337,right,31,triangle,1.52,1,0
1 1b,2,1,333,left,31,triangle,0.868,0,0
1 1b,2,1,455,left,31,triangle,0.678,0,0
1 1b,2,1,381,left,31,triangle,1.167,0,0
1 1b,2,1,497,right,31,triangle,0.668,1,0
1 1b,2,1,539,left,0,yellow,0.452,0,0
1 1b,2,1,232,left,0,yellow,0.537,0,0
1 1b,2,1,400,left,0,yellow,0.724,0,0
1 1b,2,1,58,left,0,yellow,0.411,0,0
1 1b,2,1,635,right,0,yellow,0.39,1,0
1 1b,2,1,30,right,0,yellow,0.551,1,0
1 2a,12,2,79,right,0,blue circle,0.564,1,0
1 2a,12,2,257,right,0,blue circle,0.387,1,0
1 2a,12,2,325,left,0,blue circle,0.523,0,0
1 2a,12,2,287,left,0,blue circle,0.499,0,0
1 2a,12,2,313,left,0,blue circle,0.492,0,0
1 2a,12,2,122,right,0,blue circle,0.413,1,0
1 2a,12,2,66,right,1,blue circle,0.624,1,0
1 2a,12,2,344,right,1,blue circle,0.601,1,0
1 2a,12,2,136,left,1,blue circle,0.578,0,0
1 2a,12,2,359,left,1,blue circle,0.604,0,0
1 2a,12,2,265,left,1,blue circle,0.474,0,0
1 2a,12,2,451,left,1,blue circle,0.597,0,0
1 2a,12,2,502,right,4,blue circle,0.467,1,0
1 2a,12,2,27,left,4,blue circle,0.616,0,0
1 2a,12,2,606,left,4,blue circle,0.388,0,0
1 2a,12,2,248,right,4,blue circle,0.44,1,0
1 2a,12,2,211,left,4,blue circle,0.406,0,0
1 2a,12,2,385,left,4,blue circle,0.41,0,0
1 2a,12,2,119,right,9,blue circle,0.48,1,0
1 2a,12,2,118,right,9,blue circle,0.52,1,0
1 2a,12,2,510,right,9,blue circle,0.493,1,0
1 2a,12,2,212,left,9,blue circle,0.44,0,0
1 2a,12,2,550,left,9,blue circle,0.437,0,0
1 2a,12,2,193,right,9,blue circle,0.829,1,0
1 2a,12,2,48,left,19,blue circle,0.552,0,0
1 2a,12,2,512,right,19,blue circle,0.49,1,0
1 2a,12,2,264,right,19,blue circle,0.405,1,0
1 2a,12,2,53,left,19,blue circle,0.554,0,0
1 2a,12,2,232,right,19,blue circle,0.491,1,0
1 2a,12,2,640,left,19,blue circle,0.518,0,0
1 2a,12,2,565,left,31,blue circle,0.507,0,0
1 2a,12,2,262,left,31,blue circle,0.786,0,0
1 2a,12,2,432,left,31,blue circle,0.659,0,0
1 2a,12,2,291,right,31,blue circle,0.547,1,0
1 2a,12,2,162,left,31,blue circle,0.565,0,0
1 2a,12,2,108,right,31,blue circle,0.642,1,0
1 2a,12,2,158,left,0,blue diamond,0.653,0,0
1 2a,12,2,180,right,0,blue diamond,0.339,1,0
1 2a,12,2,257,right,0,blue diamond,0.387,1,0
1 2a,12,2,3,left,0,blue diamond,0.463,0,0
1 2a,12,2,552,left,0,blue diamond,0.403,0,0
1 2a,12,2,215,right,0,blue diamond,0.349,1,0
1 2a,12,2,202,left,0,blue triangle,0.402,0,0
1 2a,12,2,79,right,0,blue triangle,0.564,1,0
1 2a,12,2,287,left,0,blue triangle,0.499,0,0
1 2a,12,2,552,left,0,blue triangle,0.403,0,0
1 2a,12,2,122,right,0,blue triangle,0.413,1,0
1 2a,12,2,302,right,0,blue triangle,0.398,1,0
1 2a,12,2,125,right,0,orange circle,0.357,1,0
1 2a,12,2,287,left,0,orange circle,0.499,0,0
1 2a,12,2,552,left,0,orange circle,0.403,0,0
1 2a,12,2,276,right,0,orange circle,0.456,1,0
1 2a,12,2,306,left,0,orange circle,0.48,0,0
1 2a,12,2,630,left,0,orange circle,0.504,0,0
1 2a,12,2,79,right,0,orange diamond,0.564,1,0
1 2a,12,2,21,right,0,orange diamond,0.483,1,0
1 2a,12,2,302,right,0,orange diamond,0.398,1,0
1 2a,12,2,494,right,0,orange diamond,0.411,1,0
1 2a,12,2,442,left,0,orange diamond,0.434,0,0
1 2a,12,2,639,left,0,orange diamond,0.357,0,0
1 2a,12,2,425,left,1,orange diamond,0.432,0,0
1 2a,12,2,18,left,1,orange diamond,0.492,0,0
1 2a,12,2,594,left,1,orange diamond,0.416,0,0
1 2a,12,2,172,right,1,orange diamond,0.394,1,0
1 2a,12,2,390,left,1,orange diamond,0.466,0,0
1 2a,12,2,539,right,1,orange diamond,0.41,1,0
1 2a,12,2,41,right,4,orange diamond,0.569,1,0
1 2a,12,2,36,left,4,orange diamond,0.472,0,0
1 2a,12,2,102,right,4,orange diamond,0.482,1,0
1 2a,12,2,254,left,4,orange diamond,0.433,0,0
1 2a,12,2,489,right,4,orange diamond,0.545,1,0
1 2a,12,2,39,right,4,orange diamond,0.412,1,0
1 2a,12,2,245,left,9,orange diamond,0.554,0,0
1 2a,12,2,570,left,9,orange diamond,0.354,0,0
1 2a,12,2,405,left,9,orange diamond,0.507,0,0
1 2a,12,2,416,right,9,orange diamond,0.441,1,0
1 2a,12,2,474,left,9,orange diamond,0.373,0,0
1 2a,12,2,297,right,9,orange diamond,0.535,1,0
1 2a,12,2,56,left,19,orange diamond,0.58,0,0
1 2a,12,2,206,right,19,orange diamond,0.524,1,0
1 2a,12,2,367,right,19,orange diamond,0.497,1,0
1 2a,12,2,110,right,19,orange diamond,0.606,1,0
1 2a,12,2,580,right,19,orange diamond,0.354,1,0
1 2a,12,2,235,left,19,orange diamond,0.418,0,0
1 2a,12,2,447,left,31,orange diamond,0.457,0,0
1 2a,12,2,365,right,31,orange diamond,0.709,1,0
1 2a,12,2,497,right,31,orange diamond,0.48,1,0
1 2a,12,2,381,right,31,orange diamond,0.488,1,0
1 2a,12,2,518,left,31,orange diamond,0.371,0,0
1 2a,12,2,72,left,31,orange diamond,0.592,0,0
1 2a,12,2,21,right,0,orange triangle,0.483,1,0
1 2a,12,2,325,left,0,orange triangle,0.523,0,0
1 2a,12,2,546,left,0,orange triangle,0.366,0,0
1 2a,12,2,219,left,0,orange triangle,0.459,0,0
1 2a,12,2,299,left,0,orange triangle,0.427,0,0
1 2a,12,2,125,right,0,orange triangle,0.357,1,0
1 2a,12,2,122,right,0,yellow circle,0.413,1,0
1 2a,12,2,494,right,0,yellow circle,0.411,1,0
1 2a,12,2,306,left,0,yellow circle,0.48,0,0
1 2a,12,2,325,left,0,yellow circle,0.523,0,0
1 2a,12,2,313,left,0,yellow circle,0.492,0,0
1 2a,12,2,202,left,0,yellow circle,0.402,0,0
1 2a,12,2,632,left,0,yellow diamond,0.377,0,0
1 2a,12,2,190,right,0,yellow diamond,0.453,1,0
1 2a,12,2,125,right,0,yellow diamond,0.357,1,0
1 2a,12,2,170,right,0,yellow diamond,0.381,1,0
1 2a,12,2,215,right,0,yellow diamond,0.349,1,0
1 2a,12,2,231,right,0,yellow diamond,0.443,1,0
1 2a,12,2,190,right,0,yellow triangle,0.453,1,0
1 2a,12,2,494,right,0,yellow triangle,0.411,1,0
1 2a,12,2,639,left,0,yellow triangle,0.357,0,0
1 2a,12,2,299,left,0,yellow triangle,0.427,0,0
1 2a,12,2,219,left,0,yellow triangle,0.459,0,0
1 2a,12,2,488,right,0,yellow triangle,0.374,1,0
1 2a,12,2,386,right,1,yellow triangle,0.606,1,0
1 2a,12,2,179,right,1,yellow triangle,0.558,1,0
1 2a,12,2,64,right,1,yellow triangle,0.841,1,0
1 2a,12,2,150,left,1,yellow triangle,0.491,0,0
1 2a,12,2,236,left,1,yellow triangle,0.463,0,0
1 2a,12,2,196,left,1,yellow triangle,0.727,0,0
1 2a,12,2,619,right,4,yellow triangle,0.471,1,0
1 2a,12,2,141,right,4,yellow triangle,0.523,1,0
1 2a,12,2,244,left,4,yellow triangle,0.483,0,0
1 2a,12,2,412,left,4,yellow triangle,0.396,0,0
1 2a,12,2,133,right,4,yellow triangle,0.511,1,0
1 2a,12,2,296,left,4,yellow triangle,0.544,0,0
1 2a,12,2,420,left,9,yellow triangle,0.66,0,0
1 2a,12,2,429,left,9,yellow triangle,0.449,0,0
1 2a,12,2,34,left,9,yellow triangle,0.48,0,0
1 2a,12,2,217,left,9,yellow triangle,0.684,0,0
1 2a,12,2,348,right,9,yellow triangle,0.463,1,0
1 2a,12,2,300,left,9,yellow triangle,0.566,0,0
1 2a,12,2,615,right,19,yellow triangle,0.447,1,0
1 2a,12,2,373,right,19,yellow triangle,0.481,1,0
1 2a,12,2,479,left,19,yellow triangle,0.457,0,0
1 2a,12,2,294,right,19,yellow triangle,0.494,1,0
1 2a,12,2,602,left,19,yellow triangle,0.424,0,0
1 2a,12,2,218,left,19,yellow triangle,0.511,0,0
1 2a,12,2,189,right,31,yellow triangle,0.663,1,0
1 2a,12,2,534,right,31,yellow triangle,0.559,1,0
1 2a,12,2,241,right,31,yellow triangle,0.569,1,0
1 2a,12,2,186,left,31,yellow triangle,0.432,0,0
1 2a,12,2,380,left,31,yellow triangle,0.496,0,0
1 2a,12,2,470,left,31,yellow triangle,0.462,0,0
1 2b,15,2,343,left,0,blue circle,0.532,0,0
1 2b,15,2,4,right,0,blue circle,0.393,1,0
1 2b,15,2,448,left,0,blue circle,0.384,0,0
1 2b,15,2,274,left,0,blue circle,1.369,0,0
1 2b,15,2,328,left,0,blue circle,0.478,0,0
1 2b,15,2,457,left,0,blue circle,0.436,0,0
1 2b,15,2,544,right,0,blue diamond,0.343,1,0
1 2b,15,2,278,left,0,blue diamond,0.616,0,0
1 2b,15,2,330,right,0,blue diamond,0.514,1,0
1 2b,15,2,86,left,0,blue diamond,0.482,0,0
1 2b,15,2,21,left,0,blue diamond,0.531,0,0
1 2b,15,2,501,left,0,blue diamond,0.462,0,0
1 2b,15,2,285,right,0,blue triangle,0.782,1,0
1 2b,15,2,330,right,0,blue triangle,0.514,1,0
1 2b,15,2,432,right,0,blue triangle,0.501,1,0
1 2b,15,2,278,left,0,blue triangle,0.616,0,0
1 2b,15,2,273,right,0,blue triangle,0.464,1,0
1 2b,15,2,563,left,0,blue triangle,0.435,0,0
1 2b,15,2,308,right,1,blue triangle,0.635,1,0
1 2b,15,2,418,left,1,blue triangle,0.615,0,0
1 2b,15,2,11,right,1,blue triangle,0.52,1,0
1 2b,15,2,331,right,1,blue triangle,0.758,1,0
1 2b,15,2,625,left,1,blue triangle,0.492,0,0
1 2b,15,2,507,left,1,blue triangle,0.398,0,0
1 2b,15,2,407,right,4,blue triangle,0.755,1,0
1 2b,15,2,528,right,4,blue triangle,0.487,1,0
1 2b,15,2,30,right,4,blue triangle,0.709,1,0
1 2b,15,2,312,left,4,blue triangle,0.783,0,0
1 2b,15,2,122,left,4,blue triangle,0.541,0,0
1 2b,15,2,351,left,4,blue triangle,0.947,0,0
1 2b,15,2,82,right,9,blue triangle,0.788,1,0
1 2b,15,2,143,right,9,blue triangle,0.802,1,0
1 2b,15,2,152,left,9,blue triangle,0.602,0,0
1 2b,15,2,292,right,9,blue triangle,0.705,1,0
1 2b,15,2,157,left,9,blue triangle,0.521,0,0
1 2b,15,2,317,right,9,blue triangle,1.041,1,0
1 2b,15,2,309,left,19,blue triangle,0.734,0,0
1 2b,15,2,583,left,19,blue triangle,0.509,0,0
1 2b,15,2,193,right,19,blue triangle,0.665,1,0
1 2b,15,2,65,right,19,blue triangle,0.708,1,0
1 2b,15,2,161,left,19,blue triangle,0.959,0,0
1 2b,15,2,205,right,19,blue triangle,0.463,1,0
1 2b,15,2,340,left,31,blue triangle,0.648,0,0
1 2b,15,2,199,left,31,blue triangle,0.612,0,0
1 2b,15,2,290,left,31,blue triangle,0.621,0,0
1 2b,15,2,514,right,31,blue triangle,1.043,1,0
1 2b,15,2,42,right,31,blue triangle,0.662,1,0
1 2b,15,2,209,left,31,blue triangle,0.62,0,0
1 2b,15,2,189,left,0,orange circle,0.565,0,0
1 2b,15,2,568,left,0,orange circle,0.414,0,0
1 2b,15,2,330,right,0,orange circle,0.514,1,0
1 2b,15,2,273,right,0,orange circle,0.464,1,0
1 2b,15,2,328,left,0,orange circle,0.478,0,0
1 2b,15,2,544,right,0,orange circle,0.343,1,0
1 2b,15,2,135,right,1,orange circle,0.428,1,0
1 2b,15,2,553,left,1,orange circle,0.442,0,0
1 2b,15,2,440,right,1,orange circle,0.685,1,0
1 2b,15,2,560,left,1,orange circle,0.415,0,0
1 2b,15,2,376,right,1,orange circle,0.433,1,0
1 2b,15,2,602,left,1,orange circle,0.387,0,0
1 2b,15,2,107,left,4,orange circle,0.724,0,0
1 2b,15,2,383,right,4,orange circle,0.753,1,0
1 2b,15,2,99,right,4,orange circle,0.581,1,0
1 2b,15,2,147,right,4,orange circle,0.415,1,0
1 2b,15,2,56,right,4,orange circle,0.561,1,0
1 2b,15,2,542,left,4,orange circle,0.396,0,0
1 2b,15,2,416,right,9,orange circle,0.53,1,0
1 2b,15,2,167,left,9,orange circle,0.623,0,0
1 2b,15,2,582,right,9,orange circle,0.469,1,0
1 2b,15,2,101,right,9,orange circle,1.016,1,0
1 2b,15,2,200,left,9,orange circle,0.414,0,0
1 2b,15,2,222,right,9,orange circle,0.567,1,0
1 2b,15,2,239,left,19,orange circle,0.664,0,0
1 2b,15,2,283,right,19,orange circle,0.493,1,0
1 2b,15,2,281,right,19,orange circle,0.571,1,0
1 2b,15,2,8,left,19,orange circle,0.692,0,0
1 2b,15,2,348,right,19,orange circle,0.605,1,0
1 2b,15,2,190,left,19,orange circle,0.612,0,0
1 2b,15,2,523,right,31,orange circle,0.39,1,0
1 2b,15,2,225,left,31,orange circle,0.439,0,0
1 2b,15,2,551,right,31,orange circle,0.493,1,0
1 2b,15,2,123,left,31,orange circle,0.648,0,0
1 2b,15,2,12,right,31,orange circle,0.452,1,0
1 2b,15,2,131,right,31,orange circle,0.55,1,0
1 2b,15,2,343,left,0,orange diamond,0.532,0,0
1 2b,15,2,315,right,0,orange diamond,0.46,1,0
1 2b,15,2,21,left,0,orange diamond,0.531,0,0
1 2b,15,2,218,left,0,orange diamond,0.487,0,0
1 2b,15,2,568,left,0,orange diamond,0.414,0,0
1 2b,15,2,538,right,0,orange diamond,0.64,1,0
1 2b,15,2,104,left,0,orange triangle,0.372,0,0
1 2b,15,2,164,right,0,orange triangle,0.383,1,0
1 2b,15,2,311,left,0,orange triangle,0.58,0,0
1 2b,15,2,432,right,0,orange triangle,0.501,1,0
1 2b,15,2,496,left,0,orange triangle,0.537,0,0
1 2b,15,2,218,left,0,orange triangle,0.487,0,0
1 2b,15,2,315,right,0,yellow circle,0.46,1,0
1 2b,15,2,628,right,0,yellow circle,0.631,1,0
1 2b,15,2,9,right,0,yellow circle,0.413,1,0
1 2b,15,2,457,left,0,yellow circle,0.436,0,0
1 2b,15,2,52,right,0,yellow circle,0.633,1,0
1 2b,15,2,448,left,0,yellow circle,0.384,0,0
1 2b,15,2,120,right,0,yellow diamond,0.58,1,0
1 2b,15,2,104,left,0,yellow diamond,0.372,0,0
1 2b,15,2,274,left,0,yellow diamond,1.369,0,0
1 2b,15,2,102,left,0,yellow diamond,0.535,0,0
1 2b,15,2,273,right,0,yellow diamond,0.464,1,0
1 2b,15,2,218,left,0,yellow diamond,0.487,0,0
1 2b,15,2,366,right,1,yellow diamond,0.456,1,0
1 2b,15,2,15,left,1,yellow diamond,0.504,0,0
1 2b,15,2,473,right,1,yellow diamond,0.351,1,0
1 2b,15,2,72,left,1,yellow diamond,0.825,0,0
1 2b,15,2,247,left,1,yellow diamond,0.732,0,0
1 2b,15,2,530,left,1,yellow diamond,0.513,0,0
1 2b,15,2,293,right,4,yellow diamond,0.488,1,0
1 2b,15,2,44,right,4,yellow diamond,0.584,1,0
1 2b,15,2,464,right,4,yellow diamond,0.498,1,0
1 2b,15,2,429,right,4,yellow diamond,0.523,1,0
1 2b,15,2,106,right,4,yellow diamond,0.703,1,0
1 2b,15,2,446,right,4,yellow diamond,0.456,1,0
1 2b,15,2,287,left,9,yellow diamond,0.601,0,0
1 2b,15,2,6,right,9,yellow diamond,0.367,1,0
1 2b,15,2,470,right,9,yellow diamond,0.491,1,0
1 2b,15,2,54,right,9,yellow diamond,0.53,1,0
1 2b,15,2,401,right,9,yellow diamond,0.546,1,0
1 2b,15,2,67,right,9,yellow diamond,0.55,1,0
1 2b,15,2,392,right,19,yellow diamond,0.599,1,0
1 2b,15,2,3,right,19,yellow diamond,0.445,1,0
1 2b,15,2,148,right,19,yellow diamond,0.496,1,0
1 2b,15,2,379,left,19,yellow diamond,0.558,0,0
1 2b,15,2,389,right,19,yellow diamond,1.543,1,0
1 2b,15,2,169,right,19,yellow diamond,0.626,1,0
1 2b,15,2,24,right,31,yellow diamond,0.711,1,0
1 2b,15,2,518,right,31,yellow diamond,0.42,1,0
1 2b,15,2,7,right,31,yellow diamond,0.575,1,0
1 2b,15,2,165,left,31,yellow diamond,0.633,0,0
1 2b,15,2,306,right,31,yellow diamond,0.566,1,0
1 2b,15,2,299,left,31,yellow diamond,0.583,0,0
1 2b,15,2,538,right,0,yellow triangle,0.64,1,0
1 2b,15,2,104,left,0,yellow triangle,0.372,0,0
1 2b,15,2,563,left,0,yellow triangle,0.435,0,0
1 2b,15,2,21,left,0,yellow triangle,0.531,0,0
1 2b,15,2,189,left,0,yellow triangle,0.565,0,0
1 2b,15,2,52,right,0,yellow triangle,0.633,1,0
1 2c,8,2,573,right,0,blue circle,0.557,1,0
1 2c,8,2,473,right,0,blue circle,0.418,1,0
1 2c,8,2,598,left,0,blue circle,0.483,0,0
1 2c,8,2,432,right,0,blue circle,0.66,1,0
1 2c,8,2,194,left,0,blue circle,0.577,0,0
1 2c,8,2,466,right,0,blue circle,0.418,1,0
1 2c,8,2,473,right,0,blue diamond,0.418,1,0
1 2c,8,2,537,right,0,blue diamond,0.646,1,0
1 2c,8,2,591,left,0,blue diamond,0.469,0,0
1 2c,8,2,194,left,0,blue diamond,0.577,0,0
1 2c,8,2,411,left,0,blue diamond,0.474,0,0
1 2c,8,2,444,left,0,blue diamond,0.403,0,0
1 2c,8,2,628,right,1,blue diamond,0.679,1,0
1 2c,8,2,275,right,1,blue diamond,0.572,1,0
1 2c,8,2,14,left,1,blue diamond,0.498,0,0
1 2c,8,2,203,left,1,blue diamond,0.49,0,0
1 2c,8,2,397,right,1,blue diamond,0.584,1,0
1 2c,8,2,555,left,1,blue diamond,0.559,0,0
1 2c,8,2,287,left,4,blue diamond,0.635,0,0
1 2c,8,2,245,left,4,blue diamond,0.93,0,0
1 2c,8,2,289,left,4,blue diamond,0.972,0,0
1 2c,8,2,257,left,4,blue diamond,0.607,0,0
1 2c,8,2,184,right,4,blue diamond,1.061,1,0
1 2c,8,2,7,right,4,blue diamond,0.525,1,0
1 2c,8,2,608,left,9,blue diamond,0.489,0,0
1 2c,8,2,495,right,9,blue diamond,0.496,1,0
1 2c,8,2,142,left,9,blue diamond,0.64,0,0
1 2c,8,2,308,right,9,blue diamond,0.457,1,0
1 2c,8,2,387,left,9,blue diamond,0.478,0,0
1 2c,8,2,300,right,9,blue diamond,0.408,1,0
1 2c,8,2,254,left,19,blue diamond,1.518,0,0
1 2c,8,2,551,left,19,blue diamond,0.607,0,0
1 2c,8,2,192,left,19,blue diamond,0.721,0,0
1 2c,8,2,273,right,19,blue diamond,0.89,1,0
1 2c,8,2,502,right,19,blue diamond,0.738,1,0
1 2c,8,2,92,left,19,blue diamond,0.637,0,0
1 2c,8,2,46,right,31,blue diamond,0.489,1,0
1 2c,8,2,201,right,31,blue diamond,0.948,1,0
1 2c,8,2,410,right,31,blue diamond,0.819,1,0
1 2c,8,2,268,left,31,blue diamond,0.644,0,0
1 2c,8,2,102,right,31,blue diamond,0.649,1,0
1 2c,8,2,619,right,31,blue diamond,0.727,1,0
1 2c,8,2,573,right,0,blue triangle,0.557,1,0
1 2c,8,2,581,left,0,blue triangle,0.392,0,0
1 2c,8,2,94,right,0,blue triangle,0.556,1,0
1 2c,8,2,377,left,0,blue triangle,0.585,0,0
1 2c,8,2,510,left,0,blue triangle,0.568,0,0
1 2c,8,2,465,left,0,blue triangle,0.656,0,0
1 2c,8,2,31,right,0,orange circle,0.535,1,0
1 2c,8,2,497,left,0,orange circle,0.694,0,0
1 2c,8,2,444,left,0,orange circle,0.403,0,0
1 2c,8,2,483,right,0,orange circle,1.152,1,0
1 2c,8,2,576,right,0,orange circle,0.492,1,0
1 2c,8,2,296,right,0,orange circle,0.446,1,0
1 2c,8,2,147,right,0,orange diamond,0.452,1,0
1 2c,8,2,94,right,0,orange diamond,0.556,1,0
1 2c,8,2,261,left,0,orange diamond,0.625,0,0
1 2c,8,2,1,left,0,orange diamond,0.526,0,0
1 2c,8,2,411,left,0,orange diamond,0.474,0,0
1 2c,8,2,483,right,0,orange diamond,1.152,1,0
1 2c,8,2,591,left,0,orange triangle,0.469,0,0
1 2c,8,2,497,left,0,orange triangle,0.694,0,0
1 2c,8,2,284,left,0,orange triangle,0.599,0,0
1 2c,8,2,177,left,0,orange triangle,0.553,0,0
1 2c,8,2,377,left,0,orange triangle,0.585,0,0
1 2c,8,2,635,right,0,orange triangle,0.382,1,0
1 2c,8,2,304,left,1,orange triangle,0.399,0,0
1 2c,8,2,55,left,1,orange triangle,0.529,0,0
1 2c,8,2,430,left,1,orange triangle,0.418,0,0
1 2c,8,2,418,left,1,orange triangle,0.549,0,0
1 2c,8,2,346,right,1,orange triangle,0.481,1,0
1 2c,8,2,617,left,1,orange triangle,0.737,0,0
1 2c,8,2,464,right,4,orange triangle,0.765,1,0
1 2c,8,2,373,right,4,orange triangle,0.432,1,0
1 2c,8,2,106,right,4,orange triangle,0.509,1,0
1 2c,8,2,476,left,4,orange triangle,0.895,0,0
1 2c,8,2,532,right,4,orange triangle,0.571,1,0
1 2c,8,2,290,right,4,orange triangle,0.486,1,0
1 2c,8,2,299,right,9,orange triangle,0.372,1,0
1 2c,8,2,423,right,9,orange triangle,0.398,1,0
1 2c,8,2,52,right,9,orange triangle,0.614,1,0
1 2c,8,2,288,left,9,orange triangle,0.735,0,0
1 2c,8,2,213,right,9,orange triangle,0.458,1,0
1 2c,8,2,73,left,9,orange triangle,0.853,0,0
1 2c,8,2,562,right,19,orange triangle,0.714,1,0
1 2c,8,2,342,left,19,orange triangle,0.639,0,0
1 2c,8,2,279,right,19,orange triangle,0.513,1,0
1 2c,8,2,312,left,19,orange triangle,0.703,0,0
1 2c,8,2,513,right,19,orange triangle,0.582,1,0
1 2c,8,2,96,right,19,orange triangle,0.387,1,0
1 2c,8,2,440,left,31,orange triangle,0.921,0,0
1 2c,8,2,285,right,31,orange triangle,0.683,1,0
1 2c,8,2,104,left,31,orange triangle,0.608,0,0
1 2c,8,2,481,left,31,orange triangle,1.083,0,0
1 2c,8,2,128,right,31,orange triangle,0.601,1,0
1 2c,8,2,409,right,31,orange triangle,0.579,1,0
1 2c,8,2,465,left,0,yellow circle,0.656,0,0
1 2c,8,2,83,right,0,yellow circle,0.418,1,0
1 2c,8,2,466,right,0,yellow circle,0.418,1,0
1 2c,8,2,510,left,0,yellow circle,0.568,0,0
1 2c,8,2,177,left,0,yellow circle,0.553,0,0
1 2c,8,2,432,right,0,yellow circle,0.66,1,0
1 2c,8,2,115,left,1,yellow circle,0.487,0,0
1 2c,8,2,544,left,1,yellow circle,0.62,0,0
1 2c,8,2,421,left,1,yellow circle,0.391,0,0
1 2c,8,2,116,right,1,yellow circle,0.528,1,0
1 2c,8,2,67,right,1,yellow circle,0.348,1,0
1 2c,8,2,238,right,1,yellow circle,0.549,1,0
1 2c,8,2,167,left,4,yellow circle,0.633,0,0
1 2c,8,2,332,left,4,yellow circle,0.504,0,0
1 2c,8,2,494,left,4,yellow circle,0.476,0,0
1 2c,8,2,538,left,4,yellow circle,0.711,0,0
1 2c,8,2,207,left,4,yellow circle,0.557,0,0
1 2c,8,2,624,right,4,yellow circle,0.584,1,0
1 2c,8,2,471,right,9,yellow circle,0.505,1,0
1 2c,8,2,259,right,9,yellow circle,0.542,1,0
1 2c,8,2,138,left,9,yellow circle,0.48,0,0
1 2c,8,2,151,right,9,yellow circle,1.333,1,0
1 2c,8,2,228,left,9,yellow circle,0.525,0,0
1 2c,8,2,524,left,9,yellow circle,0.416,0,0
1 2c,8,2,105,right,19,yellow circle,0.493,1,0
1 2c,8,2,606,right,19,yellow circle,0.75,1,0
1 2c,8,2,220,left,19,yellow circle,0.651,0,0
1 2c,8,2,425,left,19,yellow circle,0.581,0,0
1 2c,8,2,426,left,19,yellow circle,0.45,0,0
1 2c,8,2,265,right,19,yellow circle,0.577,1,0
1 2c,8,2,233,right,31,yellow circle,0.537,1,0
1 2c,8,2,478,left,31,yellow circle,0.628,0,0
1 2c,8,2,109,right,31,yellow circle,0.647,1,0
1 2c,8,2,50,right,31,yellow circle,0.885,1,0
1 2c,8,2,381,left,31,yellow circle,0.49,0,0
1 2c,8,2,572,left,31,yellow circle,0.6,0,0
1 2c,8,2,573,right,0,yellow diamond,0.557,1,0
1 2c,8,2,465,left,0,yellow diamond,0.656,0,0
1 2c,8,2,625,right,0,yellow diamond,0.577,1,0
1 2c,8,2,1,left,0,yellow diamond,0.526,0,0
1 2c,8,2,483,right,0,yellow diamond,1.152,1,0
1 2c,8,2,194,left,0,yellow diamond,0.577,0,0
1 2c,8,2,97,left,0,yellow triangle,0.385,0,0
1 2c,8,2,483,right,0,yellow triangle,1.152,1,0
1 2c,8,2,537,right,0,yellow triangle,0.646,1,0
1 2c,8,2,139,left,0,yellow triangle,0.473,0,0
1 2c,8,2,497,left,0,yellow triangle,0.694,0,0
1 2c,8,2,1,left,0,yellow triangle,0.526,0,0
1 3a,12,3,591,left,0,blue,0.401,0,0
1 3a,12,3,289,right,0,blue,0.397,1,0
1 3a,12,3,542,right,0,blue,0.491,1,0
1 3a,12,3,188,left,0,blue,0.524,0,0
1 3a,12,3,385,left,0,blue,0.649,0,0
1 3a,12,3,111,left,0,blue,0.46,0,0
1 3a,12,3,622,right,1,blue,0.515,1,0
1 3a,12,3,47,left,1,blue,0.415,0,0
1 3a,12,3,256,right,1,blue,0.59,1,0
1 3a,12,3,263,left,1,blue,0.376,0,0
1 3a,12,3,193,right,1,blue,0.468,1,0
1 3a,12,3,534,left,1,blue,0.471,0,0
1 3a,12,3,606,left,4,blue,0.508,0,0
1 3a,12,3,241,right,4,blue,0.551,1,0
1 3a,12,3,487,right,4,blue,0.413,1,0
1 3a,12,3,190,right,4,blue,0.417,1,0
1 3a,12,3,206,right,4,blue,0.555,1,0
1 3a,12,3,261,left,4,blue,0.657,0,0
1 3a,12,3,100,left,9,blue,0.645,0,0
1 3a,12,3,378,right,9,blue,0.465,1,0
1 3a,12,3,494,left,9,blue,0.402,0,0
1 3a,12,3,185,left,9,blue,0.529,0,0
1 3a,12,3,73,right,9,blue,0.647,1,0
1 3a,12,3,3,left,9,blue,0.421,0,0
1 3a,12,3,358,left,19,blue,0.506,0,0
1 3a,12,3,171,right,19,blue,0.582,1,0
1 3a,12,3,318,left,19,blue,0.458,0,0
1 3a,12,3,259,left,19,blue,0.505,0,0
1 3a,12,3,301,left,19,blue,0.598,0,0
1 3a,12,3,214,right,19,blue,0.437,1,0
1 3a,12,3,154,left,31,blue,0.565,0,0
1 3a,12,3,596,left,31,blue,0.532,0,0
1 3a,12,3,466,right,31,blue,0.515,1,0
1 3a,12,3,30,left,31,blue,0.673,0,0
1 3a,12,3,414,left,31,blue,0.497,0,0
1 3a,12,3,346,left,31,blue,0.417,0,0
1 3a,12,3,580,left,0,circle,0.444,0,0
1 3a,12,3,141,left,0,circle,0.677,0,0
1 3a,12,3,28,left,0,circle,0.406,0,0
1 3a,12,3,385,left,0,circle,0.649,0,0
1 3a,12,3,205,right,0,circle,0.35,1,0
1 3a,12,3,437,right,0,circle,0.356,1,0
1 3a,12,3,587,right,0,diamond,0.457,1,0
1 3a,12,3,205,right,0,diamond,0.35,1,0
1 3a,12,3,490,left,0,diamond,0.344,0,0
1 3a,12,3,544,left,0,diamond,0.431,0,0
1 3a,12,3,471,right,0,diamond,0.518,1,0
1 3a,12,3,437,right,0,diamond,0.356,1,0
1 3a,12,3,289,right,0,orange,0.397,1,0
1 3a,12,3,591,left,0,orange,0.401,0,0
1 3a,12,3,385,left,0,orange,0.649,0,0
1 3a,12,3,399,left,0,orange,0.39,0,0
1 3a,12,3,306,right,0,orange,0.398,1,0
1 3a,12,3,605,right,0,orange,0.417,1,0
1 3a,12,3,379,right,1,orange,0.404,1,0
1 3a,12,3,230,right,1,orange,0.448,1,0
1 3a,12,3,279,right,1,orange,0.628,1,0
1 3a,12,3,595,left,1,orange,0.519,0,0
1 3a,12,3,530,right,1,orange,0.472,1,0
1 3a,12,3,590,right,1,orange,0.471,1,0
1 3a,12,3,524,left,4,orange,0.645,0,0
1 3a,12,3,626,left,4,orange,0.488,0,0
1 3a,12,3,419,left,4,orange,0.453,0,0
1 3a,12,3,483,left,4,orange,0.406,0,0
1 3a,12,3,285,left,4,orange,0.532,0,0
1 3a,12,3,332,left,4,orange,0.378,0,0
1 3a,12,3,19,right,9,orange,0.473,1,0
1 3a,12,3,341,right,9,orange,0.518,1,0
1 3a,12,3,568,right,9,orange,0.559,1,0
1 3a,12,3,562,right,9,orange,0.419,1,0
1 3a,12,3,502,right,9,orange,0.412,1,0
1 3a,12,3,158,left,9,orange,1.095,0,0
1 3a,12,3,136,right,19,orange,0.564,1,0
1 3a,12,3,438,left,19,orange,0.651,0,0
1 3a,12,3,112,right,19,orange,0.528,1,0
1 3a,12,3,48,right,19,orange,0.688,1,0
1 3a,12,3,288,left,19,orange,0.426,0,0
1 3a,12,3,533,right,19,orange,0.536,1,0
1 3a,12,3,125,left,31,orange,0.471,0,0
1 3a,12,3,292,left,31,orange,0.407,0,0
1 3a,12,3,104,right,31,orange,0.635,1,0
1 3a,12,3,349,right,31,orange,0.405,1,0
1 3a,12,3,407,left,31,orange,0.551,0,0
1 3a,12,3,95,left,31,orange,0.502,0,0
1 3a,12,3,148,right,0,semicircle,0.602,1,0
1 3a,12,3,205,right,0,semicircle,0.35,1,0
1 3a,12,3,471,right,0,semicircle,0.518,1,0
1 3a,12,3,616,right,0,semicircle,0.416,1,0
1 3a,12,3,587,right,0,semicircle,0.457,1,0
1 3a,12,3,31,left,0,semicircle,0.408,0,0
1 3a,12,3,587,right,0,yellow,0.457,1,0
1 3a,12,3,399,left,0,yellow,0.39,0,0
1 3a,12,3,437,right,0,yellow,0.356,1,0
1 3a,12,3,544,left,0,yellow,0.431,0,0
1 3a,12,3,604,left,0,yellow,0.504,0,0
1 3a,12,3,306,right,0,yellow,0.398,1,0
1 3a,12,3,356,left,1,yellow,0.511,0,0
1 3a,12,3,192,right,1,yellow,0.443,1,0
1 3a,12,3,29,right,1,yellow,0.407,1,0
1 3a,12,3,635,right,1,yellow,0.722,1,0
1 3a,12,3,420,left,1,yellow,0.996,0,0
1 3a,12,3,22,left,1,yellow,0.371,0,0
1 3a,12,3,180,left,4,yellow,0.913,0,0
1 3a,12,3,461,left,4,yellow,0.456,0,0
1 3a,12,3,545,left,4,yellow,0.576,0,0
1 3a,12,3,423,left,4,yellow,0.371,0,0
1 3a,12,3,134,right,4,yellow,0.536,1,0
1 3a,12,3,331,right,4,yellow,0.52,1,0
1 3a,12,3,491,right,9,yellow,0.491,1,0
1 3a,12,3,479,left,9,yellow,0.616,0,0
1 3a,12,3,293,right,9,yellow,0.423,1,0
1 3a,12,3,593,left,9,yellow,0.63,0,0
1 3a,12,3,526,left,9,yellow,0.353,0,0
1 3a,12,3,398,left,9,yellow,0.62,0,0
1 3a,12,3,484,left,19,yellow,0.422,0,0
1 3a,12,3,138,left,19,yellow,0.59,0,0
1 3a,12,3,150,right,19,yellow,0.508,1,0
1 3a,12,3,549,right,19,yellow,0.753,1,0
1 3a,12,3,182,left,19,yellow,0.646,0,0
1 3a,12,3,519,right,19,yellow,0.435,1,0
1 3a,12,3,621,left,31,yellow,0.456,0,0
1 3a,12,3,338,right,31,yellow,0.471,1,0
1 3a,12,3,415,right,31,yellow,0.562,1,0
1 3a,12,3,93,left,31,yellow,0.861,0,0
1 3a,12,3,184,left,31,yellow,0.536,0,0
1 3a,12,3,565,right,31,yellow,0.525,1,0
1 3b,11,3,442,left,0,blue,0.501,0,0
1 3b,11,3,73,left,0,blue,0.406,0,0
1 3b,11,3,168,right,0,blue,0.497,1,0
1 3b,11,3,334,left,0,blue,0.452,0,0
1 3b,11,3,504,left,0,blue,0.42,0,0
1 3b,11,3,338,left,0,blue,0.432,0,0
1 3b,11,3,334,left,0,circle,0.452,0,0
1 3b,11,3,623,left,0,circle,0.578,0,0
1 3b,11,3,220,left,0,circle,0.533,0,0
1 3b,11,3,457,right,0,circle,0.4,1,0
1 3b,11,3,301,left,0,circle,0.41,0,0
1 3b,11,3,222,right,0,circle,0.568,1,0
1 3b,11,3,215,right,1,circle,0.615,1,0
1 3b,11,3,205,left,1,circle,0.467,0,0
1 3b,11,3,592,right,1,circle,0.37,1,0
1 3b,11,3,380,right,1,circle,0.352,1,0
1 3b,11,3,264,right,1,circle,0.496,1,0
1 3b,11,3,345,left,1,circle,0.554,0,0
1 3b,11,3,297,left,4,circle,0.5,0,0
1 3b,11,3,416,right,4,circle,0.399,1,0
1 3b,11,3,44,right,4,circle,0.527,1,0
1 3b,11,3,389,right,4,circle,0.382,1,0
1 3b,11,3,432,left,4,circle,0.668,0,0
1 3b,11,3,37,left,4,circle,0.468,0,0
1 3b,11,3,121,right,9,circle,0.507,1,0
1 3b,11,3,558,left,9,circle,0.443,0,0
1 3b,11,3,468,left,9,circle,0.451,0,0
1 3b,11,3,319,left,9,circle,0.439,0,0
1 3b,11,3,116,left,9,circle,0.539,0,0
1 3b,11,3,32,right,9,circle,0.493,1,0
1 3b,11,3,88,left,19,circle,0.469,0,0
1 3b,11,3,39,right,19,circle,0.597,1,0
1 3b,11,3,590,left,19,circle,0.764,0,0
1 3b,11,3,274,right,19,circle,0.423,1,0
1 3b,11,3,189,left,19,circle,0.498,0,0
1 3b,11,3,357,right,19,circle,0.374,1,0
1 3b,11,3,523,right,31,circle,0.525,1,0
1 3b,11,3,89,right,31,circle,0.568,1,0
1 3b,11,3,59,right,31,circle,0.605,1,0
1 3b,11,3,503,right,31,circle,0.494,1,0
1 3b,11,3,412,left,31,circle,0.63,0,0
1 3b,11,3,381,left,31,circle,0.453,0,0
1 3b,11,3,92,right,0,diamond,0.445,1,0
1 3b,11,3,442,left,0,diamond,0.501,0,0
1 3b,11,3,284,left,0,diamond,0.469,0,0
1 3b,11,3,377,right,0,diamond,0.5,1,0
1 3b,11,3,317,left,0,diamond,0.418,0,0
1 3b,11,3,440,right,0,diamond,0.443,1,0
1 3b,11,3,601,left,1,diamond,0.49,0,0
1 3b,11,3,606,left,1,diamond,0.346,0,0
1 3b,11,3,349,right,1,diamond,0.716,1,0
1 3b,11,3,42,left,1,diamond,0.441,0,0
1 3b,11,3,232,left,1,diamond,0.504,0,0
1 3b,11,3,413,left,1,diamond,0.499,0,0
1 3b,11,3,14,right,4,diamond,0.413,1,0
1 3b,11,3,61,left,4,diamond,0.464,0,0
1 3b,11,3,609,right,4,diamond,0.564,1,0
1 3b,11,3,449,right,4,diamond,0.513,1,0
1 3b,11,3,136,right,4,diamond,0.72,1,0
1 3b,11,3,102,left,4,diamond,0.457,0,0
1 3b,11,3,267,left,9,diamond,0.574,0,0
1 3b,11,3,144,right,9,diamond,0.468,1,0
1 3b,11,3,188,right,9,diamond,0.475,1,0
1 3b,11,3,462,right,9,diamond,0.444,1,0
1 3b,11,3,7,left,9,diamond,0.427,0,0
1 3b,11,3,397,left,9,diamond,0.49,0,0
1 3b,11,3,572,left,19,diamond,0.566,0,0
1 3b,11,3,128,right,19,diamond,0.786,1,0
1 3b,11,3,257,left,19,diamond,0.766,0,0
1 3b,11,3,476,right,19,diamond,0.507,1,0
1 3b,11,3,336,right,19,diamond,0.669,1,0
1 3b,11,3,271,left,19,diamond,0.455,0,0
1 3b,11,3,278,left,31,diamond,0.496,0,0
1 3b,11,3,628,left,31,diamond,0.562,0,0
1 3b,11,3,312,right,31,diamond,0.61,1,0
1 3b,11,3,636,right,31,diamond,0.719,1,0
1 3b,11,3,6,left,31,diamond,0.566,0,0
1 3b,11,3,108,left,31,diamond,0.504,0,0
1 3b,11,3,227,left,0,orange,0.529,0,0
1 3b,11,3,41,right,0,orange,0.519,1,0
1 3b,11,3,377,right,0,orange,0.5,1,0
1 3b,11,3,157,right,0,orange,0.454,1,0
1 3b,11,3,220,left,0,orange,0.533,0,0
1 3b,11,3,360,left,0,orange,0.511,0,0
1 3b,11,3,93,left,0,semicircle,0.434,0,0
1 3b,11,3,492,right,0,semicircle,0.577,1,0
1 3b,11,3,334,left,0,semicircle,0.452,0,0
1 3b,11,3,41,right,0,semicircle,0.519,1,0
1 3b,11,3,442,left,0,semicircle,0.501,0,0
1 3b,11,3,360,left,0,semicircle,0.511,0,0
1 3b,11,3,518,left,1,semicircle,0.467,0,0
1 3b,11,3,329,left,1,semicircle,0.509,0,0
1 3b,11,3,275,right,1,semicircle,0.566,1,0
1 3b,11,3,343,right,1,semicircle,0.42,1,0
1 3b,11,3,378,right,1,semicircle,0.584,1,0
1 3b,11,3,113,left,1,semicircle,0.609,0,0
1 3b,11,3,374,right,4,semicircle,0.543,1,0
1 3b,11,3,576,left,4,semicircle,0.713,0,0
1 3b,11,3,259,right,4,semicircle,0.539,1,0
1 3b,11,3,280,right,4,semicircle,0.413,1,0
1 3b,11,3,262,left,4,semicircle,0.599,0,0
1 3b,11,3,226,right,4,semicircle,0.495,1,0
1 3b,11,3,382,left,9,semicircle,0.677,0,0
1 3b,11,3,510,right,9,semicircle,0.511,1,0
1 3b,11,3,521,left,9,semicircle,0.445,0,0
1 3b,11,3,276,right,9,semicircle,0.614,1,0
1 3b,11,3,534,left,9,semicircle,0.845,0,0
1 3b,11,3,371,right,9,semicircle,0.434,1,0
1 3b,11,3,512,right,19,semicircle,0.777,1,0
1 3b,11,3,199,right,19,semicircle,0.631,1,0
1 3b,11,3,595,left,19,semicircle,0.511,0,0
1 3b,11,3,74,left,19,semicircle,0.74,0,0
1 3b,11,3,145,left,19,semicircle,0.497,0,0
1 3b,11,3,120,right,19,semicircle,0.761,1,0
1 3b,11,3,161,right,31,semicircle,0.551,1,0
1 3b,11,3,122,left,31,semicircle,1.041,0,0
1 3b,11,3,497,right,31,semicircle,0.836,1,0
1 3b,11,3,441,left,31,semicircle,0.666,0,0
1 3b,11,3,130,left,31,semicircle,0.786,0,0
1 3b,11,3,152,right,31,semicircle,0.544,1,0
1 3b,11,3,154,left,0,yellow,0.534,0,0
1 3b,11,3,92,right,0,yellow,0.445,1,0
1 3b,11,3,611,right,0,yellow,0.511,1,0
1 3b,11,3,284,left,0,yellow,0.469,0,0
1 3b,11,3,43,right,0,yellow,0.393,1,0
1 3b,11,3,360,left,0,yellow,0.511,0,0
1 4a,12,4,617,left,0,blue circle,0.347,0,0
1 4a,12,4,2,left,0,blue circle,0.42,0,0
1 4a,12,4,10,left,0,blue circle,0.566,0,0
1 4a,12,4,229,right,0,blue circle,0.463,1,0
1 4a,12,4,116,left,0,blue circle,0.488,0,0
1 4a,12,4,481,right,0,blue circle,0.574,1,0
1 4a,12,4,484,right,1,blue circle,0.532,1,0
1 4a,12,4,354,right,1,blue circle,0.617,1,0
1 4a,12,4,272,right,1,blue circle,0.534,1,0
1 4a,12,4,433,left,1,blue circle,0.434,0,0
1 4a,12,4,137,right,1,blue circle,0.622,1,0
1 4a,12,4,457,left,1,blue circle,0.582,0,0
1 4a,12,4,347,right,4,blue circle,0.616,1,0
1 4a,12,4,437,left,4,blue circle,0.583,0,0
1 4a,12,4,274,left,4,blue circle,0.525,0,0
1 4a,12,4,464,left,4,blue circle,0.659,0,0
1 4a,12,4,621,left,4,blue circle,0.609,0,0
1 4a,12,4,577,left,4,blue circle,0.689,0,0
1 4a,12,4,147,right,9,blue circle,0.758,1,0
1 4a,12,4,438,right,9,blue circle,0.495,1,0
1 4a,12,4,9,left,9,blue circle,0.547,0,0
1 4a,12,4,158,left,9,blue circle,0.806,0,0
1 4a,12,4,633,right,9,blue circle,0.434,1,0
1 4a,12,4,127,left,9,blue circle,0.46,0,0
1 4a,12,4,180,left,19,blue circle,0.659,0,0
1 4a,12,4,582,left,19,blue circle,0.704,0,0
1 4a,12,4,188,left,19,blue circle,0.763,0,0
1 4a,12,4,469,right,19,blue circle,0.518,1,0
1 4a,12,4,167,right,19,blue circle,0.653,1,0
1 4a,12,4,107,left,19,blue circle,0.693,0,0
1 4a,12,4,303,right,31,blue circle,1.23,1,0
1 4a,12,4,288,right,31,blue circle,0.821,1,0
1 4a,12,4,203,right,31,blue circle,0.562,1,0
1 4a,12,4,623,right,31,blue circle,0.591,1,0
1 4a,12,4,465,right,31,blue circle,0.574,1,0
1 4a,12,4,307,left,31,blue circle,0.518,0,0
1 4a,12,4,396,left,0,blue diamond,0.519,0,0
1 4a,12,4,560,right,0,blue diamond,0.353,1,0
1 4a,12,4,200,left,0,blue diamond,0.438,0,0
1 4a,12,4,189,right,0,blue diamond,0.678,1,0
1 4a,12,4,82,left,0,blue diamond,0.415,0,0
1 4a,12,4,275,left,0,blue diamond,0.472,0,0
1 4a,12,4,201,right,0,blue semicircle,0.55,1,0
1 4a,12,4,560,right,0,blue semicircle,0.353,1,0
1 4a,12,4,456,right,0,blue semicircle,0.682,1,0
1 4a,12,4,173,left,0,blue semicircle,0.44,0,0
1 4a,12,4,578,left,0,blue semicircle,0.446,0,0
1 4a,12,4,251,right,0,blue semicircle,0.49,1,0
1 4a,12,4,289,right,0,orange circle,0.47,1,0
1 4a,12,4,112,left,0,orange circle,0.455,0,0
1 4a,12,4,82,left,0,orange circle,0.415,0,0
1 4a,12,4,371,right,0,orange circle,0.619,1,0
1 4a,12,4,560,right,0,orange circle,0.353,1,0
1 4a,12,4,431,left,0,orange circle,0.706,0,0
1 4a,12,4,562,left,0,orange diamond,0.966,0,0
1 4a,12,4,67,left,0,orange diamond,0.515,0,0
1 4a,12,4,260,right,0,orange diamond,0.553,1,0
1 4a,12,4,189,right,0,orange diamond,0.678,1,0
1 4a,12,4,416,right,0,orange diamond,0.542,1,0
1 4a,12,4,589,right,0,orange diamond,0.527,1,0
1 4a,12,4,99,right,1,orange diamond,0.594,1,0
1 4a,12,4,383,left,1,orange diamond,0.634,0,0
1 4a,12,4,378,left,1,orange diamond,0.575,0,0
1 4a,12,4,552,left,1,orange diamond,0.636,0,0
1 4a,12,4,385,right,1,orange diamond,0.52,1,0
1 4a,12,4,191,right,1,orange diamond,0.65,1,0
1 4a,12,4,420,right,4,orange diamond,0.472,1,0
1 4a,12,4,490,right,4,orange diamond,0.68,1,0
1 4a,12,4,406,left,4,orange diamond,0.665,0,0
1 4a,12,4,330,left,4,orange diamond,0.671,0,0
1 4a,12,4,337,left,4,orange diamond,0.458,0,0
1 4a,12,4,29,left,4,orange diamond,0.483,0,0
1 4a,12,4,478,left,9,orange diamond,0.614,0,0
1 4a,12,4,311,left,9,orange diamond,0.593,0,0
1 4a,12,4,415,right,9,orange diamond,0.517,1,0
1 4a,12,4,222,right,9,orange diamond,0.689,1,0
1 4a,12,4,126,right,9,orange diamond,0.67,1,0
1 4a,12,4,450,left,9,orange diamond,0.664,0,0
1 4a,12,4,115,left,19,orange diamond,0.531,0,0
1 4a,12,4,267,right,19,orange diamond,0.755,1,0
1 4a,12,4,595,left,19,orange diamond,0.642,0,0
1 4a,12,4,408,right,19,orange diamond,0.599,1,0
1 4a,12,4,553,right,19,orange diamond,0.576,1,0
1 4a,12,4,301,right,19,orange diamond,0.543,1,0
1 4a,12,4,627,left,31,orange diamond,0.721,0,0
1 4a,12,4,27,right,31,orange diamond,0.553,1,0
1 4a,12,4,494,right,31,orange diamond,0.504,1,0
1 4a,12,4,248,left,31,orange diamond,0.606,0,0
1 4a,12,4,146,right,31,orange diamond,0.47,1,0
1 4a,12,4,234,left,31,orange diamond,0.825,0,0
1 4a,12,4,459,left,0,orange semicircle,0.556,0,0
1 4a,12,4,249,right,0,orange semicircle,0.468,1,0
1 4a,12,4,371,right,0,orange semicircle,0.619,1,0
1 4a,12,4,201,right,0,orange semicircle,0.55,1,0
1 4a,12,4,112,left,0,orange semicircle,0.455,0,0
1 4a,12,4,251,right,0,orange semicircle,0.49,1,0
1 4a,12,4,2,left,0,yellow circle,0.42,0,0
1 4a,12,4,201,right,0,yellow circle,0.55,1,0
1 4a,12,4,249,right,0,yellow circle,0.468,1,0
1 4a,12,4,289,right,0,yellow circle,0.47,1,0
1 4a,12,4,371,right,0,yellow circle,0.619,1,0
1 4a,12,4,229,right,0,yellow circle,0.463,1,0
1 4a,12,4,431,left,0,yellow diamond,0.706,0,0
1 4a,12,4,481,right,0,yellow diamond,0.574,1,0
1 4a,12,4,578,left,0,yellow diamond,0.446,0,0
1 4a,12,4,616,left,0,yellow diamond,0.655,0,0
1 4a,12,4,275,left,0,yellow diamond,0.472,0,0
1 4a,12,4,116,left,0,yellow diamond,0.488,0,0
1 4a,12,4,112,left,0,yellow semicircle,0.455,0,0
1 4a,12,4,239,right,0,yellow semicircle,0.559,1,0
1 4a,12,4,159,left,0,yellow semicircle,0.569,0,0
1 4a,12,4,578,left,0,yellow semicircle,0.446,0,0
1 4a,12,4,260,right,0,yellow semicircle,0.553,1,0
1 4a,12,4,459,left,0,yellow semicircle,0.556,0,0
1 4a,12,4,54,left,1,yellow semicircle,0.464,0,0
1 4a,12,4,587,left,1,yellow semicircle,0.435,0,0
1 4a,12,4,219,left,1,yellow semicircle,0.614,0,0
1 4a,12,4,522,right,1,yellow semicircle,0.471,1,0
1 4a,12,4,290,right,1,yellow semicircle,0.58,1,0
1 4a,12,4,400,left,1,yellow semicircle,0.565,0,0
1 4a,12,4,594,right,4,yellow semicircle,0.492,1,0
1 4a,12,4,356,left,4,yellow semicircle,0.679,0,0
1 4a,12,4,359,left,4,yellow semicircle,0.565,0,0
1 4a,12,4,508,right,4,yellow semicircle,0.553,1,0
1 4a,12,4,529,right,4,yellow semicircle,0.391,1,0
1 4a,12,4,141,right,4,yellow semicircle,0.487,1,0
1 4a,12,4,149,right,9,yellow semicircle,0.549,1,0
1 4a,12,4,130,left,9,yellow semicircle,0.779,0,0
1 4a,12,4,22,left,9,yellow semicircle,0.724,0,0
1 4a,12,4,263,right,9,yellow semicircle,0.656,1,0
1 4a,12,4,488,left,9,yellow semicircle,0.451,0,0
1 4a,12,4,343,right,9,yellow semicircle,0.55,1,0
1 4a,12,4,299,right,19,yellow semicircle,0.447,1,0
1 4a,12,4,483,left,19,yellow semicircle,0.614,0,0
1 4a,12,4,551,left,19,yellow semicircle,0.626,0,0
1 4a,12,4,71,right,19,yellow semicircle,0.478,1,0
1 4a,12,4,367,left,19,yellow semicircle,0.651,0,0
1 4a,12,4,195,left,19,yellow semicircle,0.571,0,0
1 4a,12,4,505,right,31,yellow semicircle,0.667,1,0
1 4a,12,4,281,left,31,yellow semicircle,0.539,0,0
1 4a,12,4,59,right,31,yellow semicircle,0.693,1,0
1 4a,12,4,175,right,31,yellow semicircle,0.62,1,0
1 4a,12,4,314,right,31,yellow semicircle,0.614,1,0
1 4a,12,4,563,right,31,yellow semicircle,0.494,1,0
1 4b,15,4,403,right,0,blue circle,0.391,1,0
1 4b,15,4,540,right,0,blue circle,0.612,1,0
1 4b,15,4,509,right,0,blue circle,0.545,1,0
1 4b,15,4,552,right,0,blue circle,0.409,1,0
1 4b,15,4,73,right,0,blue circle,0.454,1,0
1 4b,15,4,52,right,0,blue circle,0.64,1,0
1 4b,15,4,211,left,0,blue diamond,0.371,0,0
1 4b,15,4,34,left,0,blue diamond,0.672,0,0
1 4b,15,4,73,right,0,blue diamond,0.454,1,0
1 4b,15,4,509,right,0,blue diamond,0.545,1,0
1 4b,15,4,245,left,0,blue diamond,0.531,0,0
1 4b,15,4,552,right,0,blue diamond,0.409,1,0
1 4b,15,4,623,left,0,blue semicircle,0.512,0,0
1 4b,15,4,276,left,0,blue semicircle,0.379,0,0
1 4b,15,4,211,left,0,blue semicircle,0.371,0,0
1 4b,15,4,552,right,0,blue semicircle,0.409,1,0
1 4b,15,4,472,left,0,blue semicircle,0.406,0,0
1 4b,15,4,423,right,0,blue semicircle,0.418,1,0
1 4b,15,4,230,left,1,blue semicircle,0.423,0,0
1 4b,15,4,117,left,1,blue semicircle,0.444,0,0
1 4b,15,4,56,right,1,blue semicircle,0.584,1,0
1 4b,15,4,635,left,1,blue semicircle,0.729,0,0
1 4b,15,4,175,right,1,blue semicircle,0.422,1,0
1 4b,15,4,139,right,1,blue semicircle,0.514,1,0
1 4b,15,4,381,right,4,blue semicircle,0.396,1,0
1 4b,15,4,356,right,4,blue semicircle,0.355,1,0
1 4b,15,4,510,right,4,blue semicircle,0.495,1,0
1 4b,15,4,107,left,4,blue semicircle,0.565,0,0
1 4b,15,4,487,left,4,blue semicircle,0.46,0,0
1 4b,15,4,324,left,4,blue semicircle,0.607,0,0
1 4b,15,4,134,right,9,blue semicircle,0.551,1,0
1 4b,15,4,459,left,9,blue semicircle,0.586,0,0
1 4b,15,4,592,left,9,blue semicircle,0.526,0,0
1 4b,15,4,265,left,9,blue semicircle,0.42,0,0
1 4b,15,4,33,right,9,blue semicircle,0.809,1,0
1 4b,15,4,575,right,9,blue semicircle,0.487,1,0
1 4b,15,4,493,left,19,blue semicircle,0.438,0,0
1 4b,15,4,192,right,19,blue semicircle,0.823,1,0
1 4b,15,4,335,right,19,blue semicircle,0.486,1,0
1 4b,15,4,279,left,19,blue semicircle,0.44,0,0
1 4b,15,4,87,left,19,blue semicircle,0.459,0,0
1 4b,15,4,534,right,19,blue semicircle,0.41,1,0
1 4b,15,4,388,right,31,blue semicircle,0.545,1,0
1 4b,15,4,543,right,31,blue semicircle,0.665,1,0
1 4b,15,4,357,left,31,blue semicircle,0.446,0,0
1 4b,15,4,295,left,31,blue semicircle,0.424,0,0
1 4b,15,4,504,right,31,blue semicircle,0.575,1,0
1 4b,15,4,405,right,31,blue semicircle,0.491,1,0
1 4b,15,4,156,left,0,orange circle,0.337,0,0
1 4b,15,4,392,right,0,orange circle,0.457,1,0
1 4b,15,4,85,left,0,orange circle,0.521,0,0
1 4b,15,4,403,right,0,orange circle,0.391,1,0
1 4b,15,4,250,right,0,orange circle,0.446,1,0
1 4b,15,4,441,right,0,orange circle,0.459,1,0
1 4b,15,4,570,right,1,orange circle,0.758,1,0
1 4b,15,4,40,left,1,orange circle,0.469,0,0
1 4b,15,4,67,right,1,orange circle,0.414,1,0
1 4b,15,4,488,left,1,orange circle,0.401,0,0
1 4b,15,4,291,right,1,orange circle,0.495,1,0
1 4b,15,4,231,right,1,orange circle,0.714,1,0
1 4b,15,4,447,right,4,orange circle,0.489,1,0
1 4b,15,4,440,right,4,orange circle,0.62,1,0
1 4b,15,4,30,right,4,orange circle,0.554,1,0
1 4b,15,4,51,right,4,orange circle,0.549,1,0
1 4b,15,4,560,right,4,orange circle,0.772,1,0
1 4b,15,4,491,left,4,orange circle,0.468,0,0
1 4b,15,4,316,right,9,orange circle,0.628,1,0
1 4b,15,4,290,left,9,orange circle,0.458,0,0
1 4b,15,4,226,right,9,orange circle,0.512,1,0
1 4b,15,4,143,left,9,orange circle,0.688,0,0
1 4b,15,4,396,left,9,orange circle,0.537,0,0
1 4b,15,4,115,right,9,orange circle,0.424,1,0
1 4b,15,4,390,right,19,orange circle,0.439,1,0
1 4b,15,4,624,right,19,orange circle,0.67,1,0
1 4b,15,4,43,left,19,orange circle,0.48,0,0
1 4b,15,4,61,right,19,orange circle,0.384,1,0
1 4b,15,4,95,left,19,orange circle,0.644,0,0
1 4b,15,4,79,right,19,orange circle,0.459,1,0
1 4b,15,4,60,left,31,orange circle,0.799,0,0
1 4b,15,4,566,left,31,orange circle,0.599,0,0
1 4b,15,4,625,right,31,orange circle,0.666,1,0
1 4b,15,4,141,left,31,orange circle,0.667,0,0
1 4b,15,4,451,right,31,orange circle,0.835,1,0
1 4b,15,4,237,right,31,orange circle,0.437,1,0
1 4b,15,4,85,left,0,orange diamond,0.521,0,0
1 4b,15,4,394,left,0,orange diamond,0.366,0,0
1 4b,15,4,552,right,0,orange diamond,0.409,1,0
1 4b,15,4,94,left,0,orange diamond,0.79,0,0
1 4b,15,4,286,right,0,orange diamond,0.361,1,0
1 4b,15,4,132,right,0,orange diamond,0.485,1,0
1 4b,15,4,286,right,0,orange semicircle,0.361,1,0
1 4b,15,4,500,left,0,orange semicircle,0.864,0,0
1 4b,15,4,333,left,0,orange semicircle,0.507,0,0
1 4b,15,4,287,right,0,orange semicircle,0.516,1,0
1 4b,15,4,509,right,0,orange semicircle,0.545,1,0
1 4b,15,4,552,right,0,orange semicircle,0.409,1,0
1 4b,15,4,509,right,0,yellow circle,0.545,1,0
1 4b,15,4,132,right,0,yellow circle,0.485,1,0
1 4b,15,4,275,left,0,yellow circle,0.435,0,0
1 4b,15,4,25,left,0,yellow circle,0.454,0,0
1 4b,15,4,423,right,0,yellow circle,0.418,1,0
1 4b,15,4,211,left,0,yellow circle,0.371,0,0
1 4b,15,4,275,left,0,yellow diamond,0.435,0,0
1 4b,15,4,623,left,0,yellow diamond,0.512,0,0
1 4b,15,4,34,left,0,yellow diamond,0.672,0,0
1 4b,15,4,540,right,0,yellow diamond,0.612,1,0
1 4b,15,4,287,right,0,yellow diamond,0.516,1,0
1 4b,15,4,472,left,0,yellow diamond,0.406,0,0
1 4b,15,4,86,left,1,yellow diamond,0.503,0,0
1 4b,15,4,474,right,1,yellow diamond,0.526,1,0
1 4b,15,4,346,left,1,yellow diamond,0.376,0,0
1 4b,15,4,578,right,1,yellow diamond,0.871,1,0
1 4b,15,4,341,right,1,yellow diamond,0.526,1,0
1 4b,15,4,302,right,1,yellow diamond,0.475,1,0
1 4b,15,4,170,left,4,yellow diamond,0.383,0,0
1 4b,15,4,581,right,4,yellow diamond,0.475,1,0
1 4b,15,4,80,left,4,yellow diamond,0.407,0,0
1 4b,15,4,123,right,4,yellow diamond,0.39,1,0
1 4b,15,4,214,right,4,yellow diamond,0.554,1,0
1 4b,15,4,585,right,4,yellow diamond,0.431,1,0
1 4b,15,4,71,right,9,yellow diamond,0.5,1,0
1 4b,15,4,614,left,9,yellow diamond,0.381,0,0
1 4b,15,4,150,right,9,yellow diamond,0.577,1,0
1 4b,15,4,580,right,9,yellow diamond,0.585,1,0
1 4b,15,4,380,right,9,yellow diamond,0.637,1,0
1 4b,15,4,336,left,9,yellow diamond,0.353,0,0
1 4b,15,4,565,left,19,yellow diamond,0.55,0,0
1 4b,15,4,244,right,19,yellow diamond,0.493,1,0
1 4b,15,4,256,left,19,yellow diamond,0.535,0,0
1 4b,15,4,419,right,19,yellow diamond,0.395,1,0
1 4b,15,4,212,left,19,yellow diamond,0.517,0,0
1 4b,15,4,589,right,19,yellow diamond,0.5,1,0
1 4b,15,4,88,left,31,yellow diamond,0.58,0,0
1 4b,15,4,433,left,31,yellow diamond,0.53,0,0
1 4b,15,4,415,right,31,yellow diamond,0.589,1,0
1 4b,15,4,327,right,31,yellow diamond,0.512,1,0
1 4b,15,4,431,left,31,yellow diamond,0.422,0,0
1 4b,15,4,98,right,31,yellow diamond,0.524,1,0
1 4b,15,4,555,left,0,yellow semicircle,0.468,0,0
1 4b,15,4,423,right,0,yellow semicircle,0.418,1,0
1 4b,15,4,243,right,0,yellow semicircle,0.523,1,0
1 4b,15,4,275,left,0,yellow semicircle,0.435,0,0
1 4b,15,4,540,right,0,yellow semicircle,0.612,1,0
1 4b,15,4,300,right,0,yellow semicircle,0.561,1,0
1 4c,13,4,475,right,0,blue circle,0.432,1,0
1 4c,13,4,361,right,0,blue circle,0.595,1,0
1 4c,13,4,109,right,0,blue circle,0.441,1,0
1 4c,13,4,151,right,0,blue circle,0.379,1,0
1 4c,13,4,176,left,0,blue circle,0.344,0,0
1 4c,13,4,20,left,0,blue circle,0.409,0,0
1 4c,13,4,639,left,0,blue diamond,0.634,0,0
1 4c,13,4,278,left,0,blue diamond,0.347,0,0
1 4c,13,4,20,left,0,blue diamond,0.409,0,0
1 4c,13,4,192,right,0,blue diamond,0.47,1,0
1 4c,13,4,154,right,0,blue diamond,0.377,1,0
1 4c,13,4,176,left,0,blue diamond,0.344,0,0
1 4c,13,4,35,left,1,blue diamond,0.448,0,0
1 4c,13,4,179,left,1,blue diamond,0.481,0,0
1 4c,13,4,210,left,1,blue diamond,0.409,0,0
1 4c,13,4,147,right,1,blue diamond,0.425,1,0
1 4c,13,4,24,left,1,blue diamond,0.406,0,0
1 4c,13,4,608,right,1,blue diamond,0.372,1,0
1 4c,13,4,630,right,4,blue diamond,0.509,1,0
1 4c,13,4,204,right,4,blue diamond,0.536,1,0
1 4c,13,4,593,left,4,blue diamond,0.393,0,0
1 4c,13,4,331,left,4,blue diamond,0.381,0,0
1 4c,13,4,339,right,4,blue diamond,0.421,1,0
1 4c,13,4,270,left,4,blue diamond,0.461,0,0
1 4c,13,4,447,left,9,blue diamond,0.385,0,0
1 4c,13,4,357,left,9,blue diamond,0.423,0,0
1 4c,13,4,325,right,9,blue diamond,0.472,1,0
1 4c,13,4,635,right,9,blue diamond,0.874,1,0
1 4c,13,4,449,left,9,blue diamond,0.419,0,0
1 4c,13,4,628,right,9,blue diamond,0.471,1,0
1 4c,13,4,492,left,19,blue diamond,0.461,0,0
1 4c,13,4,22,right,19,blue diamond,0.571,1,0
1 4c,13,4,144,left,19,blue diamond,0.504,0,0
1 4c,13,4,585,left,19,blue diamond,0.427,0,0
1 4c,13,4,240,right,19,blue diamond,0.391,1,0
1 4c,13,4,59,right,19,blue diamond,0.442,1,0
1 4c,13,4,359,left,31,blue diamond,0.367,0,0
1 4c,13,4,597,right,31,blue diamond,0.445,1,0
1 4c,13,4,623,right,31,blue diamond,0.526,1,0
1 4c,13,4,246,right,31,blue diamond,0.481,1,0
1 4c,13,4,324,left,31,blue diamond,0.477,0,0
1 4c,13,4,310,right,31,blue diamond,0.457,1,0
1 4c,13,4,247,right,0,blue semicircle,0.537,1,0
1 4c,13,4,455,left,0,blue semicircle,0.409,0,0
1 4c,13,4,572,right,0,blue semicircle,0.489,1,0
1 4c,13,4,361,right,0,blue semicircle,0.595,1,0
1 4c,13,4,352,right,0,blue semicircle,0.408,1,0
1 4c,13,4,182,left,0,blue semicircle,0.447,0,0
1 4c,13,4,365,left,0,orange circle,0.387,0,0
1 4c,13,4,192,right,0,orange circle,0.47,1,0
1 4c,13,4,454,left,0,orange circle,0.379,0,0
1 4c,13,4,55,left,0,orange circle,0.512,0,0
1 4c,13,4,582,left,0,orange circle,0.42,0,0
1 4c,13,4,276,right,0,orange circle,0.458,1,0
1 4c,13,4,109,right,0,orange diamond,0.441,1,0
1 4c,13,4,475,right,0,orange diamond,0.432,1,0
1 4c,13,4,176,left,0,orange diamond,0.344,0,0
1 4c,13,4,591,left,0,orange diamond,0.33,0,0
1 4c,13,4,401,right,0,orange diamond,0.631,1,0
1 4c,13,4,454,left,0,orange diamond,0.379,0,0
1 4c,13,4,582,left,0,orange semicircle,0.42,0,0
1 4c,13,4,475,right,0,orange semicircle,0.432,1,0
1 4c,13,4,619,right,0,orange semicircle,0.823,1,0
1 4c,13,4,591,left,0,orange semicircle,0.33,0,0
1 4c,13,4,439,left,0,orange semicircle,0.512,0,0
1 4c,13,4,572,right,0,orange semicircle,0.489,1,0
1 4c,13,4,231,left,1,orange semicircle,0.461,0,0
1 4c,13,4,346,right,1,orange semicircle,0.415,1,0
1 4c,13,4,332,left,1,orange semicircle,0.376,0,0
1 4c,13,4,464,right,1,orange semicircle,0.632,1,0
1 4c,13,4,47,right,1,orange semicircle,0.501,1,0
1 4c,13,4,26,right,1,orange semicircle,0.452,1,0
1 4c,13,4,632,right,4,orange semicircle,0.48,1,0
1 4c,13,4,504,right,4,orange semicircle,0.401,1,0
1 4c,13,4,110,left,4,orange semicircle,0.349,0,0
1 4c,13,4,513,left,4,orange semicircle,0.475,0,0
1 4c,13,4,5,right,4,orange semicircle,0.526,1,0
1 4c,13,4,379,right,4,orange semicircle,0.378,1,0
1 4c,13,4,617,left,9,orange semicircle,0.483,0,0
1 4c,13,4,241,left,9,orange semicircle,0.495,0,0
1 4c,13,4,148,left,9,orange semicircle,0.414,0,0
1 4c,13,4,206,right,9,orange semicircle,0.422,1,0
1 4c,13,4,316,right,9,orange semicircle,0.463,1,0
1 4c,13,4,405,right,9,orange semicircle,0.499,1,0
1 4c,13,4,521,right,19,orange semicircle,0.555,1,0
1 4c,13,4,566,left,19,orange semicircle,0.448,0,0
1 4c,13,4,368,left,19,orange semicircle,0.366,0,0
1 4c,13,4,515,right,19,orange semicircle,0.564,1,0
1 4c,13,4,563,right,19,orange semicircle,0.53,1,0
1 4c,13,4,243,left,19,orange semicircle,0.454,0,0
1 4c,13,4,45,right,31,orange semicircle,0.418,1,0
1 4c,13,4,262,right,31,orange semicircle,0.412,1,0
1 4c,13,4,480,left,31,orange semicircle,0.496,0,0
1 4c,13,4,496,left,31,orange semicircle,0.424,0,0
1 4c,13,4,549,right,31,orange semicircle,0.611,1,0
1 4c,13,4,251,right,31,orange semicircle,0.407,1,0
1 4c,13,4,605,left,0,yellow circle,0.403,0,0
1 4c,13,4,42,right,0,yellow circle,0.478,1,0
1 4c,13,4,395,left,0,yellow circle,0.371,0,0
1 4c,13,4,151,right,0,yellow circle,0.379,1,0
1 4c,13,4,278,left,0,yellow circle,0.347,0,0
1 4c,13,4,455,left,0,yellow circle,0.409,0,0
1 4c,13,4,238,right,1,yellow circle,0.455,1,0
1 4c,13,4,595,right,1,yellow circle,0.396,1,0
1 4c,13,4,303,left,1,yellow circle,0.354,0,0
1 4c,13,4,432,right,1,yellow circle,0.449,1,0
1 4c,13,4,314,left,1,yellow circle,0.361,0,0
1 4c,13,4,392,right,1,yellow circle,0.444,1,0
1 4c,13,4,579,left,4,yellow circle,0.447,0,0
1 4c,13,4,567,left,4,yellow circle,0.422,0,0
1 4c,13,4,208,left,4,yellow circle,0.478,0,0
1 4c,13,4,443,right,4,yellow circle,0.36,1,0
1 4c,13,4,508,left,4,yellow circle,0.334,0,0
1 4c,13,4,117,right,4,yellow circle,0.566,1,0
1 4c,13,4,358,right,9,yellow circle,0.391,1,0
1 4c,13,4,275,right,9,yellow circle,0.422,1,0
1 4c,13,4,21,right,9,yellow circle,0.625,1,0
1 4c,13,4,136,left,9,yellow circle,0.368,0,0
1 4c,13,4,145,left,9,yellow circle,0.545,0,0
1 4c,13,4,235,left,9,yellow circle,0.445,0,0
1 4c,13,4,25,left,19,yellow circle,0.487,0,0
1 4c,13,4,495,left,19,yellow circle,0.436,0,0
1 4c,13,4,245,left,19,yellow circle,0.446,0,0
1 4c,13,4,185,right,19,yellow circle,0.449,1,0
1 4c,13,4,237,right,19,yellow circle,0.519,1,0
1 4c,13,4,407,right,19,yellow circle,0.596,1,0
1 4c,13,4,164,left,31,yellow circle,0.374,0,0
1 4c,13,4,46,left,31,yellow circle,0.443,0,0
1 4c,13,4,399,right,31,yellow circle,0.409,1,0
1 4c,13,4,219,left,31,yellow circle,0.405,0,0
1 4c,13,4,378,right,31,yellow circle,0.437,1,0
1 4c,13,4,255,right,31,yellow circle,0.498,1,0
1 4c,13,4,340,left,0,yellow diamond,0.331,0,0
1 4c,13,4,276,right,0,yellow diamond,0.458,1,0
1 4c,13,4,454,left,0,yellow diamond,0.379,0,0
1 4c,13,4,572,right,0,yellow diamond,0.489,1,0
1 4c,13,4,422,right,0,yellow diamond,0.367,1,0
1 4c,13,4,361,right,0,yellow diamond,0.595,1,0
1 4c,13,4,340,left,0,yellow semicircle,0.331,0,0
1 4c,13,4,591,left,0,yellow semicircle,0.33,0,0
1 4c,13,4,422,right,0,yellow semicircle,0.367,1,0
1 4c,13,4,154,right,0,yellow semicircle,0.377,1,0
1 4c,13,4,439,left,0,yellow semicircle,0.512,0,0
1 4c,13,4,192,right,0,yellow semicircle,0.47,1,0
10 1a,1,1,178,left,0,blue,0.686,0,0
10 1a,1,1,420,left,0,blue,0.539,0,0
10 1a,1,1,461,right,0,blue,0.521,1,0
10 1a,1,1,464,right,0,blue,1.117,1,0
10 1a,1,1,335,right,0,blue,0.452,1,0
10 1a,1,1,455,left,0,blue,0.752,0,0
10 1a,1,1,519,left,1,blue,0.41,0,0
10 1a,1,1,362,left,1,blue,0.476,0,0
10 1a,1,1,404,left,1,blue,0.474,0,0
10 1a,1,1,471,left,1,blue,0.651,0,0
10 1a,1,1,371,right,1,blue,0.388,1,0
10 1a,1,1,601,left,1,blue,0.517,0,0
10 1a,1,1,441,left,4,blue,0.585,0,0
10 1a,1,1,449,left,4,blue,1.624,0,0
10 1a,1,1,367,right,4,blue,0.585,1,0
10 1a,1,1,354,left,4,blue,0.54,0,0
10 1a,1,1,378,right,4,blue,0.43,1,0
10 1a,1,1,608,left,4,blue,0.602,0,0
10 1a,1,1,292,right,9,blue,0.533,1,0
10 1a,1,1,7,right,9,blue,0.549,1,0
10 1a,1,1,172,right,9,blue,0.485,1,0
10 1a,1,1,419,left,9,blue,1.013,0,0
10 1a,1,1,53,right,9,blue,0.732,1,0
10 1a,1,1,410,right,9,blue,0.681,1,0
10 1a,1,1,108,right,19,blue,0.431,1,0
10 1a,1,1,372,right,19,blue,0.519,1,0
10 1a,1,1,29,left,19,blue,0.443,0,0
10 1a,1,1,579,left,19,blue,0.493,0,0
10 1a,1,1,162,right,19,blue,0.572,1,0
10 1a,1,1,363,right,19,blue,0.385,1,0
10 1a,1,1,126,left,31,blue,0.595,0,0
10 1a,1,1,599,right,31,blue,0.445,1,0
10 1a,1,1,524,left,31,blue,0.687,0,0
10 1a,1,1,216,right,31,blue,0.57,1,0
10 1a,1,1,334,left,31,blue,0.712,0,0
10 1a,1,1,484,left,31,blue,0.54,0,0
10 1a,1,1,487,left,0,circle,0.683,0,0
10 1a,1,1,504,right,0,circle,0.377,1,0
10 1a,1,1,346,left,0,circle,0.554,0,0
10 1a,1,1,21,right,0,circle,0.426,1,0
10 1a,1,1,319,left,0,circle,0.385,0,0
10 1a,1,1,255,right,0,circle,0.366,1,0
10 1a,1,1,580,right,0,diamond,0.447,1,0
10 1a,1,1,630,right,0,diamond,0.709,1,0
10 1a,1,1,319,left,0,diamond,0.385,0,0
10 1a,1,1,424,left,0,diamond,0.735,0,0
10 1a,1,1,530,left,0,diamond,0.501,0,0
10 1a,1,1,393,left,0,diamond,0.537,0,0
10 1a,1,1,319,left,0,orange,0.385,0,0
10 1a,1,1,478,right,0,orange,0.538,1,0
10 1a,1,1,393,left,0,orange,0.537,0,0
10 1a,1,1,630,right,0,orange,0.709,1,0
10 1a,1,1,276,left,0,orange,0.367,0,0
10 1a,1,1,420,left,0,orange,0.539,0,0
10 1a,1,1,147,left,1,orange,0.481,0,0
10 1a,1,1,532,right,1,orange,1.02,1,0
10 1a,1,1,234,right,1,orange,0.456,1,0
10 1a,1,1,256,right,1,orange,0.358,1,0
10 1a,1,1,414,left,1,orange,0.543,0,0
10 1a,1,1,436,right,1,orange,0.609,1,0
10 1a,1,1,545,left,4,orange,0.554,0,0
10 1a,1,1,313,left,4,orange,0.456,0,0
10 1a,1,1,570,left,4,orange,0.475,0,0
10 1a,1,1,117,right,4,orange,0.474,1,0
10 1a,1,1,315,right,4,orange,0.369,1,0
10 1a,1,1,387,right,4,orange,0.371,1,0
10 1a,1,1,218,left,9,orange,0.413,0,0
10 1a,1,1,79,right,9,orange,0.563,1,0
10 1a,1,1,587,right,9,orange,0.525,1,0
10 1a,1,1,359,left,9,orange,0.384,0,0
10 1a,1,1,204,right,9,orange,0.413,1,0
10 1a,1,1,321,right,9,orange,0.439,1,0
10 1a,1,1,352,left,19,orange,0.443,0,0
10 1a,1,1,349,left,19,orange,0.485,0,0
10 1a,1,1,16,right,19,orange,0.498,1,0
10 1a,1,1,598,right,19,orange,0.431,1,0
10 1a,1,1,625,left,19,orange,0.489,0,0
10 1a,1,1,329,left,19,orange,0.383,0,0
10 1a,1,1,311,left,31,orange,0.428,0,0
10 1a,1,1,506,left,31,orange,0.515,0,0
10 1a,1,1,123,right,31,orange,0.462,1,0
10 1a,1,1,622,left,31,orange,0.553,0,0
10 1a,1,1,537,right,31,orange,0.565,1,0
10 1a,1,1,605,left,31,orange,0.607,0,0
10 1a,1,1,504,right,0,triangle,0.377,1,0
10 1a,1,1,530,left,0,triangle,0.501,0,0
10 1a,1,1,260,left,0,triangle,0.384,0,0
10 1a,1,1,276,left,0,triangle,0.367,0,0
10 1a,1,1,455,left,0,triangle,0.752,0,0
10 1a,1,1,249,right,0,triangle,0.363,1,0
10 1a,1,1,335,right,0,yellow,0.452,1,0
10 1a,1,1,346,left,0,yellow,0.554,0,0
10 1a,1,1,610,right,0,yellow,0.41,1,0
10 1a,1,1,420,left,0,yellow,0.539,0,0
10 1a,1,1,186,left,0,yellow,0.357,0,0
10 1a,1,1,530,left,0,yellow,0.501,0,0
10 1a,1,1,273,right,1,yellow,0.409,1,0
10 1a,1,1,474,left,1,yellow,0.576,0,0
10 1a,1,1,517,right,1,yellow,0.367,1,0
10 1a,1,1,275,left,1,yellow,0.581,0,0
10 1a,1,1,286,left,1,yellow,0.393,0,0
10 1a,1,1,467,left,1,yellow,1.164,0,0
10 1a,1,1,114,left,4,yellow,0.561,0,0
10 1a,1,1,437,right,4,yellow,0.566,1,0
10 1a,1,1,612,left,4,yellow,0.676,0,0
10 1a,1,1,132,left,4,yellow,0.466,0,0
10 1a,1,1,350,right,4,yellow,0.479,1,0
10 1a,1,1,291,right,4,yellow,0.542,1,0
10 1a,1,1,337,right,9,yellow,0.46,1,0
10 1a,1,1,585,left,9,yellow,0.446,0,0
10 1a,1,1,214,right,9,yellow,0.463,1,0
10 1a,1,1,52,left,9,yellow,0.555,0,0
10 1a,1,1,416,right,9,yellow,0.623,1,0
10 1a,1,1,165,left,9,yellow,0.452,0,0
10 1a,1,1,376,right,19,yellow,0.443,1,0
10 1a,1,1,563,right,19,yellow,0.489,1,0
10 1a,1,1,42,right,19,yellow,0.459,1,0
10 1a,1,1,355,left,19,yellow,0.412,0,0
10 1a,1,1,408,left,19,yellow,0.471,0,0
10 1a,1,1,196,right,19,yellow,0.918,1,0
10 1a,1,1,209,left,31,yellow,0.535,0,0
10 1a,1,1,201,left,31,yellow,0.807,0,0
10 1a,1,1,486,left,31,yellow,0.469,0,0
10 1a,1,1,490,right,31,yellow,0.596,1,0
10 1a,1,1,401,right,31,yellow,0.467,1,0
10 1a,1,1,225,right,31,yellow,0.498,1,0
10 2b,10,2,112,left,0,blue circle,0.567,0,0
10 2b,10,2,398,left,0,blue circle,0.472,0,0
10 2b,10,2,275,right,0,blue circle,0.488,1,0
10 2b,10,2,598,right,0,blue circle,0.432,1,0
10 2b,10,2,25,right,0,blue circle,0.483,1,0
10 2b,10,2,70,right,0,blue circle,0.474,1,0
10 2b,10,2,549,right,0,blue diamond,0.502,1,0
10 2b,10,2,624,left,0,blue diamond,0.526,0,0
10 2b,10,2,52,left,0,blue diamond,0.501,0,0
10 2b,10,2,506,right,0,blue diamond,0.891,1,0
10 2b,10,2,427,left,0,blue diamond,0.447,0,0
10 2b,10,2,159,left,0,blue diamond,0.479,0,0
10 2b,10,2,427,left,0,blue triangle,0.447,0,0
10 2b,10,2,275,right,0,blue triangle,0.488,1,0
10 2b,10,2,624,left,0,blue triangle,0.526,0,0
10 2b,10,2,225,right,0,blue triangle,0.416,1,0
10 2b,10,2,487,right,0,blue triangle,1.167,1,0
10 2b,10,2,52,left,0,blue triangle,0.501,0,0
10 2b,10,2,518,right,1,blue triangle,0.462,1,0
10 2b,10,2,211,left,1,blue triangle,0.394,0,0
10 2b,10,2,115,left,1,blue triangle,0.518,0,0
10 2b,10,2,597,left,1,blue triangle,0.433,0,0
10 2b,10,2,204,right,1,blue triangle,0.466,1,0
10 2b,10,2,375,right,1,blue triangle,0.53,1,0
10 2b,10,2,484,right,4,blue triangle,0.439,1,0
10 2b,10,2,477,right,4,blue triangle,0.576,1,0
10 2b,10,2,138,right,4,blue triangle,0.488,1,0
10 2b,10,2,195,right,4,blue triangle,0.486,1,0
10 2b,10,2,64,right,4,blue triangle,0.706,1,0
10 2b,10,2,355,right,4,blue triangle,0.539,1,0
10 2b,10,2,231,left,9,blue triangle,0.83,0,0
10 2b,10,2,43,left,9,blue triangle,0.571,0,0
10 2b,10,2,106,right,9,blue triangle,0.547,1,0
10 2b,10,2,472,left,9,blue triangle,0.498,0,0
10 2b,10,2,309,left,9,blue triangle,0.539,0,0
10 2b,10,2,155,right,9,blue triangle,0.615,1,0
10 2b,10,2,126,right,19,blue triangle,0.689,1,0
10 2b,10,2,117,left,19,blue triangle,0.484,0,0
10 2b,10,2,83,right,19,blue triangle,0.542,1,0
10 2b,10,2,53,left,19,blue triangle,0.671,0,0
10 2b,10,2,476,left,19,blue triangle,0.903,0,0
10 2b,10,2,621,right,19,blue triangle,0.481,1,0
10 2b,10,2,466,right,31,blue triangle,0.473,1,0
10 2b,10,2,245,left,31,blue triangle,0.564,0,0
10 2b,10,2,321,right,31,blue triangle,0.608,1,0
10 2b,10,2,270,right,31,blue triangle,0.568,1,0
10 2b,10,2,35,left,31,blue triangle,0.564,0,0
10 2b,10,2,267,left,31,blue triangle,0.735,0,0
10 2b,10,2,283,right,0,orange circle,0.417,1,0
10 2b,10,2,240,left,0,orange circle,0.546,0,0
10 2b,10,2,338,left,0,orange circle,0.509,0,0
10 2b,10,2,94,left,0,orange circle,0.476,0,0
10 2b,10,2,640,left,0,orange circle,0.534,0,0
10 2b,10,2,205,left,0,orange circle,0.441,0,0
10 2b,10,2,366,left,1,orange circle,0.428,0,0
10 2b,10,2,337,right,1,orange circle,0.447,1,0
10 2b,10,2,187,left,1,orange circle,0.493,0,0
10 2b,10,2,15,right,1,orange circle,0.492,1,0
10 2b,10,2,116,right,1,orange circle,0.513,1,0
10 2b,10,2,63,right,1,orange circle,0.488,1,0
10 2b,10,2,134,right,4,orange circle,0.592,1,0
10 2b,10,2,450,right,4,orange circle,0.4,1,0
10 2b,10,2,434,right,4,orange circle,1.09,1,0
10 2b,10,2,509,right,4,orange circle,0.502,1,0
10 2b,10,2,99,right,4,orange circle,0.457,1,0
10 2b,10,2,212,right,4,orange circle,0.424,1,0
10 2b,10,2,510,left,9,orange circle,0.643,0,0
10 2b,10,2,369,left,9,orange circle,0.4,0,0
10 2b,10,2,471,right,9,orange circle,0.438,1,0
10 2b,10,2,254,left,9,orange circle,0.413,0,0
10 2b,10,2,189,right,9,orange circle,0.439,1,0
10 2b,10,2,585,left,9,orange circle,0.502,0,0
10 2b,10,2,233,left,19,orange circle,0.528,0,0
10 2b,10,2,271,right,19,orange circle,0.541,1,0
10 2b,10,2,634,left,19,orange circle,0.472,0,0
10 2b,10,2,243,right,19,orange circle,0.425,1,0
10 2b,10,2,565,left,19,orange circle,0.337,0,0
10 2b,10,2,403,right,19,orange circle,0.472,1,0
10 2b,10,2,562,right,31,orange circle,0.404,1,0
10 2b,10,2,351,right,31,orange circle,0.603,1,0
10 2b,10,2,578,left,31,orange circle,0.406,0,0
10 2b,10,2,454,right,31,orange circle,0.33,1,0
10 2b,10,2,151,left,31,orange circle,0.473,0,0
10 2b,10,2,393,right,31,orange circle,0.455,1,0
10 2b,10,2,58,left,0,orange diamond,0.567,0,0
10 2b,10,2,511,left,0,orange diamond,0.395,0,0
10 2b,10,2,640,left,0,orange diamond,0.534,0,0
10 2b,10,2,503,right,0,orange diamond,0.554,1,0
10 2b,10,2,396,left,0,orange diamond,0.484,0,0
10 2b,10,2,205,left,0,orange diamond,0.441,0,0
10 2b,10,2,612,right,0,orange triangle,0.751,1,0
10 2b,10,2,564,right,0,orange triangle,0.463,1,0
10 2b,10,2,159,left,0,orange triangle,0.479,0,0
10 2b,10,2,148,left,0,orange triangle,0.399,0,0
10 2b,10,2,396,left,0,orange triangle,0.484,0,0
10 2b,10,2,262,left,0,orange triangle,0.485,0,0
10 2b,10,2,8,right,0,yellow circle,0.468,1,0
10 2b,10,2,549,right,0,yellow circle,0.502,1,0
10 2b,10,2,52,left,0,yellow circle,0.501,0,0
10 2b,10,2,56,right,0,yellow circle,0.518,1,0
10 2b,10,2,338,left,0,yellow circle,0.509,0,0
10 2b,10,2,412,right,0,yellow circle,0.538,1,0
10 2b,10,2,549,right,0,yellow diamond,0.502,1,0
10 2b,10,2,225,right,0,yellow diamond,0.416,1,0
10 2b,10,2,595,left,0,yellow diamond,0.458,0,0
10 2b,10,2,70,right,0,yellow diamond,0.474,1,0
10 2b,10,2,262,left,0,yellow diamond,0.485,0,0
10 2b,10,2,148,left,0,yellow diamond,0.399,0,0
10 2b,10,2,609,right,1,yellow diamond,0.619,1,0
10 2b,10,2,135,right,1,yellow diamond,0.496,1,0
10 2b,10,2,536,left,1,yellow diamond,0.379,0,0
10 2b,10,2,218,left,1,yellow diamond,0.469,0,0
10 2b,10,2,483,right,1,yellow diamond,0.428,1,0
10 2b,10,2,146,left,1,yellow diamond,0.441,0,0
10 2b,10,2,249,left,4,yellow diamond,0.599,0,0
10 2b,10,2,327,left,4,yellow diamond,0.49,0,0
10 2b,10,2,278,right,4,yellow diamond,0.458,1,0
10 2b,10,2,96,right,4,yellow diamond,0.523,1,0
10 2b,10,2,516,left,4,yellow diamond,0.39,0,0
10 2b,10,2,122,left,4,yellow diamond,0.476,0,0
10 2b,10,2,38,right,9,yellow diamond,0.638,1,0
10 2b,10,2,447,left,9,yellow diamond,0.372,0,0
10 2b,10,2,583,left,9,yellow diamond,0.497,0,0
10 2b,10,2,108,left,9,yellow diamond,0.588,0,0
10 2b,10,2,2,left,9,yellow diamond,0.531,0,0
10 2b,10,2,111,left,9,yellow diamond,0.522,0,0
10 2b,10,2,216,left,19,yellow diamond,0.461,0,0
10 2b,10,2,504,left,19,yellow diamond,0.384,0,0
10 2b,10,2,573,left,19,yellow diamond,0.422,0,0
10 2b,10,2,200,right,19,yellow diamond,0.383,1,0
10 2b,10,2,374,left,19,yellow diamond,0.466,0,0
10 2b,10,2,299,left,19,yellow diamond,0.435,0,0
10 2b,10,2,176,left,31,yellow diamond,0.444,0,0
10 2b,10,2,230,right,31,yellow diamond,0.533,1,0
10 2b,10,2,287,left,31,yellow diamond,0.486,0,0
10 2b,10,2,79,right,31,yellow diamond,0.707,1,0
10 2b,10,2,532,left,31,yellow diamond,0.464,0,0
10 2b,10,2,49,left,31,yellow diamond,0.451,0,0
10 2b,10,2,631,left,0,yellow triangle,0.398,0,0
10 2b,10,2,205,left,0,yellow triangle,0.441,0,0
10 2b,10,2,8,right,0,yellow triangle,0.468,1,0
10 2b,10,2,564,right,0,yellow triangle,0.463,1,0
10 2b,10,2,503,right,0,yellow triangle,0.554,1,0
10 2b,10,2,94,left,0,yellow triangle,0.476,0,0
10 2c,9,2,376,left,0,blue circle,0.442,0,0
10 2c,9,2,130,right,0,blue circle,0.487,1,0
10 2c,9,2,139,right,0,blue circle,0.429,1,0
10 2c,9,2,181,right,0,blue circle,0.681,1,0
10 2c,9,2,53,left,0,blue circle,0.394,0,0
10 2c,9,2,470,right,0,blue circle,0.625,1,0
10 2c,9,2,599,right,0,blue diamond,0.438,1,0
10 2c,9,2,376,left,0,blue diamond,0.442,0,0
10 2c,9,2,245,right,0,blue diamond,0.393,1,0
10 2c,9,2,139,right,0,blue diamond,0.429,1,0
10 2c,9,2,41,left,0,blue diamond,0.492,0,0
10 2c,9,2,268,right,0,blue diamond,0.478,1,0
10 2c,9,2,443,right,1,blue diamond,0.363,1,0
10 2c,9,2,100,right,1,blue diamond,0.442,1,0
10 2c,9,2,428,right,1,blue diamond,0.547,1,0
10 2c,9,2,22,right,1,blue diamond,0.43,1,0
10 2c,9,2,449,left,1,blue diamond,0.437,0,0
10 2c,9,2,576,left,1,blue diamond,0.533,0,0
10 2c,9,2,507,right,4,blue diamond,0.524,1,0
10 2c,9,2,29,right,4,blue diamond,0.556,1,0
10 2c,9,2,244,right,4,blue diamond,0.53,1,0
10 2c,9,2,563,left,4,blue diamond,0.569,0,0
10 2c,9,2,99,left,4,blue diamond,0.39,0,0
10 2c,9,2,386,left,4,blue diamond,0.711,0,0
10 2c,9,2,16,right,9,blue diamond,0.615,1,0
10 2c,9,2,472,right,9,blue diamond,0.755,1,0
10 2c,9,2,510,left,9,blue diamond,0.405,0,0
10 2c,9,2,479,right,9,blue diamond,0.598,1,0
10 2c,9,2,604,right,9,blue diamond,0.551,1,0
10 2c,9,2,366,left,9,blue diamond,0.473,0,0
10 2c,9,2,387,right,19,blue diamond,0.451,1,0
10 2c,9,2,42,right,19,blue diamond,0.542,1,0
10 2c,9,2,333,right,19,blue diamond,0.435,1,0
10 2c,9,2,458,left,19,blue diamond,0.456,0,0
10 2c,9,2,77,right,19,blue diamond,0.559,1,0
10 2c,9,2,1,right,19,blue diamond,1.188,1,0
10 2c,9,2,316,left,31,blue diamond,0.497,0,0
10 2c,9,2,560,right,31,blue diamond,0.497,1,0
10 2c,9,2,490,right,31,blue diamond,0.982,1,0
10 2c,9,2,353,right,31,blue diamond,0.755,1,0
10 2c,9,2,140,left,31,blue diamond,0.432,0,0
10 2c,9,2,467,right,31,blue diamond,0.735,1,0
10 2c,9,2,368,left,0,blue triangle,0.377,0,0
10 2c,9,2,75,right,0,blue triangle,0.419,1,0
10 2c,9,2,327,left,0,blue triangle,0.438,0,0
10 2c,9,2,181,right,0,blue triangle,0.681,1,0
10 2c,9,2,556,left,0,blue triangle,0.45,0,0
10 2c,9,2,65,right,0,blue triangle,0.465,1,0
10 2c,9,2,368,left,0,orange circle,0.377,0,0
10 2c,9,2,556,left,0,orange circle,0.45,0,0
10 2c,9,2,376,left,0,orange circle,0.442,0,0
10 2c,9,2,327,left,0,orange circle,0.438,0,0
10 2c,9,2,38,right,0,orange circle,0.398,1,0
10 2c,9,2,139,right,0,orange circle,0.429,1,0
10 2c,9,2,488,right,0,orange diamond,0.443,1,0
10 2c,9,2,601,left,0,orange diamond,1.604,0,0
10 2c,9,2,193,right,0,orange diamond,0.444,1,0
10 2c,9,2,528,right,0,orange diamond,0.444,1,0
10 2c,9,2,130,right,0,orange diamond,0.487,1,0
10 2c,9,2,556,left,0,orange diamond,0.45,0,0
10 2c,9,2,528,right,0,orange triangle,0.444,1,0
10 2c,9,2,268,right,0,orange triangle,0.478,1,0
10 2c,9,2,41,left,0,orange triangle,0.492,0,0
10 2c,9,2,65,right,0,orange triangle,0.465,1,0
10 2c,9,2,45,right,0,orange triangle,0.465,1,0
10 2c,9,2,615,left,0,orange triangle,0.467,0,0
10 2c,9,2,276,left,1,orange triangle,0.345,0,0
10 2c,9,2,262,left,1,orange triangle,0.479,0,0
10 2c,9,2,562,left,1,orange triangle,0.392,0,0
10 2c,9,2,205,right,1,orange triangle,0.656,1,0
10 2c,9,2,613,left,1,orange triangle,0.404,0,0
10 2c,9,2,261,left,1,orange triangle,0.498,0,0
10 2c,9,2,338,left,4,orange triangle,0.565,0,0
10 2c,9,2,487,left,4,orange triangle,0.511,0,0
10 2c,9,2,243,left,4,orange triangle,0.474,0,0
10 2c,9,2,89,right,4,orange triangle,0.518,1,0
10 2c,9,2,95,left,4,orange triangle,0.387,0,0
10 2c,9,2,577,left,4,orange triangle,0.416,0,0
10 2c,9,2,155,right,9,orange triangle,0.489,1,0
10 2c,9,2,624,right,9,orange triangle,0.534,1,0
10 2c,9,2,51,right,9,orange triangle,0.464,1,0
10 2c,9,2,104,left,9,orange triangle,0.439,0,0
10 2c,9,2,532,left,9,orange triangle,0.58,0,0
10 2c,9,2,91,left,9,orange triangle,0.518,0,0
10 2c,9,2,62,right,19,orange triangle,0.598,1,0
10 2c,9,2,310,left,19,orange triangle,0.379,0,0
10 2c,9,2,330,left,19,orange triangle,0.467,0,0
10 2c,9,2,320,right,19,orange triangle,0.581,1,0
10 2c,9,2,55,right,19,orange triangle,0.436,1,0
10 2c,9,2,170,right,19,orange triangle,0.454,1,0
10 2c,9,2,267,right,31,orange triangle,0.727,1,0
10 2c,9,2,128,left,31,orange triangle,0.447,0,0
10 2c,9,2,241,right,31,orange triangle,0.516,1,0
10 2c,9,2,47,left,31,orange triangle,0.638,0,0
10 2c,9,2,71,right,31,orange triangle,0.498,1,0
10 2c,9,2,597,left,31,orange triangle,0.507,0,0
10 2c,9,2,45,right,0,yellow circle,0.465,1,0
10 2c,9,2,64,left,0,yellow circle,0.541,0,0
10 2c,9,2,339,left,0,yellow circle,0.527,0,0
10 2c,9,2,164,left,0,yellow circle,0.475,0,0
10 2c,9,2,53,left,0,yellow circle,0.394,0,0
10 2c,9,2,528,right,0,yellow circle,0.444,1,0
10 2c,9,2,358,left,1,yellow circle,0.381,0,0
10 2c,9,2,343,right,1,yellow circle,0.46,1,0
10 2c,9,2,88,left,1,yellow circle,0.426,0,0
10 2c,9,2,433,right,1,yellow circle,0.423,1,0
10 2c,9,2,574,right,1,yellow circle,0.396,1,0
10 2c,9,2,448,left,1,yellow circle,0.462,0,0
10 2c,9,2,304,left,4,yellow circle,0.431,0,0
10 2c,9,2,94,left,4,yellow circle,0.432,0,0
10 2c,9,2,375,right,4,yellow circle,0.687,1,0
10 2c,9,2,553,left,4,yellow circle,0.439,0,0
10 2c,9,2,232,right,4,yellow circle,0.533,1,0
10 2c,9,2,302,right,4,yellow circle,0.472,1,0
10 2c,9,2,437,left,9,yellow circle,0.473,0,0
10 2c,9,2,296,right,9,yellow circle,0.439,1,0
10 2c,9,2,485,right,9,yellow circle,0.597,1,0
10 2c,9,2,331,left,9,yellow circle,0.521,0,0
10 2c,9,2,334,right,9,yellow circle,0.379,1,0
10 2c,9,2,188,right,9,yellow circle,0.553,1,0
10 2c,9,2,524,right,19,yellow circle,0.465,1,0
10 2c,9,2,312,left,19,yellow circle,0.405,0,0
10 2c,9,2,587,right,19,yellow circle,0.561,1,0
10 2c,9,2,594,right,19,yellow circle,0.433,1,0
10 2c,9,2,226,left,19,yellow circle,0.894,0,0
10 2c,9,2,620,left,19,yellow circle,0.447,0,0
10 2c,9,2,459,left,31,yellow circle,0.429,0,0
10 2c,9,2,462,left,31,yellow circle,0.409,0,0
10 2c,9,2,203,left,31,yellow circle,0.521,0,0
10 2c,9,2,413,right,31,yellow circle,0.488,1,0
10 2c,9,2,161,right,31,yellow circle,0.757,1,0
10 2c,9,2,385,right,31,yellow circle,0.434,1,0
10 2c,9,2,65,right,0,yellow diamond,0.465,1,0
10 2c,9,2,399,left,0,yellow diamond,0.367,0,0
10 2c,9,2,79,left,0,yellow diamond,0.473,0,0
10 2c,9,2,327,left,0,yellow diamond,0.438,0,0
10 2c,9,2,75,right,0,yellow diamond,0.419,1,0
10 2c,9,2,2,right,0,yellow diamond,0.499,1,0
10 2c,9,2,601,left,0,yellow triangle,1.604,0,0
10 2c,9,2,488,right,0,yellow triangle,0.443,1,0
10 2c,9,2,556,left,0,yellow triangle,0.45,0,0
10 2c,9,2,38,right,0,yellow triangle,0.398,1,0
10 2c,9,2,327,left,0,yellow triangle,0.438,0,0
10 2c,9,2,53,left,0,yellow triangle,0.394,0,0
10 3b,10,3,202,right,0,blue,0.474,1,0
10 3b,10,3,423,left,0,blue,0.431,0,0
10 3b,10,3,583,left,0,blue,0.432,0,0
10 3b,10,3,241,left,0,blue,0.433,0,0
10 3b,10,3,596,right,0,blue,0.473,1,0
10 3b,10,3,625,left,0,blue,0.466,0,0
10 3b,10,3,293,left,0,circle,0.396,0,0
10 3b,10,3,202,right,0,circle,0.474,1,0
10 3b,10,3,130,left,0,circle,0.426,0,0
10 3b,10,3,140,left,0,circle,0.395,0,0
10 3b,10,3,122,right,0,circle,0.425,1,0
10 3b,10,3,290,right,0,circle,0.52,1,0
10 3b,10,3,514,left,1,circle,0.565,0,0
10 3b,10,3,305,right,1,circle,0.433,1,0
10 3b,10,3,67,left,1,circle,0.561,0,0
10 3b,10,3,63,left,1,circle,0.603,0,0
10 3b,10,3,540,right,1,circle,0.487,1,0
10 3b,10,3,451,left,1,circle,0.43,0,0
10 3b,10,3,236,right,4,circle,0.546,1,0
10 3b,10,3,595,right,4,circle,0.467,1,0
10 3b,10,3,61,left,4,circle,0.528,0,0
10 3b,10,3,125,right,4,circle,0.454,1,0
10 3b,10,3,558,right,4,circle,0.429,1,0
10 3b,10,3,75,right,4,circle,0.426,1,0
10 3b,10,3,237,left,9,circle,0.436,0,0
10 3b,10,3,526,left,9,circle,0.377,0,0
10 3b,10,3,352,left,9,circle,0.41,0,0
10 3b,10,3,547,right,9,circle,0.5,1,0
10 3b,10,3,185,left,9,circle,0.633,0,0
10 3b,10,3,204,left,9,circle,0.561,0,0
10 3b,10,3,473,left,19,circle,0.411,0,0
10 3b,10,3,418,right,19,circle,0.394,1,0
10 3b,10,3,533,left,19,circle,0.389,0,0
10 3b,10,3,193,right,19,circle,0.445,1,0
10 3b,10,3,453,left,19,circle,0.49,0,0
10 3b,10,3,405,left,19,circle,0.431,0,0
10 3b,10,3,196,right,31,circle,0.522,1,0
10 3b,10,3,54,left,31,circle,0.679,0,0
10 3b,10,3,85,right,31,circle,0.553,1,0
10 3b,10,3,612,left,31,circle,0.687,0,0
10 3b,10,3,502,right,31,circle,0.453,1,0
10 3b,10,3,358,left,31,circle,0.467,0,0
10 3b,10,3,122,right,0,diamond,0.425,1,0
10 3b,10,3,255,right,0,diamond,0.54,1,0
10 3b,10,3,389,left,0,diamond,0.394,0,0
10 3b,10,3,512,right,0,diamond,0.469,1,0
10 3b,10,3,140,left,0,diamond,0.395,0,0
10 3b,10,3,439,left,0,diamond,0.436,0,0
10 3b,10,3,201,right,1,diamond,0.659,1,0
10 3b,10,3,10,right,1,diamond,0.474,1,0
10 3b,10,3,593,right,1,diamond,0.699,1,0
10 3b,10,3,599,right,1,diamond,0.416,1,0
10 3b,10,3,364,left,1,diamond,0.45,0,0
10 3b,10,3,291,right,1,diamond,0.471,1,0
10 3b,10,3,84,right,4,diamond,0.59,1,0
10 3b,10,3,318,left,4,diamond,0.378,0,0
10 3b,10,3,551,left,4,diamond,0.567,0,0
10 3b,10,3,553,right,4,diamond,0.379,1,0
10 3b,10,3,171,right,4,diamond,0.633,1,0
10 3b,10,3,598,left,4,diamond,0.547,0,0
10 3b,10,3,437,left,9,diamond,0.655,0,0
10 3b,10,3,381,left,9,diamond,0.525,0,0
10 3b,10,3,449,left,9,diamond,0.474,0,0
10 3b,10,3,44,right,9,diamond,0.548,1,0
10 3b,10,3,169,left,9,diamond,0.523,0,0
10 3b,10,3,569,right,9,diamond,0.618,1,0
10 3b,10,3,260,left,19,diamond,0.823,0,0
10 3b,10,3,476,right,19,diamond,0.757,1,0
10 3b,10,3,620,left,19,diamond,0.44,0,0
10 3b,10,3,560,left,19,diamond,0.616,0,0
10 3b,10,3,519,right,19,diamond,0.453,1,0
10 3b,10,3,207,left,19,diamond,0.521,0,0
10 3b,10,3,82,left,31,diamond,0.524,0,0
10 3b,10,3,375,left,31,diamond,0.397,0,0
10 3b,10,3,214,right,31,diamond,0.596,1,0
10 3b,10,3,110,right,31,diamond,0.564,1,0
10 3b,10,3,624,right,31,diamond,0.642,1,0
10 3b,10,3,192,left,31,diamond,0.75,0,0
10 3b,10,3,269,right,0,orange,0.383,1,0
10 3b,10,3,64,left,0,orange,0.449,0,0
10 3b,10,3,160,right,0,orange,0.442,1,0
10 3b,10,3,581,right,0,orange,0.467,1,0
10 3b,10,3,293,left,0,orange,0.396,0,0
10 3b,10,3,600,left,0,orange,0.428,0,0
10 3b,10,3,515,right,0,semicircle,0.428,1,0
10 3b,10,3,202,right,0,semicircle,0.474,1,0
10 3b,10,3,325,right,0,semicircle,0.443,1,0
10 3b,10,3,342,right,0,semicircle,0.458,1,0
10 3b,10,3,37,right,0,semicircle,0.514,1,0
10 3b,10,3,269,right,0,semicircle,0.383,1,0
10 3b,10,3,359,right,1,semicircle,0.456,1,0
10 3b,10,3,151,left,1,semicircle,0.462,0,0
10 3b,10,3,46,right,1,semicircle,0.693,1,0
10 3b,10,3,577,right,1,semicircle,0.449,1,0
10 3b,10,3,226,right,1,semicircle,0.464,1,0
10 3b,10,3,163,right,1,semicircle,0.467,1,0
10 3b,10,3,92,right,4,semicircle,0.561,1,0
10 3b,10,3,576,right,4,semicircle,0.495,1,0
10 3b,10,3,294,left,4,semicircle,0.398,0,0
10 3b,10,3,56,left,4,semicircle,0.793,0,0
10 3b,10,3,177,right,4,semicircle,0.827,1,0
10 3b,10,3,71,right,4,semicircle,0.507,1,0
10 3b,10,3,20,right,9,semicircle,0.966,1,0
10 3b,10,3,69,left,9,semicircle,0.639,0,0
10 3b,10,3,401,left,9,semicircle,0.542,0,0
10 3b,10,3,161,right,9,semicircle,0.518,1,0
10 3b,10,3,544,right,9,semicircle,0.461,1,0
10 3b,10,3,460,right,9,semicircle,0.662,1,0
10 3b,10,3,509,left,19,semicircle,0.834,0,0
10 3b,10,3,573,left,19,semicircle,0.901,0,0
10 3b,10,3,565,right,19,semicircle,0.561,1,0
10 3b,10,3,238,left,19,semicircle,0.569,0,0
10 3b,10,3,320,right,19,semicircle,0.992,1,0
10 3b,10,3,442,left,19,semicircle,0.58,0,0
10 3b,10,3,317,right,31,semicircle,0.663,1,0
10 3b,10,3,111,right,31,semicircle,0.902,1,0
10 3b,10,3,173,left,31,semicircle,0.711,0,0
10 3b,10,3,43,right,31,semicircle,0.75,1,0
10 3b,10,3,539,right,31,semicircle,0.902,1,0
10 3b,10,3,529,left,31,semicircle,0.747,0,0
10 3b,10,3,512,right,0,yellow,0.469,1,0
10 3b,10,3,186,left,0,yellow,0.445,0,0
10 3b,10,3,515,right,0,yellow,0.428,1,0
10 3b,10,3,37,right,0,yellow,0.514,1,0
10 3b,10,3,583,left,0,yellow,0.432,0,0
10 3b,10,3,160,right,0,yellow,0.442,1,0
10 4a,14,4,516,left,0,blue circle,0.369,0,0
10 4a,14,4,455,right,0,blue circle,0.531,1,0
10 4a,14,4,625,left,0,blue circle,0.365,0,0
10 4a,14,4,323,left,0,blue circle,0.41,0,0
10 4a,14,4,515,right,0,blue circle,0.556,1,0
10 4a,14,4,444,left,0,blue circle,0.665,0,0
10 4a,14,4,101,left,1,blue circle,0.411,0,0
10 4a,14,4,560,right,1,blue circle,0.738,1,0
10 4a,14,4,314,right,1,blue circle,0.397,1,0
10 4a,14,4,552,right,1,blue circle,0.588,1,0
10 4a,14,4,110,right,1,blue circle,0.437,1,0
10 4a,14,4,277,right,1,blue circle,0.517,1,0
10 4a,14,4,443,right,4,blue circle,0.403,1,0
10 4a,14,4,364,left,4,blue circle,0.419,0,0
10 4a,14,4,357,right,4,blue circle,0.423,1,0
10 4a,14,4,117,left,4,blue circle,0.426,0,0
10 4a,14,4,272,left,4,blue circle,0.443,0,0
10 4a,14,4,631,right,4,blue circle,0.4,1,0
10 4a,14,4,189,right,9,blue circle,0.418,1,0
10 4a,14,4,176,left,9,blue circle,0.389,0,0
10 4a,14,4,602,left,9,blue circle,0.432,0,0
10 4a,14,4,383,right,9,blue circle,0.576,1,0
10 4a,14,4,293,right,9,blue circle,0.403,1,0
10 4a,14,4,321,right,9,blue circle,0.414,1,0
10 4a,14,4,322,left,19,blue circle,0.446,0,0
10 4a,14,4,416,left,19,blue circle,0.527,0,0
10 4a,14,4,241,right,19,blue circle,0.704,1,0
10 4a,14,4,494,right,19,blue circle,0.462,1,0
10 4a,14,4,498,right,19,blue circle,0.434,1,0
10 4a,14,4,490,left,19,blue circle,0.463,0,0
10 4a,14,4,401,right,31,blue circle,0.77,1,0
10 4a,14,4,25,left,31,blue circle,0.367,0,0
10 4a,14,4,173,right,31,blue circle,0.415,1,0
10 4a,14,4,626,left,31,blue circle,0.495,0,0
10 4a,14,4,94,left,31,blue circle,0.642,0,0
10 4a,14,4,418,right,31,blue circle,1.104,1,0
10 4a,14,4,521,left,0,blue diamond,0.494,0,0
10 4a,14,4,58,left,0,blue diamond,0.353,0,0
10 4a,14,4,516,left,0,blue diamond,0.369,0,0
10 4a,14,4,310,left,0,blue diamond,0.395,0,0
10 4a,14,4,236,right,0,blue diamond,0.352,1,0
10 4a,14,4,263,right,0,blue diamond,0.39,1,0
10 4a,14,4,323,left,0,blue semicircle,0.41,0,0
10 4a,14,4,385,right,0,blue semicircle,0.671,1,0
10 4a,14,4,39,left,0,blue semicircle,0.383,0,0
10 4a,14,4,263,right,0,blue semicircle,0.39,1,0
10 4a,14,4,444,left,0,blue semicircle,0.665,0,0
10 4a,14,4,553,right,0,blue semicircle,0.378,1,0
10 4a,14,4,333,right,0,orange circle,0.429,1,0
10 4a,14,4,317,left,0,orange circle,0.475,0,0
10 4a,14,4,39,left,0,orange circle,0.383,0,0
10 4a,14,4,632,left,0,orange circle,0.456,0,0
10 4a,14,4,444,left,0,orange circle,0.665,0,0
10 4a,14,4,429,left,0,orange circle,0.384,0,0
10 4a,14,4,147,left,0,orange diamond,0.353,0,0
10 4a,14,4,333,right,0,orange diamond,0.429,1,0
10 4a,14,4,379,left,0,orange diamond,0.349,0,0
10 4a,14,4,562,left,0,orange diamond,0.408,0,0
10 4a,14,4,382,right,0,orange diamond,0.39,1,0
10 4a,14,4,370,left,0,orange diamond,0.388,0,0
10 4a,14,4,77,left,1,orange diamond,0.404,0,0
10 4a,14,4,200,left,1,orange diamond,0.44,0,0
10 4a,14,4,155,right,1,orange diamond,0.407,1,0
10 4a,14,4,520,right,1,orange diamond,0.393,1,0
10 4a,14,4,79,left,1,orange diamond,0.343,0,0
10 4a,14,4,527,right,1,orange diamond,0.427,1,0
10 4a,14,4,28,left,4,orange diamond,0.589,0,0
10 4a,14,4,639,right,4,orange diamond,0.397,1,0
10 4a,14,4,484,right,4,orange diamond,0.474,1,0
10 4a,14,4,352,left,4,orange diamond,0.443,0,0
10 4a,14,4,133,right,4,orange diamond,0.451,1,0
10 4a,14,4,601,right,4,orange diamond,0.562,1,0
10 4a,14,4,350,right,9,orange diamond,0.465,1,0
10 4a,14,4,150,right,9,orange diamond,0.495,1,0
10 4a,14,4,353,left,9,orange diamond,0.496,0,0
10 4a,14,4,543,left,9,orange diamond,0.523,0,0
10 4a,14,4,129,left,9,orange diamond,0.54,0,0
10 4a,14,4,69,left,9,orange diamond,0.347,0,0
10 4a,14,4,542,left,19,orange diamond,0.667,0,0
10 4a,14,4,227,right,19,orange diamond,0.506,1,0
10 4a,14,4,222,right,19,orange diamond,0.383,1,0
10 4a,14,4,178,left,19,orange diamond,0.466,0,0
10 4a,14,4,104,right,19,orange diamond,0.995,1,0
10 4a,14,4,217,right,19,orange diamond,0.488,1,0
10 4a,14,4,193,right,31,orange diamond,0.559,1,0
10 4a,14,4,597,right,31,orange diamond,0.62,1,0
10 4a,14,4,261,right,31,orange diamond,0.396,1,0
10 4a,14,4,496,right,31,orange diamond,0.446,1,0
10 4a,14,4,411,left,31,orange diamond,0.594,0,0
10 4a,14,4,627,left,31,orange diamond,0.452,0,0
10 4a,14,4,521,left,0,orange semicircle,0.494,0,0
10 4a,14,4,65,right,0,orange semicircle,0.367,1,0
10 4a,14,4,333,right,0,orange semicircle,0.429,1,0
10 4a,14,4,417,left,0,orange semicircle,0.873,0,0
10 4a,14,4,625,left,0,orange semicircle,0.365,0,0
10 4a,14,4,370,left,0,orange semicircle,0.388,0,0
10 4a,14,4,58,left,0,yellow circle,0.353,0,0
10 4a,14,4,470,right,0,yellow circle,0.549,1,0
10 4a,14,4,236,right,0,yellow circle,0.352,1,0
10 4a,14,4,485,right,0,yellow circle,0.33,1,0
10 4a,14,4,379,left,0,yellow circle,0.349,0,0
10 4a,14,4,506,right,0,yellow circle,0.457,1,0
10 4a,14,4,146,right,0,yellow diamond,0.349,1,0
10 4a,14,4,333,right,0,yellow diamond,0.429,1,0
10 4a,14,4,516,left,0,yellow diamond,0.369,0,0
10 4a,14,4,379,left,0,yellow diamond,0.349,0,0
10 4a,14,4,65,right,0,yellow diamond,0.367,1,0
10 4a,14,4,521,left,0,yellow diamond,0.494,0,0
10 4a,14,4,310,left,0,yellow semicircle,0.395,0,0
10 4a,14,4,39,left,0,yellow semicircle,0.383,0,0
10 4a,14,4,591,right,0,yellow semicircle,0.82,1,0
10 4a,14,4,202,left,0,yellow semicircle,0.676,0,0
10 4a,14,4,333,right,0,yellow semicircle,0.429,1,0
10 4a,14,4,417,left,0,yellow semicircle,0.873,0,0
10 4a,14,4,68,left,1,yellow semicircle,0.371,0,0
10 4a,14,4,87,left,1,yellow semicircle,0.343,0,0
10 4a,14,4,208,right,1,yellow semicircle,0.389,1,0
10 4a,14,4,526,left,1,yellow semicircle,0.48,0,0
10 4a,14,4,330,right,1,yellow semicircle,0.407,1,0
10 4a,14,4,97,right,1,yellow semicircle,0.37,1,0
10 4a,14,4,567,right,4,yellow semicircle,0.465,1,0
10 4a,14,4,188,right,4,yellow semicircle,0.376,1,0
10 4a,14,4,116,right,4,yellow semicircle,0.416,1,0
10 4a,14,4,344,left,4,yellow semicircle,0.505,0,0
10 4a,14,4,474,left,4,yellow semicircle,0.41,0,0
10 4a,14,4,428,right,4,yellow semicircle,0.621,1,0
10 4a,14,4,608,right,9,yellow semicircle,0.707,1,0
10 4a,14,4,265,right,9,yellow semicircle,0.504,1,0
10 4a,14,4,362,left,9,yellow semicircle,0.619,0,0
10 4a,14,4,479,right,9,yellow semicircle,0.415,1,0
10 4a,14,4,250,left,9,yellow semicircle,0.44,0,0
10 4a,14,4,181,right,9,yellow semicircle,0.534,1,0
10 4a,14,4,303,left,19,yellow semicircle,0.496,0,0
10 4a,14,4,522,left,19,yellow semicircle,0.544,0,0
10 4a,14,4,407,left,19,yellow semicircle,0.453,0,0
10 4a,14,4,259,right,19,yellow semicircle,0.405,1,0
10 4a,14,4,582,right,19,yellow semicircle,0.405,1,0
10 4a,14,4,381,left,19,yellow semicircle,0.417,0,0
10 4a,14,4,435,right,31,yellow semicircle,0.493,1,0
10 4a,14,4,388,left,31,yellow semicircle,0.441,0,0
10 4a,14,4,281,left,31,yellow semicircle,0.871,0,0
10 4a,14,4,57,right,31,yellow semicircle,0.456,1,0
10 4a,14,4,489,left,31,yellow semicircle,0.516,0,0
10 4a,14,4,492,left,31,yellow semicircle,0.424,0,0
10 4b,2,4,639,right,0,blue circle,0.404,1,0
10 4b,2,4,392,left,0,blue circle,0.442,0,0
10 4b,2,4,28,right,0,blue circle,0.375,1,0
10 4b,2,4,579,left,0,blue circle,0.445,0,0
10 4b,2,4,143,right,0,blue circle,0.505,1,0
10 4b,2,4,462,right,0,blue circle,0.591,1,0
10 4b,2,4,40,right,0,blue diamond,0.411,1,0
10 4b,2,4,613,right,0,blue diamond,0.447,1,0
10 4b,2,4,88,right,0,blue diamond,0.396,1,0
10 4b,2,4,597,left,0,blue diamond,0.612,0,0
10 4b,2,4,254,right,0,blue diamond,0.361,1,0
10 4b,2,4,144,right,0,blue diamond,0.423,1,0
10 4b,2,4,249,left,0,blue semicircle,0.435,0,0
10 4b,2,4,349,left,0,blue semicircle,0.468,0,0
10 4b,2,4,489,left,0,blue semicircle,0.528,0,0
10 4b,2,4,372,left,0,blue semicircle,0.573,0,0
10 4b,2,4,174,left,0,blue semicircle,0.39,0,0
10 4b,2,4,452,right,0,blue semicircle,0.477,1,0
10 4b,2,4,329,right,1,blue semicircle,0.364,1,0
10 4b,2,4,358,right,1,blue semicircle,0.366,1,0
10 4b,2,4,9,right,1,blue semicircle,0.343,1,0
10 4b,2,4,549,right,1,blue semicircle,0.466,1,0
10 4b,2,4,134,left,1,blue semicircle,0.399,0,0
10 4b,2,4,204,right,1,blue semicircle,0.438,1,0
10 4b,2,4,633,right,4,blue semicircle,0.379,1,0
10 4b,2,4,479,left,4,blue semicircle,0.44,0,0
10 4b,2,4,501,right,4,blue semicircle,0.462,1,0
10 4b,2,4,401,left,4,blue semicircle,0.481,0,0
10 4b,2,4,22,left,4,blue semicircle,0.393,0,0
10 4b,2,4,334,left,4,blue semicircle,0.533,0,0
10 4b,2,4,544,right,9,blue semicircle,0.393,1,0
10 4b,2,4,101,right,9,blue semicircle,0.57,1,0
10 4b,2,4,405,left,9,blue semicircle,0.561,0,0
10 4b,2,4,403,right,9,blue semicircle,0.407,1,0
10 4b,2,4,486,right,9,blue semicircle,0.513,1,0
10 4b,2,4,72,right,9,blue semicircle,0.406,1,0
10 4b,2,4,371,right,19,blue semicircle,0.373,1,0
10 4b,2,4,586,right,19,blue semicircle,0.423,1,0
10 4b,2,4,470,left,19,blue semicircle,0.421,0,0
10 4b,2,4,469,left,19,blue semicircle,0.448,0,0
10 4b,2,4,122,left,19,blue semicircle,0.367,0,0
10 4b,2,4,410,left,19,blue semicircle,0.425,0,0
10 4b,2,4,383,left,31,blue semicircle,0.464,0,0
10 4b,2,4,161,left,31,blue semicircle,0.482,0,0
10 4b,2,4,576,left,31,blue semicircle,0.561,0,0
10 4b,2,4,631,right,31,blue semicircle,0.369,1,0
10 4b,2,4,76,left,31,blue semicircle,0.339,0,0
10 4b,2,4,539,right,31,blue semicircle,0.437,1,0
10 4b,2,4,28,right,0,orange circle,0.375,1,0
10 4b,2,4,318,right,0,orange circle,0.338,1,0
10 4b,2,4,144,right,0,orange circle,0.423,1,0
10 4b,2,4,112,left,0,orange circle,0.336,0,0
10 4b,2,4,103,left,0,orange circle,0.523,0,0
10 4b,2,4,639,right,0,orange circle,0.404,1,0
10 4b,2,4,321,right,1,orange circle,0.452,1,0
10 4b,2,4,526,left,1,orange circle,0.431,0,0
10 4b,2,4,632,left,1,orange circle,0.339,0,0
10 4b,2,4,2,right,1,orange circle,0.379,1,0
10 4b,2,4,587,left,1,orange circle,0.38,0,0
10 4b,2,4,41,left,1,orange circle,0.504,0,0
10 4b,2,4,13,left,4,orange circle,0.358,0,0
10 4b,2,4,162,left,4,orange circle,0.345,0,0
10 4b,2,4,117,left,4,orange circle,0.408,0,0
10 4b,2,4,406,left,4,orange circle,0.612,0,0
10 4b,2,4,78,right,4,orange circle,0.417,1,0
10 4b,2,4,97,right,4,orange circle,0.41,1,0
10 4b,2,4,487,left,9,orange circle,0.501,0,0
10 4b,2,4,436,right,9,orange circle,0.425,1,0
10 4b,2,4,413,left,9,orange circle,0.385,0,0
10 4b,2,4,446,left,9,orange circle,0.421,0,0
10 4b,2,4,522,left,9,orange circle,0.354,0,0
10 4b,2,4,442,left,9,orange circle,0.381,0,0
10 4b,2,4,137,right,19,orange circle,0.528,1,0
10 4b,2,4,473,left,19,orange circle,0.386,0,0
10 4b,2,4,48,left,19,orange circle,0.415,0,0
10 4b,2,4,614,right,19,orange circle,0.458,1,0
10 4b,2,4,319,left,19,orange circle,0.513,0,0
10 4b,2,4,39,left,19,orange circle,0.647,0,0
10 4b,2,4,5,right,31,orange circle,0.41,1,0
10 4b,2,4,355,right,31,orange circle,0.558,1,0
10 4b,2,4,237,left,31,orange circle,0.364,0,0
10 4b,2,4,388,left,31,orange circle,0.491,0,0
10 4b,2,4,81,left,31,orange circle,0.525,0,0
10 4b,2,4,375,right,31,orange circle,0.368,1,0
10 4b,2,4,475,left,0,orange diamond,0.357,0,0
10 4b,2,4,416,left,0,orange diamond,0.33,0,0
10 4b,2,4,507,right,0,orange diamond,0.339,1,0
10 4b,2,4,613,right,0,orange diamond,0.447,1,0
10 4b,2,4,349,left,0,orange diamond,0.468,0,0
10 4b,2,4,597,left,0,orange diamond,0.612,0,0
10 4b,2,4,88,right,0,orange semicircle,0.396,1,0
10 4b,2,4,484,right,0,orange semicircle,0.503,1,0
10 4b,2,4,254,right,0,orange semicircle,0.361,1,0
10 4b,2,4,112,left,0,orange semicircle,0.336,0,0
10 4b,2,4,588,left,0,orange semicircle,0.379,0,0
10 4b,2,4,249,left,0,orange semicircle,0.435,0,0
10 4b,2,4,349,left,0,yellow circle,0.468,0,0
10 4b,2,4,347,right,0,yellow circle,0.35,1,0
10 4b,2,4,165,left,0,yellow circle,0.435,0,0
10 4b,2,4,275,left,0,yellow circle,0.365,0,0
10 4b,2,4,613,right,0,yellow circle,0.447,1,0
10 4b,2,4,588,left,0,yellow circle,0.379,0,0
10 4b,2,4,588,left,0,yellow diamond,0.379,0,0
10 4b,2,4,416,left,0,yellow diamond,0.33,0,0
10 4b,2,4,452,right,0,yellow diamond,0.477,1,0
10 4b,2,4,249,left,0,yellow diamond,0.435,0,0
10 4b,2,4,228,left,0,yellow diamond,0.407,0,0
10 4b,2,4,144,right,0,yellow diamond,0.423,1,0
10 4b,2,4,133,right,1,yellow diamond,0.345,1,0
10 4b,2,4,240,left,1,yellow diamond,0.495,0,0
10 4b,2,4,444,right,1,yellow diamond,0.457,1,0
10 4b,2,4,15,right,1,yellow diamond,0.435,1,0
10 4b,2,4,342,right,1,yellow diamond,0.343,1,0
10 4b,2,4,364,left,1,yellow diamond,0.398,0,0
10 4b,2,4,340,right,4,yellow diamond,0.387,1,0
10 4b,2,4,277,left,4,yellow diamond,0.357,0,0
10 4b,2,4,338,left,4,yellow diamond,0.351,0,0
10 4b,2,4,192,left,4,yellow diamond,0.594,0,0
10 4b,2,4,455,left,4,yellow diamond,0.419,0,0
10 4b,2,4,157,right,4,yellow diamond,0.364,1,0
10 4b,2,4,3,left,9,yellow diamond,0.434,0,0
10 4b,2,4,100,right,9,yellow diamond,0.372,1,0
10 4b,2,4,127,left,9,yellow diamond,0.392,0,0
10 4b,2,4,636,right,9,yellow diamond,0.438,1,0
10 4b,2,4,324,left,9,yellow diamond,0.472,0,0
10 4b,2,4,540,left,9,yellow diamond,0.372,0,0
10 4b,2,4,360,right,19,yellow diamond,0.519,1,0
10 4b,2,4,638,left,19,yellow diamond,0.341,0,0
10 4b,2,4,272,right,19,yellow diamond,0.355,1,0
10 4b,2,4,10,left,19,yellow diamond,0.457,0,0
10 4b,2,4,184,right,19,yellow diamond,0.489,1,0
10 4b,2,4,380,left,19,yellow diamond,0.548,0,0
10 4b,2,4,251,right,31,yellow diamond,0.502,1,0
10 4b,2,4,92,left,31,yellow diamond,0.532,0,0
10 4b,2,4,267,left,31,yellow diamond,0.481,0,0
10 4b,2,4,220,left,31,yellow diamond,0.569,0,0
10 4b,2,4,30,left,31,yellow diamond,0.333,0,0
10 4b,2,4,459,right,31,yellow diamond,0.458,1,0
10 4b,2,4,597,left,0,yellow semicircle,0.612,0,0
10 4b,2,4,103,left,0,yellow semicircle,0.523,0,0
10 4b,2,4,254,right,0,yellow semicircle,0.361,1,0
10 4b,2,4,275,left,0,yellow semicircle,0.365,0,0
10 4b,2,4,174,left,0,yellow semicircle,0.39,0,0
10 4b,2,4,613,right,0,yellow semicircle,0.447,1,0
10 4c,8,4,298,left,0,blue circle,0.429,0,0
10 4c,8,4,404,left,0,blue circle,0.366,0,0
10 4c,8,4,587,right,0,blue circle,0.458,1,0
10 4c,8,4,576,right,0,blue circle,0.425,1,0
10 4c,8,4,380,left,0,blue circle,0.441,0,0
10 4c,8,4,150,left,0,blue circle,0.426,0,0
10 4c,8,4,407,right,0,blue diamond,0.424,1,0
10 4c,8,4,523,left,0,blue diamond,0.444,0,0
10 4c,8,4,329,right,0,blue diamond,0.522,1,0
10 4c,8,4,75,left,0,blue diamond,0.366,0,0
10 4c,8,4,488,left,0,blue diamond,0.414,0,0
10 4c,8,4,260,left,0,blue diamond,0.414,0,0
10 4c,8,4,122,right,1,blue diamond,0.433,1,0
10 4c,8,4,127,right,1,blue diamond,0.536,1,0
10 4c,8,4,29,left,1,blue diamond,0.577,0,0
10 4c,8,4,567,right,1,blue diamond,0.663,1,0
10 4c,8,4,513,left,1,blue diamond,0.479,0,0
10 4c,8,4,602,right,1,blue diamond,0.417,1,0
10 4c,8,4,268,right,4,blue diamond,0.576,1,0
10 4c,8,4,256,left,4,blue diamond,0.629,0,0
10 4c,8,4,352,right,4,blue diamond,0.48,1,0
10 4c,8,4,361,right,4,blue diamond,0.71,1,0
10 4c,8,4,14,right,4,blue diamond,0.54,1,0
10 4c,8,4,280,right,4,blue diamond,0.585,1,0
10 4c,8,4,30,left,9,blue diamond,0.505,0,0
10 4c,8,4,502,left,9,blue diamond,0.485,0,0
10 4c,8,4,527,left,9,blue diamond,0.506,0,0
10 4c,8,4,476,right,9,blue diamond,0.446,1,0
10 4c,8,4,113,right,9,blue diamond,0.4,1,0
10 4c,8,4,103,right,9,blue diamond,0.596,1,0
10 4c,8,4,140,left,19,blue diamond,0.511,0,0
10 4c,8,4,254,left,19,blue diamond,0.504,0,0
10 4c,8,4,350,right,19,blue diamond,0.723,1,0
10 4c,8,4,126,right,19,blue diamond,0.402,1,0
10 4c,8,4,326,left,19,blue diamond,0.466,0,0
10 4c,8,4,125,right,19,blue diamond,0.55,1,0
10 4c,8,4,246,left,31,blue diamond,0.474,0,0
10 4c,8,4,389,left,31,blue diamond,0.33,0,0
10 4c,8,4,469,right,31,blue diamond,0.681,1,0
10 4c,8,4,420,left,31,blue diamond,0.477,0,0
10 4c,8,4,323,left,31,blue diamond,0.661,0,0
10 4c,8,4,200,right,31,blue diamond,0.559,1,0
10 4c,8,4,370,left,0,blue semicircle,0.504,0,0
10 4c,8,4,587,right,0,blue semicircle,0.458,1,0
10 4c,8,4,380,left,0,blue semicircle,0.441,0,0
10 4c,8,4,356,left,0,blue semicircle,0.507,0,0
10 4c,8,4,329,right,0,blue semicircle,0.522,1,0
10 4c,8,4,233,left,0,blue semicircle,0.371,0,0
10 4c,8,4,444,left,0,orange circle,0.487,0,0
10 4c,8,4,75,left,0,orange circle,0.366,0,0
10 4c,8,4,370,left,0,orange circle,0.504,0,0
10 4c,8,4,598,right,0,orange circle,0.392,1,0
10 4c,8,4,407,right,0,orange circle,0.424,1,0
10 4c,8,4,576,right,0,orange circle,0.425,1,0
10 4c,8,4,71,right,0,orange diamond,0.454,1,0
10 4c,8,4,54,left,0,orange diamond,0.444,0,0
10 4c,8,4,519,right,0,orange diamond,0.456,1,0
10 4c,8,4,298,left,0,orange diamond,0.429,0,0
10 4c,8,4,473,right,0,orange diamond,0.471,1,0
10 4c,8,4,289,right,0,orange diamond,0.398,1,0
10 4c,8,4,329,right,0,orange semicircle,0.522,1,0
10 4c,8,4,75,left,0,orange semicircle,0.366,0,0
10 4c,8,4,289,right,0,orange semicircle,0.398,1,0
10 4c,8,4,71,right,0,orange semicircle,0.454,1,0
10 4c,8,4,407,right,0,orange semicircle,0.424,1,0
10 4c,8,4,533,left,0,orange semicircle,0.801,0,0
10 4c,8,4,169,left,1,orange semicircle,0.517,0,0
10 4c,8,4,506,right,1,orange semicircle,0.401,1,0
10 4c,8,4,132,left,1,orange semicircle,0.425,0,0
10 4c,8,4,593,right,1,orange semicircle,0.526,1,0
10 4c,8,4,503,left,1,orange semicircle,0.385,0,0
10 4c,8,4,27,right,1,orange semicircle,0.633,1,0
10 4c,8,4,328,left,4,orange semicircle,0.456,0,0
10 4c,8,4,499,right,4,orange semicircle,0.503,1,0
10 4c,8,4,544,right,4,orange semicircle,0.747,1,0
10 4c,8,4,40,right,4,orange semicircle,0.578,1,0
10 4c,8,4,498,right,4,orange semicircle,0.546,1,0
10 4c,8,4,101,right,4,orange semicircle,0.471,1,0
10 4c,8,4,462,left,9,orange semicircle,0.499,0,0
10 4c,8,4,177,right,9,orange semicircle,0.613,1,0
10 4c,8,4,115,left,9,orange semicircle,0.522,0,0
10 4c,8,4,34,right,9,orange semicircle,0.608,1,0
10 4c,8,4,207,left,9,orange semicircle,0.675,0,0
10 4c,8,4,397,right,9,orange semicircle,0.595,1,0
10 4c,8,4,297,right,19,orange semicircle,0.459,1,0
10 4c,8,4,204,left,19,orange semicircle,0.655,0,0
10 4c,8,4,426,left,19,orange semicircle,0.54,0,0
