ImageFile,targ_side,correctAnswer,trials_2.thisRepN,trials_2.thisTrialN,trials_2.thisN,trials_2.thisIndex,trials.thisRepN,trials.thisTrialN,trials.thisN,trials.thisIndex,text_2.started,text_2.stopped,key_resp_5.keys,key_resp_5.rt,key_resp_5.started,key_resp_5.stopped,image.started,image.stopped,key_resp_4.keys,key_resp_4.corr,key_resp_4.rt,key_resp_4.started,key_resp_4.stopped,text.started,text.stopped,key_resp_3.keys,key_resp_3.rt,key_resp_3.started,key_resp_3.stopped,dispStimuli.started,dispStimuli.stopped,key_resp_2.keys,key_resp_2.corr,key_resp_2.rt,key_resp_2.started,key_resp_2.stopped,breakMessage.started,breakMessage.stopped,key_resp.keys,key_resp.started,key_resp.stopped,key_resp.rt,participant,session,date,expName,psychopyVersion,frameRate,
,,,,,,,,,,,9.745434263371862,None,space,2.449541058333125,9.745434263371862,None,,,,,,,,,,,,,,,,,,,,,,,,,,,1,001,2020_Oct_13_1240,searchDisc,2020.2.2,59.888923377184625,
images/exp1a_trial_20_colour2_distractors1_l.png,l,1,0,0,0,0,,,,,,,,,,,12.348011978145223,None,1,1,1.2707995735108852,12.348011978145223,None,,,,,,,,,,,,,,,,,,,,1,001,2020_Oct_13_1240,searchDisc,2020.2.2,59.888923377184625,
,,,,,,,,,,,,,,,,,,,,,,,,13.64955347427167,None,space,1.6287734206416644,18.63773785479134,None,,,,,,,,,,,,,,1,001,2020_Oct_13_1240,searchDisc,2020.2.2,59.888923377184625,
images/exp1a_trial_79_colour1_distractors1_l.png,l,1,,,,,0,0,0,79,,,,,,,,,,,,,,,,,,,,20.389212087204214,None,1,1,0.4373030409915373,20.389212087204214,None,None,None,None,None,None,,1,001,2020_Oct_13_1240,searchDisc,2020.2.2,59.888923377184625,
images/exp1a_trial_34_colour1_distractors9_r.png,r,2,,,,,0,1,1,34,,,,,,,,,,,,,,,,,,,,20.9897808523383,None,2,1,0.3488318140152842,20.9897808523383,None,None,None,None,None,None,,1,001,2020_Oct_13_1240,searchDisc,2020.2.2,59.888923377184625,
images/exp1a_trial_68_colour1_distractors31_r.png,r,2,,,,,0,2,2,68,,,,,,,,,,,,,,,,,,,,21.456922460522037,None,1,0,0.28161551809171215,21.456922460522037,None,None,None,None,None,None,,1,001,2020_Oct_13_1240,searchDisc,2020.2.2,59.888923377184625,
images/exp1a_trial_69_colour2_distractors1_r.png,r,2,,,,,0,3,3,69,,,,,,,,,,,,,,,,,,,,21.857322330528405,None,2,1,0.24141220393357798,21.857322330528405,None,None,None,None,None,None,,1,001,2020_Oct_13_1240,searchDisc,2020.2.2,59.888923377184625,
images/exp1a_trial_44_colour3_distractors9_r.png,r,2,,,,,0,4,4,44,,,,,,,,,,,,,,,,,,,,22.224333571386524,None,1,0,0.19423804548569024,22.224333571386524,None,None,None,None,None,None,,1,001,2020_Oct_13_1240,searchDisc,2020.2.2,59.888923377184625,
images/exp1a_trial_0_colour1_distractors1_r.png,r,2,,,,,0,5,5,0,,,,,,,,,,,,,,,,,,,,22.541425387898926,None,2,1,0.24515298480400816,22.541425387898926,None,None,None,None,None,None,,1,001,2020_Oct_13_1240,searchDisc,2020.2.2,59.888923377184625,
images/exp1a_trial_62_colour0_distractors0_r.png,r,2,,,,,0,6,6,62,,,,,,,,,,,,,,,,,,,,22.908378389081918,None,1,0,0.2143473825417459,22.908378389081918,None,None,None,None,None,None,,1,001,2020_Oct_13_1240,searchDisc,2020.2.2,59.888923377184625,
images/exp1a_trial_95_colour0_distractors0_l.png,l,1,,,,,0,7,7,95,,,,,,,,,,,,,,,,,,,,23.241994921001606,None,2,0,0.22456845018314198,23.241994921001606,None,None,None,None,None,None,,1,001,2020_Oct_13_1240,searchDisc,2020.2.2,59.888923377184625,
images/exp1a_trial_63_colour0_distractors0_l.png,l,1,,,,,0,8,8,63,,,,,,,,,,,,,,,,,,,,23.592379687004723,None,1,1,0.17834564682561904,23.592379687004723,None,None,None,None,None,None,,1,001,2020_Oct_13_1240,searchDisc,2020.2.2,59.888923377184625,
images/exp1a_trial_46_colour3_distractors31_r.png,r,2,,,,,0,9,9,46,,,,,,,,,,,,,,,,,,,,23.89263862965163,None,2,1,0.22225358203286305,23.89263862965163,None,None,None,None,None,None,,1,001,2020_Oct_13_1240,searchDisc,2020.2.2,59.888923377184625,
images/exp1a_trial_73_colour2_distractors31_r.png,r,2,,,,,0,10,10,73,,,,,,,,,,,,,,,,,,,,24.24317763489671,None,1,0,0.19947449868777767,24.24317763489671,None,None,None,None,None,None,,1,001,2020_Oct_13_1240,searchDisc,2020.2.2,59.888923377184625,
images/exp1a_trial_54_colour2_distractors9_l.png,l,1,,,,,0,11,11,54,,,,,,,,,,,,,,,,,,,,24.559987212880515,None,1,1,0.5785746377077885,24.559987212880515,None,None,None,None,None,None,,1,001,2020_Oct_13_1240,searchDisc,2020.2.2,59.888923377184625,
images/exp1a_trial_25_colour3_distractors1_l.png,l,1,,,,,0,12,12,25,,,,,,,,,,,,,,,,,,,,25.260655305406544,None,2,0,0.19012574659427628,25.260655305406544,None,None,None,None,None,None,,1,001,2020_Oct_13_1240,searchDisc,2020.2.2,59.888923377184625,
images/exp1a_trial_82_colour1_distractors19_l.png,l,1,,,,,0,13,13,82,,,,,,,,,,,,,,,,,,,,25.577670002297964,None,1,1,0.2170795285492204,25.577670002297964,None,None,None,None,None,None,,1,001,2020_Oct_13_1240,searchDisc,2020.2.2,59.888923377184625,
images/exp1a_trial_55_colour2_distractors19_l.png,l,1,,,,,0,14,14,55,,,,,,,,,,,,,,,,,,,,25.911335813929327,None,2,0,0.21122515853494406,25.911335813929327,None,None,None,None,None,None,,1,001,2020_Oct_13_1240,searchDisc,2020.2.2,59.888923377184625,
images/exp1a_trial_66_colour1_distractors9_r.png,r,2,,,,,0,15,15,66,,,,,,,,,,,,,,,,,,,,26.245159064768814,None,1,0,0.2375507837277837,26.245159064768814,None,None,None,None,None,None,,1,001,2020_Oct_13_1240,searchDisc,2020.2.2,59.888923377184625,
images/exp1a_trial_1_colour1_distractors4_r.png,r,2,,,,,0,16,16,1,,,,,,,,,,,,,,,,,,,,26.61202662641881,None,2,1,0.19056702428497374,26.61202662641881,None,None,None,None,None,None,,1,001,2020_Oct_13_1240,searchDisc,2020.2.2,59.888923377184625,
images/exp1a_trial_84_colour2_distractors1_l.png,l,1,,,,,0,17,17,84,,,,,,,,,,,,,,,,,,,,26.929002603515983,None,1,1,0.2096005268394947,26.929002603515983,None,None,None,None,None,None,,1,001,2020_Oct_13_1240,searchDisc,2020.2.2,59.888923377184625,
images/exp1a_trial_30_colour0_distractors0_r.png,r,2,,,,,0,18,18,30,,,,,,,,,,,,,,,,,,,,27.26262681535445,None,2,1,0.16386348102241755,27.26262681535445,None,None,None,None,None,None,,1,001,2020_Oct_13_1240,searchDisc,2020.2.2,59.888923377184625,
images/exp1a_trial_45_colour3_distractors19_r.png,r,2,,,,,0,19,19,45,,,,,,,,,,,,,,,,,,,,27.546461842081044,None,1,0,0.20837749307975173,27.546461842081044,None,27.813319035805762,None,space,27.813319035805762,None,0.9652910577133298,1,001,2020_Oct_13_1240,searchDisc,2020.2.2,59.888923377184625,
images/exp1a_trial_88_colour2_distractors31_l.png,l,1,,,,,0,20,20,88,,,,,,,,,,,,,,,,,,,,28.880910369742196,None,1,1,0.32975671166786924,28.880910369742196,None,None,None,None,None,None,,1,001,2020_Oct_13_1240,searchDisc,2020.2.2,59.888923377184625,
images/exp1a_trial_47_colour1_distractors1_l.png,l,1,,,,,0,21,21,47,,,,,,,,,,,,,,,,,,,,29.33136822335655,None,2,0,0.1994264989043586,29.33136822335655,None,None,None,None,None,None,,1,001,2020_Oct_13_1240,searchDisc,2020.2.2,59.888923377184625,
images/exp1a_trial_32_colour1_distractors1_r.png,r,2,,,,,0,22,22,32,,,,,,,,,,,,,,,,,,,,29.648477959795855,None,1,0,0.22616236202884465,29.648477959795855,None,None,None,None,None,None,,1,001,2020_Oct_13_1240,searchDisc,2020.2.2,59.888923377184625,
images/exp1a_trial_28_colour3_distractors19_l.png,l,1,,,,,0,23,23,28,,,,,,,,,,,,,,,,,,,,29.998677766765468,None,2,0,0.1959778766031377,29.998677766765468,None,None,None,None,None,None,,1,001,2020_Oct_13_1240,searchDisc,2020.2.2,59.888923377184625,
images/exp1a_trial_74_colour3_distractors1_r.png,r,2,,,,,0,24,24,74,,,,,,,,,,,,,,,,,,,,30.315632303943858,None,1,0,0.2150750588043593,30.315632303943858,None,None,None,None,None,None,,1,001,2020_Oct_13_1240,searchDisc,2020.2.2,59.888923377184625,
images/exp1a_trial_64_colour1_distractors1_r.png,r,2,,,,,0,25,25,64,,,,,,,,,,,,,,,,,,,,30.64932115544798,None,2,1,0.1773040522239171,30.64932115544798,None,None,None,None,None,None,,1,001,2020_Oct_13_1240,searchDisc,2020.2.2,59.888923377184625,
images/exp1a_trial_42_colour3_distractors1_r.png,r,2,,,,,0,26,26,42,,,,,,,,,,,,,,,,,,,,30.949601218046155,None,1,0,0.23700966651085764,30.949601218046155,None,None,None,None,None,None,,1,001,2020_Oct_13_1240,searchDisc,2020.2.2,59.888923377184625,
