ImageFile,targ_side,correctAnswer,trials_2.thisRepN,trials_2.thisTrialN,trials_2.thisN,trials_2.thisIndex,trials.thisRepN,trials.thisTrialN,trials.thisN,trials.thisIndex,text_2.started,text_2.stopped,key_resp_5.keys,key_resp_5.rt,key_resp_5.started,key_resp_5.stopped,image_2.started,image_2.stopped,key_resp_6.keys,key_resp_6.rt,key_resp_6.started,key_resp_6.stopped,text_3.started,text_3.stopped,image_3.started,image_3.stopped,image.started,image.stopped,key_resp_4.keys,key_resp_4.corr,key_resp_4.rt,key_resp_4.started,key_resp_4.stopped,text_4.started,text_4.stopped,key_resp_7.keys,key_resp_7.started,key_resp_7.stopped,key_resp_7.rt,text.started,text.stopped,key_resp_3.keys,key_resp_3.rt,key_resp_3.started,key_resp_3.stopped,dispStimuli.started,dispStimuli.stopped,key_resp_2.keys,key_resp_2.corr,key_resp_2.rt,key_resp_2.started,key_resp_2.stopped,breakMessage.started,breakMessage.stopped,key_resp.keys,key_resp.started,key_resp.stopped,key_resp.rt,participant,session,date,expName,psychopyVersion,frameRate,
,,,,,,,,,,,13.282118600327522,None,space,4.846285599749535,14.247592200059444,None,,,,,,,,,,,,,,,,,,,,,,,,,,,,,,,,,,,,,,,,,,,1,001,2020_Oct_14_1556,searchDisc2,2020.2.4,59.976633037556674,
,,,,,,,,,,,,,,,,,19.13938850024715,None,space,4.535924500320107,20.102662300225347,None,,,,,,,,,,,,,,,,,,,,,,,,,,,,,,,,,,,,,1,001,2020_Oct_14_1556,searchDisc2,2020.2.4,59.976633037556674,
images/exp1a_trial_13_colour3_distractors19_r.png,r,2,0,0,0,13,,,,,,,,,,,,,,,,,19.13938850024715,None,19.13938850024715,None,24.792948100250214,None,2,1,0.8935199999250472,24.792948100250214,None,None,None,None,None,None,,,,,,,,,,,,,,,,,,,,,1,001,2020_Oct_14_1556,searchDisc2,2020.2.4,59.976633037556674,
images/exp1a_trial_14_colour3_distractors31_r.png,r,2,0,1,1,14,,,,,,,,,,,,,,,,,,,,,25.777959099970758,None,2,1,0.8849197998642921,25.777959099970758,None,None,None,None,None,None,,,,,,,,,,,,,,,,,,,,,1,001,2020_Oct_14_1556,searchDisc2,2020.2.4,59.976633037556674,
images/exp1a_trial_12_colour3_distractors9_r.png,r,2,0,2,2,12,,,,,,,,,,,,,,,,,,,,,26.761593299917877,None,2,1,0.7177654998376966,26.761593299917877,None,None,None,None,None,None,,,,,,,,,,,,,,,,,,,,,1,001,2020_Oct_14_1556,searchDisc2,2020.2.4,59.976633037556674,
images/exp1a_trial_0_colour1_distractors1_r.png,r,2,0,3,3,0,,,,,,,,,,,,,,,,,,,,,27.56211840035394,None,2,1,0.6437748000025749,27.56211840035394,None,None,None,None,None,None,,,,,,,,,,,,,,,,,,,,,1,001,2020_Oct_14_1556,searchDisc2,2020.2.4,59.976633037556674,
images/exp1a_trial_19_colour1_distractors31_l.png,l,1,0,4,4,19,,,,,,,,,,,,,,,,,,,,,28.281324100214988,None,1,1,0.7334605995565653,28.281324100214988,None,None,None,None,None,None,,,,,,,,,,,,,,,,,,,,,1,001,2020_Oct_14_1556,searchDisc2,2020.2.4,59.976633037556674,
images/exp1a_trial_8_colour2_distractors19_r.png,r,2,0,5,5,8,,,,,,,,,,,,,,,,,,,,,29.113896999973804,None,2,1,0.717129800003022,29.113896999973804,None,None,None,None,None,None,,,,,,,,,,,,,,,,,,,,,1,001,2020_Oct_14_1556,searchDisc2,2020.2.4,59.976633037556674,
images/exp1a_trial_3_colour1_distractors19_r.png,r,2,0,6,6,3,,,,,,,,,,,,,,,,,,,,,29.89680809993297,None,2,1,0.9252809998579323,29.89680809993297,None,None,None,None,None,None,,,,,,,,,,,,,,,,,,,,,1,001,2020_Oct_14_1556,searchDisc2,2020.2.4,59.976633037556674,
images/exp1a_trial_15_colour1_distractors1_l.png,l,1,0,7,7,15,,,,,,,,,,,,,,,,,,,,,30.903110000304878,None,1,1,0.6803046995773911,30.903110000304878,None,None,None,None,None,None,,,,,,,,,,,,,,,,,,,,,1,001,2020_Oct_14_1556,searchDisc2,2020.2.4,59.976633037556674,
images/exp1a_trial_10_colour3_distractors1_r.png,r,2,0,8,8,10,,,,,,,,,,,,,,,,,,,,,31.687730900011957,None,2,1,0.8228580001741648,31.687730900011957,None,None,None,None,None,None,,,,,,,,,,,,,,,,,,,,,1,001,2020_Oct_14_1556,searchDisc2,2020.2.4,59.976633037556674,
images/exp1a_trial_17_colour1_distractors9_l.png,l,1,0,9,9,17,,,,,,,,,,,,,,,,,,,,,32.601202100049704,None,1,1,0.7892964999191463,32.601202100049704,None,None,None,None,None,None,,,,,,,,,,,,,,,,,,,,,1,001,2020_Oct_14_1556,searchDisc2,2020.2.4,59.976633037556674,
images/exp1a_trial_6_colour2_distractors4_r.png,r,2,0,10,10,6,,,,,,,,,,,,,,,,,,,,,33.484247100073844,None,2,1,0.7142472001723945,33.484247100073844,None,None,None,None,None,None,,,,,,,,,,,,,,,,,,,,,1,001,2020_Oct_14_1556,searchDisc2,2020.2.4,59.976633037556674,
images/exp1a_trial_5_colour2_distractors1_r.png,r,2,0,11,11,5,,,,,,,,,,,,,,,,,,,,,34.29493990028277,None,2,1,0.751680999994278,34.29493990028277,None,None,None,None,None,None,,,,,,,,,,,,,,,,,,,,,1,001,2020_Oct_14_1556,searchDisc2,2020.2.4,59.976633037556674,
images/exp1a_trial_16_colour1_distractors4_l.png,l,1,0,12,12,16,,,,,,,,,,,,,,,,,,,,,35.133938800077885,None,1,1,0.6719574998132885,35.133938800077885,None,None,None,None,None,None,,,,,,,,,,,,,,,,,,,,,1,001,2020_Oct_14_1556,searchDisc2,2020.2.4,59.976633037556674,
images/exp1a_trial_9_colour2_distractors31_r.png,r,2,0,13,13,9,,,,,,,,,,,,,,,,,,,,,35.86941729998216,None,2,1,0.8085007001645863,35.86941729998216,None,None,None,None,None,None,,,,,,,,,,,,,,,,,,,,,1,001,2020_Oct_14_1556,searchDisc2,2020.2.4,59.976633037556674,
images/exp1a_trial_11_colour3_distractors4_r.png,r,2,0,14,14,11,,,,,,,,,,,,,,,,,,,,,36.79762940015644,None,2,1,0.7133673001080751,36.79762940015644,None,None,None,None,None,None,,,,,,,,,,,,,,,,,,,,,1,001,2020_Oct_14_1556,searchDisc2,2020.2.4,59.976633037556674,
images/exp1a_trial_7_colour2_distractors9_r.png,r,2,0,15,15,7,,,,,,,,,,,,,,,,,,,,,37.60871999990195,None,2,1,0.6930435001850128,37.60871999990195,None,None,None,None,None,None,,,,,,,,,,,,,,,,,,,,,1,001,2020_Oct_14_1556,searchDisc2,2020.2.4,59.976633037556674,
images/exp1a_trial_1_colour1_distractors4_r.png,r,2,0,16,16,1,,,,,,,,,,,,,,,,,,,,,38.37124430015683,None,2,1,0.6994528998620808,38.37124430015683,None,None,None,None,None,None,,,,,,,,,,,,,,,,,,,,,1,001,2020_Oct_14_1556,searchDisc2,2020.2.4,59.976633037556674,
images/exp1a_trial_4_colour1_distractors31_r.png,r,2,0,17,17,4,,,,,,,,,,,,,,,,,,,,,39.15639419993386,None,2,1,0.618966500274837,39.15639419993386,None,None,None,None,None,None,,,,,,,,,,,,,,,,,,,,,1,001,2020_Oct_14_1556,searchDisc2,2020.2.4,59.976633037556674,
images/exp1a_trial_2_colour1_distractors9_r.png,r,2,0,18,18,2,,,,,,,,,,,,,,,,,,,,,39.86287850001827,None,2,1,0.4795182002708316,39.86287850001827,None,None,None,None,None,None,,,,,,,,,,,,,,,,,,,,,1,001,2020_Oct_14_1556,searchDisc2,2020.2.4,59.976633037556674,
images/exp1a_trial_18_colour1_distractors19_l.png,l,1,0,19,19,18,,,,,,,,,,,,,,,,,,,,,40.43480670033023,None,1,1,0.619890300091356,40.43480670033023,None,41.130457000341266,None,space,41.130457000341266,None,3.8435693997889757,,,,,,,,,,,,,,,,,,,,1,001,2020_Oct_14_1556,searchDisc2,2020.2.4,59.976633037556674,
,,,,,,,,,,,,,,,,,,,,,,,,,,,,,,,,,,,,,,,,45.05671050027013,None,space,4.102861900348216,48.04749049991369,None,,,,,,,,,,,,,,1,001,2020_Oct_14_1556,searchDisc2,2020.2.4,59.976633037556674,
images/exp2c_trial_51_colour1_distractors31_l.png,l,1,,,,,0,0,0,435,,,,,,,,,,,,,,,,,,,,,,,,,,,,,,,,,,,,52.271529300138354,None,1,1,0.7834648001007736,52.271529300138354,None,None,None,None,None,None,,1,001,2020_Oct_14_1556,searchDisc2,2020.2.4,59.976633037556674,
images/exp2c_trial_44_colour3_distractors9_r.png,r,2,,,,,0,1,1,428,,,,,,,,,,,,,,,,,,,,,,,,,,,,,,,,,,,,53.11340230004862,None,2,1,0.8206826997920871,53.11340230004862,None,None,None,None,None,None,,1,001,2020_Oct_14_1556,searchDisc2,2020.2.4,59.976633037556674,
images/exp2c_trial_91_colour3_distractors9_l.png,l,1,,,,,0,2,2,475,,,,,,,,,,,,,,,,,,,,,,,,,,,,,,,,,,,,54.020423400215805,None,1,1,0.6813954999670386,54.020423400215805,None,None,None,None,None,None,,1,001,2020_Oct_14_1556,searchDisc2,2020.2.4,59.976633037556674,
images/exp2b_trial_80_colour1_distractors4_l.png,l,1,,,,,0,3,3,368,,,,,,,,,,,,,,,,,,,,,,,,,,,,,,,,,,,,54.76678910013288,None,1,1,0.6470423997379839,54.76678910013288,None,None,None,None,None,None,,1,001,2020_Oct_14_1556,searchDisc2,2020.2.4,59.976633037556674,
images/exp2a_trial_87_colour2_distractors19_l.png,l,1,,,,,0,4,4,279,,,,,,,,,,,,,,,,,,,,,,,,,,,,,,,,,,,,55.50074029993266,None,1,1,0.6096769999712706,55.50074029993266,None,None,None,None,None,None,,1,001,2020_Oct_14_1556,searchDisc2,2020.2.4,59.976633037556674,
images/exp2c_trial_94_colour0_distractors0_r.png,r,2,,,,,0,5,5,478,,,,,,,,,,,,,,,,,,,,,,,,,,,,,,,,,,,,56.22962500015274,None,2,1,0.6487672002986073,56.22962500015274,None,None,None,None,None,None,,1,001,2020_Oct_14_1556,searchDisc2,2020.2.4,59.976633037556674,
images/exp1b_trial_65_colour1_distractors4_r.png,r,2,,,,,0,6,6,161,,,,,,,,,,,,,,,,,,,,,,,,,,,,,,,,,,,,56.96805760031566,None,2,1,0.7503495002165437,56.96805760031566,None,None,None,None,None,None,,1,001,2020_Oct_14_1556,searchDisc2,2020.2.4,59.976633037556674,
images/exp2b_trial_40_colour2_distractors19_r.png,r,2,,,,,0,7,7,328,,,,,,,,,,,,,,,,,,,,,,,,,,,,,,,,,,,,57.84611980011687,None,2,1,0.7140903999097645,57.84611980011687,None,None,None,None,None,None,,1,001,2020_Oct_14_1556,searchDisc2,2020.2.4,59.976633037556674,
images/exp1a_trial_26_colour3_distractors4_l.png,l,1,,,,,0,8,8,26,,,,,,,,,,,,,,,,,,,,,,,,,,,,,,,,,,,,58.635011500213295,None,1,1,0.6989332996308804,58.635011500213295,None,None,None,None,None,None,,1,001,2020_Oct_14_1556,searchDisc2,2020.2.4,59.976633037556674,
images/exp1b_trial_87_colour2_distractors19_l.png,l,1,,,,,0,9,9,183,,,,,,,,,,,,,,,,,,,,,,,,,,,,,,,,,,,,59.41830450017005,None,1,1,0.8841752000153065,59.41830450017005,None,None,None,None,None,None,,1,001,2020_Oct_14_1556,searchDisc2,2020.2.4,59.976633037556674,
images/exp2b_trial_44_colour3_distractors9_r.png,r,2,,,,,0,10,10,332,,,,,,,,,,,,,,,,,,,,,,,,,,,,,,,,,,,,60.3917570002377,None,2,1,0.7267653001472354,60.3917570002377,None,None,None,None,None,None,,1,001,2020_Oct_14_1556,searchDisc2,2020.2.4,59.976633037556674,
images/exp2a_trial_81_colour1_distractors9_l.png,l,1,,,,,0,11,11,273,,,,,,,,,,,,,,,,,,,,,,,,,,,,,,,,,,,,61.20993290003389,None,1,1,0.7640941999852657,61.20993290003389,None,None,None,None,None,None,,1,001,2020_Oct_14_1556,searchDisc2,2020.2.4,59.976633037556674,
images/exp2a_trial_54_colour2_distractors9_l.png,l,1,,,,,0,12,12,246,,,,,,,,,,,,,,,,,,,,,,,,,,,,,,,,,,,,62.04074760014191,None,1,1,0.5900488998740911,62.04074760014191,None,None,None,None,None,None,,1,001,2020_Oct_14_1556,searchDisc2,2020.2.4,59.976633037556674,
images/exp2b_trial_84_colour2_distractors1_l.png,l,1,,,,,0,13,13,372,,,,,,,,,,,,,,,,,,,,,,,,,,,,,,,,,,,,62.728406799957156,None,1,1,0.6142796003259718,62.728406799957156,None,None,None,None,None,None,,1,001,2020_Oct_14_1556,searchDisc2,2020.2.4,59.976633037556674,
images/exp2c_trial_40_colour2_distractors19_r.png,r,2,,,,,0,14,14,424,,,,,,,,,,,,,,,,,,,,,,,,,,,,,,,,,,,,63.41622560005635,None,2,1,0.9020417998544872,63.41622560005635,None,None,None,None,None,None,,1,001,2020_Oct_14_1556,searchDisc2,2020.2.4,59.976633037556674,
images/exp2c_trial_73_colour2_distractors31_r.png,r,2,,,,,0,15,15,457,,,,,,,,,,,,,,,,,,,,,,,,,,,,,,,,,,,,64.4141506999731,None,2,1,0.6960871000774205,64.4141506999731,None,None,None,None,None,None,,1,001,2020_Oct_14_1556,searchDisc2,2020.2.4,59.976633037556674,
images/exp2a_trial_85_colour2_distractors4_l.png,l,1,,,,,0,16,16,277,,,,,,,,,,,,,,,,,,,,,,,,,,,,,,,,,,,,65.23143630009145,None,1,1,0.6547477999702096,65.23143630009145,None,None,None,None,None,None,,1,001,2020_Oct_14_1556,searchDisc2,2020.2.4,59.976633037556674,
images/exp1b_trial_56_colour2_distractors31_l.png,l,1,,,,,0,17,17,152,,,,,,,,,,,,,,,,,,,,,,,,,,,,,,,,,,,,65.98318140022457,None,1,1,0.9037902001291513,65.98318140022457,None,None,None,None,None,None,,1,001,2020_Oct_14_1556,searchDisc2,2020.2.4,59.976633037556674,
images/exp2c_trial_21_colour2_distractors4_l.png,l,1,,,,,0,18,18,405,,,,,,,,,,,,,,,,,,,,,,,,,,,,,,,,,,,,66.98060860019177,None,1,1,0.7224679999053478,66.98060860019177,None,None,None,None,None,None,,1,001,2020_Oct_14_1556,searchDisc2,2020.2.4,59.976633037556674,
images/exp2a_trial_40_colour2_distractors19_r.png,r,2,,,,,0,19,19,232,,,,,,,,,,,,,,,,,,,,,,,,,,,,,,,,,,,,67.79144850000739,None,2,1,0.8148558000102639,67.79144850000739,None,68.68750160001218,None,space,68.68750160001218,None,1.9267874001525342,1,001,2020_Oct_14_1556,searchDisc2,2020.2.4,59.976633037556674,
images/exp2c_trial_12_colour3_distractors9_r.png,r,2,,,,,0,20,20,396,,,,,,,,,,,,,,,,,,,,,,,,,,,,,,,,,,,,70.68870150018483,None,2,1,0.7986132996156812,70.68870150018483,None,None,None,None,None,None,,1,001,2020_Oct_14_1556,searchDisc2,2020.2.4,59.976633037556674,
images/exp2b_trial_51_colour1_distractors31_l.png,l,1,,,,,0,21,21,339,,,,,,,,,,,,,,,,,,,,,,,,,,,,,,,,,,,,71.56830450007692,None,1,1,0.6225423999130726,71.56830450007692,None,None,None,None,None,None,,1,001,2020_Oct_14_1556,searchDisc2,2020.2.4,59.976633037556674,
images/exp1a_trial_11_colour3_distractors4_r.png,r,2,,,,,0,22,22,11,,,,,,,,,,,,,,,,,,,,,,,,,,,,,,,,,,,,72.2686144001782,None,2,1,0.7708171000704169,72.2686144001782,None,None,None,None,None,None,,1,001,2020_Oct_14_1556,searchDisc2,2020.2.4,59.976633037556674,
images/exp2b_trial_66_colour1_distractors9_r.png,r,2,,,,,0,23,23,354,,,,,,,,,,,,,,,,,,,,,,,,,,,,,,,,,,,,73.14859639992937,None,2,1,0.7856330000795424,73.14859639992937,None,None,None,None,None,None,,1,001,2020_Oct_14_1556,searchDisc2,2020.2.4,59.976633037556674,
images/exp1a_trial_77_colour3_distractors19_r.png,r,2,,,,,0,24,24,77,,,,,,,,,,,,,,,,,,,,,,,,,,,,,,,,,,,,74.02464180020615,None,2,1,0.8214084999635816,74.02464180020615,None,None,None,None,None,None,,1,001,2020_Oct_14_1556,searchDisc2,2020.2.4,59.976633037556674,
images/exp2b_trial_32_colour1_distractors1_r.png,r,2,,,,,0,25,25,320,,,,,,,,,,,,,,,,,,,,,,,,,,,,,,,,,,,,74.92712259991094,None,2,1,0.5837649996392429,74.92712259991094,None,None,None,None,None,None,,1,001,2020_Oct_14_1556,searchDisc2,2020.2.4,59.976633037556674,
images/exp2a_trial_7_colour2_distractors9_r.png,r,2,,,,,0,26,26,199,,,,,,,,,,,,,,,,,,,,,,,,,,,,,,,,,,,,75.62474239990115,None,2,1,0.6386184999719262,75.62474239990115,None,None,None,None,None,None,,1,001,2020_Oct_14_1556,searchDisc2,2020.2.4,59.976633037556674,
images/exp2b_trial_33_colour1_distractors4_r.png,r,2,,,,,0,27,27,321,,,,,,,,,,,,,,,,,,,,,,,,,,,,,,,,,,,,76.3483386002481,None,2,1,0.5469960998743773,76.3483386002481,None,None,None,None,None,None,,1,001,2020_Oct_14_1556,searchDisc2,2020.2.4,59.976633037556674,
images/exp2a_trial_57_colour3_distractors1_l.png,l,1,,,,,0,28,28,249,,,,,,,,,,,,,,,,,,,,,,,,,,,,,,,,,,,,76.9778881999664,None,1,1,0.5490954997949302,76.9778881999664,None,None,None,None,None,None,,1,001,2020_Oct_14_1556,searchDisc2,2020.2.4,59.976633037556674,
images/exp1a_trial_83_colour1_distractors31_l.png,l,1,,,,,0,29,29,83,,,,,,,,,,,,,,,,,,,,,,,,,,,,,,,,,,,,77.63808940025046,None,1,1,0.808739900123328,77.63808940025046,None,None,None,None,None,None,,1,001,2020_Oct_14_1556,searchDisc2,2020.2.4,59.976633037556674,
images/exp2c_trial_57_colour3_distractors1_l.png,l,1,,,,,0,30,30,441,,,,,,,,,,,,,,,,,,,,,,,,,,,,,,,,,,,,78.5149087999016,None,1,1,0.5484384000301361,78.5149087999016,None,None,None,None,None,None,,1,001,2020_Oct_14_1556,searchDisc2,2020.2.4,59.976633037556674,
images/exp1a_trial_28_colour3_distractors19_l.png,l,1,,,,,0,31,31,28,,,,,,,,,,,,,,,,,,,,,,,,,,,,,,,,,,,,79.14959589997306,None,1,1,0.5919582000933588,79.14959589997306,None,None,None,None,None,None,,1,001,2020_Oct_14_1556,searchDisc2,2020.2.4,59.976633037556674,
images/exp2c_trial_93_colour3_distractors31_l.png,l,1,,,,,0,32,32,477,,,,,,,,,,,,,,,,,,,,,,,,,,,,,,,,,,,,79.81593460030854,None,1,1,0.6785826999694109,79.81593460030854,None,None,None,None,None,None,,1,001,2020_Oct_14_1556,searchDisc2,2020.2.4,59.976633037556674,
images/exp1a_trial_49_colour1_distractors9_l.png,l,1,,,,,0,33,33,49,,,,,,,,,,,,,,,,,,,,,,,,,,,,,,,,,,,,80.58680259995162,None,1,1,0.5549534000456333,80.58680259995162,None,None,None,None,None,None,,1,001,2020_Oct_14_1556,searchDisc2,2020.2.4,59.976633037556674,
images/exp2b_trial_7_colour2_distractors9_r.png,r,2,,,,,0,34,34,295,,,,,,,,,,,,,,,,,,,,,,,,,,,,,,,,,,,,81.20670960005373,None,2,1,0.7601847997866571,81.20670960005373,None,None,None,None,None,None,,1,001,2020_Oct_14_1556,searchDisc2,2020.2.4,59.976633037556674,
images/exp2b_trial_76_colour3_distractors9_r.png,r,2,,,,,0,35,35,364,,,,,,,,,,,,,,,,,,,,,,,,,,,,,,,,,,,,82.03029440017417,None,2,1,0.937037399969995,82.03029440017417,None,None,None,None,None,None,,1,001,2020_Oct_14_1556,searchDisc2,2020.2.4,59.976633037556674,
images/exp2a_trial_41_colour2_distractors31_r.png,r,2,,,,,0,36,36,233,,,,,,,,,,,,,,,,,,,,,,,,,,,,,,,,,,,,83.05158030008897,None,2,1,0.6188719999045134,83.05158030008897,None,None,None,None,None,None,,1,001,2020_Oct_14_1556,searchDisc2,2020.2.4,59.976633037556674,
images/exp2a_trial_66_colour1_distractors9_r.png,r,2,,,,,0,37,37,258,,,,,,,,,,,,,,,,,,,,,,,,,,,,,,,,,,,,83.77664560033008,None,2,1,0.7171469000168145,83.77664560033008,None,None,None,None,None,None,,1,001,2020_Oct_14_1556,searchDisc2,2020.2.4,59.976633037556674,
images/exp2a_trial_84_colour2_distractors1_l.png,l,1,,,,,0,38,38,276,,,,,,,,,,,,,,,,,,,,,,,,,,,,,,,,,,,,84.5714052002877,None,1,1,0.6672990997321904,84.5714052002877,None,85.27280930010602,None,space,85.27280930010602,None,3.4775836998596787,1,001,2020_Oct_14_1556,searchDisc2,2020.2.4,59.976633037556674,
images/exp1b_trial_90_colour3_distractors4_l.png,l,1,,,,,0,39,39,186,,,,,,,,,,,,,,,,,,,,,,,,,,,,,,,,,,,,88.8177879001014,None,1,1,0.8445756998844445,88.8177879001014,None,None,None,None,None,None,,1,001,2020_Oct_14_1556,searchDisc2,2020.2.4,59.976633037556674,
images/exp1a_trial_85_colour2_distractors4_l.png,l,1,,,,,0,40,40,85,,,,,,,,,,,,,,,,,,,,,,,,,,,,,,,,,,,,89.75311730010435,None,1,1,0.5328140999190509,89.75311730010435,None,None,None,None,None,None,,1,001,2020_Oct_14_1556,searchDisc2,2020.2.4,59.976633037556674,
images/exp1a_trial_33_colour1_distractors4_r.png,r,2,,,,,0,41,41,33,,,,,,,,,,,,,,,,,,,,,,,,,,,,,,,,,,,,90.37972610024735,None,2,1,1.0189812001772225,90.37972610024735,None,None,None,None,None,None,,1,001,2020_Oct_14_1556,searchDisc2,2020.2.4,59.976633037556674,
images/exp2c_trial_52_colour2_distractors1_l.png,l,1,,,,,0,42,42,436,,,,,,,,,,,,,,,,,,,,,,,,,,,,,,,,,,,,91.51801449991763,None,1,1,0.6165125002153218,91.51801449991763,None,None,None,None,None,None,,1,001,2020_Oct_14_1556,searchDisc2,2020.2.4,59.976633037556674,
images/exp1b_trial_12_colour3_distractors9_r.png,r,2,,,,,0,43,43,108,,,,,,,,,,,,,,,,,,,,,,,,,,,,,,,,,,,,92.22149279993027,None,2,1,1.1685819998383522,92.22149279993027,None,None,None,None,None,None,,1,001,2020_Oct_14_1556,searchDisc2,2020.2.4,59.976633037556674,
images/exp2c_trial_48_colour1_distractors4_l.png,l,1,,,,,0,44,44,432,,,,,,,,,,,,,,,,,,,,,,,,,,,,,,,,,,,,93.50146460020915,None,1,1,1.1135010998696089,93.50146460020915,None,None,None,None,None,None,,1,001,2020_Oct_14_1556,searchDisc2,2020.2.4,59.976633037556674,
images/exp2a_trial_70_colour2_distractors4_r.png,r,2,,,,,0,45,45,262,,,,,,,,,,,,,,,,,,,,,,,,,,,,,,,,,,,,94.71323110023513,None,2,1,0.8927226001396775,94.71323110023513,None,None,None,None,None,None,,1,001,2020_Oct_14_1556,searchDisc2,2020.2.4,59.976633037556674,
images/exp1b_trial_6_colour2_distractors4_r.png,r,2,,,,,0,46,46,102,,,,,,,,,,,,,,,,,,,,,,,,,,,,,,,,,,,,95.71583360014483,None,2,1,0.7226631999947131,95.71583360014483,None,None,None,None,None,None,,1,001,2020_Oct_14_1556,searchDisc2,2020.2.4,59.976633037556674,
images/exp1b_trial_35_colour1_distractors19_r.png,r,2,,,,,0,47,47,131,,,,,,,,,,,,,,,,,,,,,,,,,,,,,,,,,,,,96.55549390008673,None,2,1,1.1710100998170674,96.55549390008673,None,None,None,None,None,None,,1,001,2020_Oct_14_1556,searchDisc2,2020.2.4,59.976633037556674,
images/exp2a_trial_60_colour3_distractors19_l.png,l,1,,,,,0,48,48,252,,,,,,,,,,,,,,,,,,,,,,,,,,,,,,,,,,,,97.81757720001042,None,1,1,0.6369918002746999,97.81757720001042,None,None,None,None,None,None,,1,001,2020_Oct_14_1556,searchDisc2,2020.2.4,59.976633037556674,
images/exp2b_trial_6_colour2_distractors4_r.png,r,2,,,,,0,49,49,294,,,,,,,,,,,,,,,,,,,,,,,,,,,,,,,,,,,,98.54518790030852,None,2,1,0.6854841001331806,98.54518790030852,None,None,None,None,None,None,,1,001,2020_Oct_14_1556,searchDisc2,2020.2.4,59.976633037556674,
images/exp2b_trial_31_colour0_distractors0_l.png,l,1,,,,,0,50,50,319,,,,,,,,,,,,,,,,,,,,,,,,,,,,,,,,,,,,99.31004359992221,None,1,1,0.5197872999124229,99.31004359992221,None,None,None,None,None,None,,1,001,2020_Oct_14_1556,searchDisc2,2020.2.4,59.976633037556674,
images/exp1b_trial_20_colour2_distractors1_l.png,l,1,,,,,0,51,51,116,,,,,,,,,,,,,,,,,,,,,,,,,,,,,,,,,,,,99.93081980012357,None,1,1,0.6687151999212801,99.93081980012357,None,None,None,None,None,None,,1,001,2020_Oct_14_1556,searchDisc2,2020.2.4,59.976633037556674,
images/exp1a_trial_16_colour1_distractors4_l.png,l,1,,,,,0,52,52,16,,,,,,,,,,,,,,,,,,,,,,,,,,,,,,,,,,,,100.70386700006202,None,1,1,0.4478275999426842,100.70386700006202,None,None,None,None,None,None,,1,001,2020_Oct_14_1556,searchDisc2,2020.2.4,59.976633037556674,
images/exp1a_trial_0_colour1_distractors1_r.png,r,2,,,,,0,53,53,0,,,,,,,,,,,,,,,,,,,,,,,,,,,,,,,,,,,,101.22808729996905,None,2,1,0.7069500996731222,101.22808729996905,None,None,None,None,None,None,,1,001,2020_Oct_14_1556,searchDisc2,2020.2.4,59.976633037556674,
images/exp2a_trial_34_colour1_distractors9_r.png,r,2,,,,,0,54,54,226,,,,,,,,,,,,,,,,,,,,,,,,,,,,,,,,,,,,102.04420370003209,None,2,1,0.610718300100416,102.04420370003209,None,None,None,None,None,None,,1,001,2020_Oct_14_1556,searchDisc2,2020.2.4,59.976633037556674,
images/exp1a_trial_1_colour1_distractors4_r.png,r,2,,,,,0,55,55,1,,,,,,,,,,,,,,,,,,,,,,,,,,,,,,,,,,,,102.76043060002849,None,2,1,0.7581580001860857,102.76043060002849,None,None,None,None,None,None,,1,001,2020_Oct_14_1556,searchDisc2,2020.2.4,59.976633037556674,
images/exp2a_trial_71_colour2_distractors9_r.png,r,2,,,,,0,56,56,263,,,,,,,,,,,,,,,,,,,,,,,,,,,,,,,,,,,,103.62331000017002,None,2,1,0.49619159987196326,103.62331000017002,None,None,None,None,None,None,,1,001,2020_Oct_14_1556,searchDisc2,2020.2.4,59.976633037556674,
images/exp1b_trial_47_colour1_distractors1_l.png,l,1,,,,,0,57,57,143,,,,,,,,,,,,,,,,,,,,,,,,,,,,,,,,,,,,104.20021110028028,None,1,1,0.5580273997038603,104.20021110028028,None,104.78501889994368,None,space,104.78501889994368,None,2.9973901999183,1,001,2020_Oct_14_1556,searchDisc2,2020.2.4,59.976633037556674,
images/exp1b_trial_17_colour1_distractors9_l.png,l,1,,,,,0,58,58,113,,,,,,,,,,,,,,,,,,,,,,,,,,,,,,,,,,,,107.8498505000025,None,1,1,0.8357903999276459,107.8498505000025,None,None,None,None,None,None,,1,001,2020_Oct_14_1556,searchDisc2,2020.2.4,59.976633037556674,
images/exp2b_trial_29_colour3_distractors31_l.png,l,1,,,,,0,59,59,317,,,,,,,,,,,,,,,,,,,,,,,,,,,,,,,,,,,,108.75310679990798,None,1,1,0.7807193002663553,108.75310679990798,None,None,None,None,None,None,,1,001,2020_Oct_14_1556,searchDisc2,2020.2.4,59.976633037556674,
images/exp2b_trial_1_colour1_distractors4_r.png,r,2,,,,,0,60,60,289,,,,,,,,,,,,,,,,,,,,,,,,,,,,,,,,,,,,109.6107065002434,None,2,1,0.571762700099498,109.6107065002434,None,None,None,None,None,None,,1,001,2020_Oct_14_1556,searchDisc2,2020.2.4,59.976633037556674,
images/exp1b_trial_30_colour0_distractors0_r.png,r,2,,,,,0,61,61,126,,,,,,,,,,,,,,,,,,,,,,,,,,,,,,,,,,,,110.2765922001563,None,2,1,0.5934035000391304,110.2765922001563,None,None,None,None,None,None,,1,001,2020_Oct_14_1556,searchDisc2,2020.2.4,59.976633037556674,
images/exp2c_trial_14_colour3_distractors31_r.png,r,2,,,,,0,62,62,398,,,,,,,,,,,,,,,,,,,,,,,,,,,,,,,,,,,,110.99528510030359,None,2,1,0.6518092001788318,110.99528510030359,None,None,None,None,None,None,,1,001,2020_Oct_14_1556,searchDisc2,2020.2.4,59.976633037556674,
images/exp1a_trial_79_colour1_distractors1_l.png,l,1,,,,,0,63,63,79,,,,,,,,,,,,,,,,,,,,,,,,,,,,,,,,,,,,111.72366859996691,None,1,1,0.7558490000665188,111.72366859996691,None,None,None,None,None,None,,1,001,2020_Oct_14_1556,searchDisc2,2020.2.4,59.976633037556674,
images/exp2c_trial_59_colour3_distractors9_l.png,l,1,,,,,0,64,64,443,,,,,,,,,,,,,,,,,,,,,,,,,,,,,,,,,,,,112.5947464001365,None,1,1,0.5952347000129521,112.5947464001365,None,None,None,None,None,None,,1,001,2020_Oct_14_1556,searchDisc2,2020.2.4,59.976633037556674,
images/exp2a_trial_15_colour1_distractors1_l.png,l,1,,,,,0,65,65,207,,,,,,,,,,,,,,,,,,,,,,,,,,,,,,,,,,,,113.26724380021915,None,1,1,0.5071430997923017,113.26724380021915,None,None,None,None,None,None,,1,001,2020_Oct_14_1556,searchDisc2,2020.2.4,59.976633037556674,
images/exp2a_trial_42_colour3_distractors1_r.png,r,2,,,,,0,66,66,234,,,,,,,,,,,,,,,,,,,,,,,,,,,,,,,,,,,,113.89264120021835,None,2,1,0.7385897999629378,113.89264120021835,None,None,None,None,None,None,,1,001,2020_Oct_14_1556,searchDisc2,2020.2.4,59.976633037556674,
images/exp1a_trial_45_colour3_distractors19_r.png,r,2,,,,,0,67,67,45,,,,,,,,,,,,,,,,,,,,,,,,,,,,,,,,,,,,114.73121890006587,None,2,1,0.7791094998829067,114.73121890006587,None,None,None,None,None,None,,1,001,2020_Oct_14_1556,searchDisc2,2020.2.4,59.976633037556674,
images/exp1b_trial_2_colour1_distractors9_r.png,r,2,,,,,0,68,68,98,,,,,,,,,,,,,,,,,,,,,,,,,,,,,,,,,,,,115.63209949992597,None,2,1,0.750945100095123,115.63209949992597,None,None,None,None,None,None,,1,001,2020_Oct_14_1556,searchDisc2,2020.2.4,59.976633037556674,
images/exp2b_trial_13_colour3_distractors19_r.png,r,2,,,,,0,69,69,301,,,,,,,,,,,,,,,,,,,,,,,,,,,,,,,,,,,,116.46540880016983,None,2,1,0.6447085002437234,116.46540880016983,None,None,None,None,None,None,,1,001,2020_Oct_14_1556,searchDisc2,2020.2.4,59.976633037556674,
images/exp2b_trial_73_colour2_distractors31_r.png,r,2,,,,,0,70,70,361,,,,,,,,,,,,,,,,,,,,,,,,,,,,,,,,,,,,117.17524340003729,None,2,1,0.6548660998232663,117.17524340003729,None,None,None,None,None,None,,1,001,2020_Oct_14_1556,searchDisc2,2020.2.4,59.976633037556674,
images/exp2b_trial_5_colour2_distractors1_r.png,r,2,,,,,0,71,71,293,,,,,,,,,,,,,,,,,,,,,,,,,,,,,,,,,,,,117.9014240000397,None,2,1,0.6492351996712387,117.9014240000397,None,None,None,None,None,None,,1,001,2020_Oct_14_1556,searchDisc2,2020.2.4,59.976633037556674,
images/exp1b_trial_92_colour3_distractors19_l.png,l,1,,,,,0,72,72,188,,,,,,,,,,,,,,,,,,,,,,,,,,,,,,,,,,,,118.63188600027934,None,1,1,1.1102729002013803,118.63188600027934,None,None,None,None,None,None,,1,001,2020_Oct_14_1556,searchDisc2,2020.2.4,59.976633037556674,
images/exp2c_trial_29_colour3_distractors31_l.png,l,1,,,,,0,73,73,413,,,,,,,,,,,,,,,,,,,,,,,,,,,,,,,,,,,,119.81900530029088,None,1,1,0.5471729999408126,119.81900530029088,None,None,None,None,None,None,,1,001,2020_Oct_14_1556,searchDisc2,2020.2.4,59.976633037556674,
images/exp1b_trial_9_colour2_distractors31_r.png,r,2,,,,,0,74,74,105,,,,,,,,,,,,,,,,,,,,,,,,,,,,,,,,,,,,120.45133429998532,None,2,1,0.8902246002107859,120.45133429998532,None,None,None,None,None,None,,1,001,2020_Oct_14_1556,searchDisc2,2020.2.4,59.976633037556674,
images/exp1a_trial_34_colour1_distractors9_r.png,r,2,,,,,0,75,75,34,,,,,,,,,,,,,,,,,,,,,,,,,,,,,,,,,,,,121.4165239003487,None,2,1,0.7740514003671706,121.4165239003487,None,None,None,None,None,None,,1,001,2020_Oct_14_1556,searchDisc2,2020.2.4,59.976633037556674,
images/exp2a_trial_12_colour3_distractors9_r.png,r,2,,,,,0,76,76,204,,,,,,,,,,,,,,,,,,,,,,,,,,,,,,,,,,,,122.25480190012604,None,2,1,0.6739949001930654,122.25480190012604,None,122.97882570000365,None,space,122.97882570000365,None,2.707510800100863,1,001,2020_Oct_14_1556,searchDisc2,2020.2.4,59.976633037556674,
images/exp1b_trial_95_colour0_distractors0_l.png,l,1,,,,,0,77,77,191,,,,,,,,,,,,,,,,,,,,,,,,,,,,,,,,,,,,125.75843670032918,None,1,1,0.8640126995742321,125.75843670032918,None,None,None,None,None,None,,1,001,2020_Oct_14_1556,searchDisc2,2020.2.4,59.976633037556674,
images/exp1a_trial_9_colour2_distractors31_r.png,r,2,,,,,0,78,78,9,,,,,,,,,,,,,,,,,,,,,,,,,,,,,,,,,,,,126.70854340028018,None,2,1,1.1613447000272572,126.70854340028018,None,None,None,None,None,None,,1,001,2020_Oct_14_1556,searchDisc2,2020.2.4,59.976633037556674,
images/exp2c_trial_4_colour1_distractors31_r.png,r,2,,,,,0,79,79,388,,,,,,,,,,,,,,,,,,,,,,,,,,,,,,,,,,,,127.95435550017282,None,2,1,1.420133300125599,127.95435550017282,None,None,None,None,None,None,,1,001,2020_Oct_14_1556,searchDisc2,2020.2.4,59.976633037556674,
images/exp2a_trial_2_colour1_distractors9_r.png,r,2,,,,,0,80,80,194,,,,,,,,,,,,,,,,,,,,,,,,,,,,,,,,,,,,129.46444700006396,None,2,1,0.8542338996194303,129.46444700006396,None,None,None,None,None,None,,1,001,2020_Oct_14_1556,searchDisc2,2020.2.4,59.976633037556674,
images/exp2b_trial_42_colour3_distractors1_r.png,r,2,,,,,0,81,81,330,,,,,,,,,,,,,,,,,,,,,,,,,,,,,,,,,,,,130.43944070022553,None,2,1,0.8078013998456299,130.43944070022553,None,None,None,None,None,None,,1,001,2020_Oct_14_1556,searchDisc2,2020.2.4,59.976633037556674,
images/exp2c_trial_50_colour1_distractors19_l.png,l,1,,,,,0,82,82,434,,,,,,,,,,,,,,,,,,,,,,,,,,,,,,,,,,,,131.35917530022562,None,1,1,0.9346579001285136,131.35917530022562,None,None,None,None,None,None,,1,001,2020_Oct_14_1556,searchDisc2,2020.2.4,59.976633037556674,
images/exp2c_trial_64_colour1_distractors1_r.png,r,2,,,,,0,83,83,448,,,,,,,,,,,,,,,,,,,,,,,,,,,,,,,,,,,,132.3644187003374,None,2,1,0.8421292998827994,132.3644187003374,None,None,None,None,None,None,,1,001,2020_Oct_14_1556,searchDisc2,2020.2.4,59.976633037556674,
images/exp2a_trial_4_colour1_distractors31_r.png,r,2,,,,,0,84,84,196,,,,,,,,,,,,,,,,,,,,,,,,,,,,,,,,,,,,133.30216090008616,None,2,1,0.7517874999903142,133.30216090008616,None,None,None,None,None,None,,1,001,2020_Oct_14_1556,searchDisc2,2020.2.4,59.976633037556674,
images/exp2a_trial_56_colour2_distractors31_l.png,l,1,,,,,0,85,85,248,,,,,,,,,,,,,,,,,,,,,,,,,,,,,,,,,,,,134.16464690025896,None,1,1,0.6812157998792827,134.16464690025896,None,None,None,None,None,None,,1,001,2020_Oct_14_1556,searchDisc2,2020.2.4,59.976633037556674,
images/exp1b_trial_10_colour3_distractors1_r.png,r,2,,,,,0,86,86,106,,,,,,,,,,,,,,,,,,,,,,,,,,,,,,,,,,,,134.95880579994991,None,2,1,0.9188375999219716,134.95880579994991,None,None,None,None,None,None,,1,001,2020_Oct_14_1556,searchDisc2,2020.2.4,59.976633037556674,
images/exp1b_trial_0_colour1_distractors1_r.png,r,2,,,,,0,87,87,96,,,,,,,,,,,,,,,,,,,,,,,,,,,,,,,,,,,,135.9448083001189,None,2,1,0.5655235000886023,135.9448083001189,None,None,None,None,None,None,,1,001,2020_Oct_14_1556,searchDisc2,2020.2.4,59.976633037556674,
images/exp2b_trial_83_colour1_distractors31_l.png,l,1,,,,,0,88,88,371,,,,,,,,,,,,,,,,,,,,,,,,,,,,,,,,,,,,136.6077890000306,None,1,1,0.6950848000124097,136.6077890000306,None,None,None,None,None,None,,1,001,2020_Oct_14_1556,searchDisc2,2020.2.4,59.976633037556674,
images/exp2b_trial_16_colour1_distractors4_l.png,l,1,,,,,0,89,89,304,,,,,,,,,,,,,,,,,,,,,,,,,,,,,,,,,,,,137.40913660032675,None,1,1,0.7888662000186741,137.40913660032675,None,None,None,None,None,None,,1,001,2020_Oct_14_1556,searchDisc2,2020.2.4,59.976633037556674,
images/exp2c_trial_11_colour3_distractors4_r.png,r,2,,,,,0,90,90,395,,,,,,,,,,,,,,,,,,,,,,,,,,,,,,,,,,,,138.26512770028785,None,2,1,0.6853026002645493,138.26512770028785,None,None,None,None,None,None,,1,001,2020_Oct_14_1556,searchDisc2,2020.2.4,59.976633037556674,
images/exp2c_trial_37_colour2_distractors1_r.png,r,2,,,,,0,91,91,421,,,,,,,,,,,,,,,,,,,,,,,,,,,,,,,,,,,,139.06926230015233,None,2,1,0.8090804000385106,139.06926230015233,None,None,None,None,None,None,,1,001,2020_Oct_14_1556,searchDisc2,2020.2.4,59.976633037556674,
images/exp1b_trial_16_colour1_distractors4_l.png,l,1,,,,,0,92,92,112,,,,,,,,,,,,,,,,,,,,,,,,,,,,,,,,,,,,139.97306390013546,None,1,1,0.8088461002334952,139.97306390013546,None,None,None,None,None,None,,1,001,2020_Oct_14_1556,searchDisc2,2020.2.4,59.976633037556674,
images/exp1a_trial_24_colour2_distractors31_l.png,l,1,,,,,0,93,93,24,,,,,,,,,,,,,,,,,,,,,,,,,,,,,,,,,,,,140.85581360012293,None,1,1,1.0222030002623796,140.85581360012293,None,None,None,None,None,None,,1,001,2020_Oct_14_1556,searchDisc2,2020.2.4,59.976633037556674,
images/exp2b_trial_69_colour2_distractors1_r.png,r,2,,,,,0,94,94,357,,,,,,,,,,,,,,,,,,,,,,,,,,,,,,,,,,,,141.98943610023707,None,2,1,0.5700676003471017,141.98943610023707,None,None,None,None,None,None,,1,001,2020_Oct_14_1556,searchDisc2,2020.2.4,59.976633037556674,
images/exp2c_trial_83_colour1_distractors31_l.png,l,1,,,,,0,95,95,467,,,,,,,,,,,,,,,,,,,,,,,,,,,,,,,,,,,,142.67235950008035,None,1,1,0.8226897004060447,142.67235950008035,None,143.5646546999924,None,space,143.5646546999924,None,1.633785099722445,1,001,2020_Oct_14_1556,searchDisc2,2020.2.4,59.976633037556674,
images/exp2a_trial_33_colour1_distractors4_r.png,r,2,,,,,0,96,96,225,,,,,,,,,,,,,,,,,,,,,,,,,,,,,,,,,,,,145.2800465002656,None,2,1,0.7508825999684632,145.2800465002656,None,None,None,None,None,None,,1,001,2020_Oct_14_1556,searchDisc2,2020.2.4,59.976633037556674,
images/exp2a_trial_47_colour1_distractors1_l.png,l,1,,,,,0,97,97,239,,,,,,,,,,,,,,,,,,,,,,,,,,,,,,,,,,,,146.10867330012843,None,1,1,0.6813153000548482,146.10867330012843,None,None,None,None,None,None,,1,001,2020_Oct_14_1556,searchDisc2,2020.2.4,59.976633037556674,
images/exp1b_trial_55_colour2_distractors19_l.png,l,1,,,,,0,98,98,151,,,,,,,,,,,,,,,,,,,,,,,,,,,,,,,,,,,,146.89075360028073,None,1,1,1.3318737000226974,146.89075360028073,None,None,None,None,None,None,,1,001,2020_Oct_14_1556,searchDisc2,2020.2.4,59.976633037556674,
images/exp2b_trial_14_colour3_distractors31_r.png,r,2,,,,,0,99,99,302,,,,,,,,,,,,,,,,,,,,,,,,,,,,,,,,,,,,148.29618669999763,None,2,1,0.8141447002999485,148.29618669999763,None,None,None,None,None,None,,1,001,2020_Oct_14_1556,searchDisc2,2020.2.4,59.976633037556674,
images/exp1b_trial_48_colour1_distractors4_l.png,l,1,,,,,0,100,100,144,,,,,,,,,,,,,,,,,,,,,,,,,,,,,,,,,,,,149.20405500009656,None,1,1,0.9472505003213882,149.20405500009656,None,None,None,None,None,None,,1,001,2020_Oct_14_1556,searchDisc2,2020.2.4,59.976633037556674,
images/exp1a_trial_81_colour1_distractors9_l.png,l,1,,,,,0,101,101,81,,,,,,,,,,,,,,,,,,,,,,,,,,,,,,,,,,,,150.22186679998413,None,1,1,0.47266099974513054,150.22186679998413,None,None,None,None,None,None,,1,001,2020_Oct_14_1556,searchDisc2,2020.2.4,59.976633037556674,
images/exp2a_trial_95_colour0_distractors0_l.png,l,1,,,,,0,102,102,287,,,,,,,,,,,,,,,,,,,,,,,,,,,,,,,,,,,,150.78495180001482,None,1,1,0.5415844996459782,150.78495180001482,None,None,None,None,None,None,,1,001,2020_Oct_14_1556,searchDisc2,2020.2.4,59.976633037556674,
images/exp2a_trial_30_colour0_distractors0_r.png,l,1,,,,,0,103,103,222,,,,,,,,,,,,,,,,,,,,,,,,,,,,,,,,,,,,151.4177101003006,None,2,0,0.7488179998472333,151.4177101003006,None,None,None,None,None,None,,1,001,2020_Oct_14_1556,searchDisc2,2020.2.4,59.976633037556674,
images/exp1b_trial_75_colour3_distractors4_r.png,r,2,,,,,0,104,104,171,,,,,,,,,,,,,,,,,,,,,,,,,,,,,,,,,,,,152.26022660033777,None,2,1,0.5696367002092302,152.26022660033777,None,None,None,None,None,None,,1,001,2020_Oct_14_1556,searchDisc2,2020.2.4,59.976633037556674,
images/exp1a_trial_52_colour2_distractors1_l.png,l,1,,,,,0,105,105,52,,,,,,,,,,,,,,,,,,,,,,,,,,,,,,,,,,,,152.931536400225,None,1,1,0.6911991001106799,152.931536400225,None,None,None,None,None,None,,1,001,2020_Oct_14_1556,searchDisc2,2020.2.4,59.976633037556674,
images/exp1a_trial_15_colour1_distractors1_l.png,l,1,,,,,0,106,106,15,,,,,,,,,,,,,,,,,,,,,,,,,,,,,,,,,,,,153.7063925000839,None,1,1,0.7713791998103261,153.7063925000839,None,None,None,None,None,None,,1,001,2020_Oct_14_1556,searchDisc2,2020.2.4,59.976633037556674,
images/exp1a_trial_63_colour0_distractors0_l.png,l,1,,,,,0,107,107,63,,,,,,,,,,,,,,,,,,,,,,,,,,,,,,,,,,,,154.54809840023518,None,1,1,0.5461826003156602,154.54809840023518,None,None,None,None,None,None,,1,001,2020_Oct_14_1556,searchDisc2,2020.2.4,59.976633037556674,
images/exp2a_trial_32_colour1_distractors1_r.png,r,2,,,,,0,108,108,224,,,,,,,,,,,,,,,,,,,,,,,,,,,,,,,,,,,,155.20992120029405,None,2,1,0.9488137001171708,155.20992120029405,None,None,None,None,None,None,,1,001,2020_Oct_14_1556,searchDisc2,2020.2.4,59.976633037556674,
images/exp2a_trial_46_colour3_distractors31_r.png,r,2,,,,,0,109,109,238,,,,,,,,,,,,,,,,,,,,,,,,,,,,,,,,,,,,156.25623340019956,None,2,1,1.1902940003201365,156.25623340019956,None,None,None,None,None,None,,1,001,2020_Oct_14_1556,searchDisc2,2020.2.4,59.976633037556674,
images/exp2c_trial_92_colour3_distractors19_l.png,l,1,,,,,0,110,110,476,,,,,,,,,,,,,,,,,,,,,,,,,,,,,,,,,,,,157.5395591999404,None,1,1,0.6590670002624393,157.5395591999404,None,None,None,None,None,None,,1,001,2020_Oct_14_1556,searchDisc2,2020.2.4,59.976633037556674,
images/exp2a_trial_50_colour1_distractors19_l.png,l,1,,,,,0,111,111,242,,,,,,,,,,,,,,,,,,,,,,,,,,,,,,,,,,,,158.31593100028113,None,1,1,0.6026278003118932,158.31593100028113,None,None,None,None,None,None,,1,001,2020_Oct_14_1556,searchDisc2,2020.2.4,59.976633037556674,
images/exp2b_trial_95_colour0_distractors0_l.png,l,1,,,,,0,112,112,383,,,,,,,,,,,,,,,,,,,,,,,,,,,,,,,,,,,,159.00647070026025,None,1,1,0.8074404001235962,159.00647070026025,None,None,None,None,None,None,,1,001,2020_Oct_14_1556,searchDisc2,2020.2.4,59.976633037556674,
images/exp2a_trial_62_colour0_distractors0_r.png,r,2,,,,,0,113,113,254,,,,,,,,,,,,,,,,,,,,,,,,,,,,,,,,,,,,159.88897050032392,None,2,1,0.717461199965328,159.88897050032392,None,None,None,None,None,None,,1,001,2020_Oct_14_1556,searchDisc2,2020.2.4,59.976633037556674,
images/exp2c_trial_3_colour1_distractors19_r.png,r,2,,,,,0,114,114,387,,,,,,,,,,,,,,,,,,,,,,,,,,,,,,,,,,,,160.72087590023875,None,2,1,0.7105150003917515,160.72087590023875,None,161.51072670007125,None,space,161.51072670007125,None,2.2155832001008093,1,001,2020_Oct_14_1556,searchDisc2,2020.2.4,59.976633037556674,
images/exp2c_trial_72_colour2_distractors19_r.png,r,2,,,,,0,115,115,456,,,,,,,,,,,,,,,,,,,,,,,,,,,,,,,,,,,,163.80090640019625,None,2,1,0.8851171997375786,163.80090640019625,None,None,None,None,None,None,,1,001,2020_Oct_14_1556,searchDisc2,2020.2.4,59.976633037556674,
images/exp2c_trial_8_colour2_distractors19_r.png,r,2,,,,,0,116,116,392,,,,,,,,,,,,,,,,,,,,,,,,,,,,,,,,,,,,164.79137769993395,None,2,1,0.6631156001240015,164.79137769993395,None,None,None,None,None,None,,1,001,2020_Oct_14_1556,searchDisc2,2020.2.4,59.976633037556674,
images/exp1a_trial_60_colour3_distractors19_l.png,l,1,,,,,0,117,117,60,,,,,,,,,,,,,,,,,,,,,,,,,,,,,,,,,,,,165.56450900016353,None,1,1,0.578014399856329,165.56450900016353,None,None,None,None,None,None,,1,001,2020_Oct_14_1556,searchDisc2,2020.2.4,59.976633037556674,
images/exp2c_trial_78_colour3_distractors31_r.png,r,2,,,,,0,118,118,462,,,,,,,,,,,,,,,,,,,,,,,,,,,,,,,,,,,,166.26999380020425,None,2,1,0.7442603996023536,166.26999380020425,None,None,None,None,None,None,,1,001,2020_Oct_14_1556,searchDisc2,2020.2.4,59.976633037556674,
images/exp1a_trial_95_colour0_distractors0_l.png,l,1,,,,,0,119,119,95,,,,,,,,,,,,,,,,,,,,,,,,,,,,,,,,,,,,167.1022156002,None,1,1,0.7765917996875942,167.1022156002,None,None,None,None,None,None,,1,001,2020_Oct_14_1556,searchDisc2,2020.2.4,59.976633037556674,
images/exp2a_trial_18_colour1_distractors19_l.png,l,1,,,,,0,120,120,210,,,,,,,,,,,,,,,,,,,,,,,,,,,,,,,,,,,,168.00161510007456,None,1,1,0.5806426000781357,168.00161510007456,None,None,None,None,None,None,,1,001,2020_Oct_14_1556,searchDisc2,2020.2.4,59.976633037556674,
images/exp1b_trial_32_colour1_distractors1_r.png,r,2,,,,,0,121,121,128,,,,,,,,,,,,,,,,,,,,,,,,,,,,,,,,,,,,168.69644630001858,None,2,1,0.558220200240612,168.69644630001858,None,None,None,None,None,None,,1,001,2020_Oct_14_1556,searchDisc2,2020.2.4,59.976633037556674,
images/exp2c_trial_6_colour2_distractors4_r.png,r,2,,,,,0,122,122,390,,,,,,,,,,,,,,,,,,,,,,,,,,,,,,,,,,,,169.35779510019347,None,2,1,0.6649091998115182,169.35779510019347,None,None,None,None,None,None,,1,001,2020_Oct_14_1556,searchDisc2,2020.2.4,59.976633037556674,
images/exp2c_trial_45_colour3_distractors19_r.png,r,2,,,,,0,123,123,429,,,,,,,,,,,,,,,,,,,,,,,,,,,,,,,,,,,,170.12476940033957,None,2,1,0.7141819000244141,170.12476940033957,None,None,None,None,None,None,,1,001,2020_Oct_14_1556,searchDisc2,2020.2.4,59.976633037556674,
images/exp2a_trial_83_colour1_distractors31_l.png,l,1,,,,,0,124,124,275,,,,,,,,,,,,,,,,,,,,,,,,,,,,,,,,,,,,170.9042333001271,None,1,1,0.8227816000580788,170.9042333001271,None,None,None,None,None,None,,1,001,2020_Oct_14_1556,searchDisc2,2020.2.4,59.976633037556674,
images/exp1a_trial_31_colour0_distractors0_l.png,l,1,,,,,0,125,125,31,,,,,,,,,,,,,,,,,,,,,,,,,,,,,,,,,,,,171.8217650000006,None,1,1,0.48872279981151223,171.8217650000006,None,None,None,None,None,None,,1,001,2020_Oct_14_1556,searchDisc2,2020.2.4,59.976633037556674,
images/exp2b_trial_15_colour1_distractors1_l.png,l,1,,,,,0,126,126,303,,,,,,,,,,,,,,,,,,,,,,,,,,,,,,,,,,,,172.4547768998891,None,1,1,0.559947700239718,172.4547768998891,None,None,None,None,None,None,,1,001,2020_Oct_14_1556,searchDisc2,2020.2.4,59.976633037556674,
images/exp1b_trial_64_colour1_distractors1_r.png,r,2,,,,,0,127,127,160,,,,,,,,,,,,,,,,,,,,,,,,,,,,,,,,,,,,173.0976594001986,None,2,1,0.6776622999459505,173.0976594001986,None,None,None,None,None,None,,1,001,2020_Oct_14_1556,searchDisc2,2020.2.4,59.976633037556674,
images/exp2c_trial_68_colour1_distractors31_r.png,r,2,,,,,0,128,128,452,,,,,,,,,,,,,,,,,,,,,,,,,,,,,,,,,,,,173.85661560017616,None,2,1,0.5659436997957528,173.85661560017616,None,None,None,None,None,None,,1,001,2020_Oct_14_1556,searchDisc2,2020.2.4,59.976633037556674,
images/exp2a_trial_43_colour3_distractors4_r.png,r,2,,,,,0,129,129,235,,,,,,,,,,,,,,,,,,,,,,,,,,,,,,,,,,,,174.5094296000898,None,2,1,0.728984700050205,174.5094296000898,None,None,None,None,None,None,,1,001,2020_Oct_14_1556,searchDisc2,2020.2.4,59.976633037556674,
images/exp2b_trial_21_colour2_distractors4_l.png,l,1,,,,,0,130,130,309,,,,,,,,,,,,,,,,,,,,,,,,,,,,,,,,,,,,175.3248395002447,None,1,1,0.7057098001241684,175.3248395002447,None,None,None,None,None,None,,1,001,2020_Oct_14_1556,searchDisc2,2020.2.4,59.976633037556674,
images/exp2a_trial_20_colour2_distractors1_l.png,l,1,,,,,0,131,131,212,,,,,,,,,,,,,,,,,,,,,,,,,,,,,,,,,,,,176.13058970030397,None,1,1,0.6280245999805629,176.13058970030397,None,None,None,None,None,None,,1,001,2020_Oct_14_1556,searchDisc2,2020.2.4,59.976633037556674,
images/exp2b_trial_49_colour1_distractors9_l.png,l,1,,,,,0,132,132,337,,,,,,,,,,,,,,,,,,,,,,,,,,,,,,,,,,,,176.83838160010055,None,1,1,0.6479536001570523,176.83838160010055,None,None,None,None,None,None,,1,001,2020_Oct_14_1556,searchDisc2,2020.2.4,59.976633037556674,
images/exp2a_trial_79_colour1_distractors1_l.png,l,1,,,,,0,133,133,271,,,,,,,,,,,,,,,,,,,,,,,,,,,,,,,,,,,,177.5975808002986,None,1,1,0.5290561001747847,177.5975808002986,None,178.1980075002648,None,space,178.1980075002648,None,1.6722953002899885,1,001,2020_Oct_14_1556,searchDisc2,2020.2.4,59.976633037556674,
images/exp1a_trial_71_colour2_distractors9_r.png,r,2,,,,,0,134,134,71,,,,,,,,,,,,,,,,,,,,,,,,,,,,,,,,,,,,179.94629810005426,None,2,1,0.8915474000386894,179.94629810005426,None,None,None,None,None,None,,1,001,2020_Oct_14_1556,searchDisc2,2020.2.4,59.976633037556674,
images/exp2b_trial_45_colour3_distractors19_r.png,r,2,,,,,0,135,135,333,,,,,,,,,,,,,,,,,,,,,,,,,,,,,,,,,,,,180.90992570016533,None,2,1,0.6645432999357581,180.90992570016533,None,None,None,None,None,None,,1,001,2020_Oct_14_1556,searchDisc2,2020.2.4,59.976633037556674,
images/exp1b_trial_74_colour3_distractors1_r.png,r,2,,,,,0,136,136,170,,,,,,,,,,,,,,,,,,,,,,,,,,,,,,,,,,,,181.70704220002517,None,2,1,0.6834102999418974,181.70704220002517,None,None,None,None,None,None,,1,001,2020_Oct_14_1556,searchDisc2,2020.2.4,59.976633037556674,
images/exp2b_trial_53_colour2_distractors4_l.png,l,1,,,,,0,137,137,341,,,,,,,,,,,,,,,,,,,,,,,,,,,,,,,,,,,,182.4832709999755,None,1,1,0.6679028999060392,182.4832709999755,None,None,None,None,None,None,,1,001,2020_Oct_14_1556,searchDisc2,2020.2.4,59.976633037556674,
images/exp1a_trial_75_colour3_distractors4_r.png,r,2,,,,,0,138,138,75,,,,,,,,,,,,,,,,,,,,,,,,,,,,,,,,,,,,183.23666670033708,None,2,1,0.8017448000609875,183.23666670033708,None,None,None,None,None,None,,1,001,2020_Oct_14_1556,searchDisc2,2020.2.4,59.976633037556674,
images/exp2b_trial_79_colour1_distractors1_l.png,l,1,,,,,0,139,139,367,,,,,,,,,,,,,,,,,,,,,,,,,,,,,,,,,,,,184.1324877999723,None,1,1,0.634538599755615,184.1324877999723,None,None,None,None,None,None,,1,001,2020_Oct_14_1556,searchDisc2,2020.2.4,59.976633037556674,
images/exp2b_trial_48_colour1_distractors4_l.png,l,1,,,,,0,140,140,336,,,,,,,,,,,,,,,,,,,,,,,,,,,,,,,,,,,,184.86738219996914,None,1,1,0.6195348999463022,184.86738219996914,None,None,None,None,None,None,,1,001,2020_Oct_14_1556,searchDisc2,2020.2.4,59.976633037556674,
images/exp1b_trial_61_colour3_distractors31_l.png,l,1,,,,,0,141,141,157,,,,,,,,,,,,,,,,,,,,,,,,,,,,,,,,,,,,185.54438260011375,None,1,1,0.5662914998829365,185.54438260011375,None,None,None,None,None,None,,1,001,2020_Oct_14_1556,searchDisc2,2020.2.4,59.976633037556674,
images/exp1a_trial_10_colour3_distractors1_r.png,r,2,,,,,0,142,142,10,,,,,,,,,,,,,,,,,,,,,,,,,,,,,,,,,,,,186.20234240032732,None,2,1,0.7560212998650968,186.20234240032732,None,None,None,None,None,None,,1,001,2020_Oct_14_1556,searchDisc2,2020.2.4,59.976633037556674,
images/exp2c_trial_66_colour1_distractors9_r.png,r,2,,,,,0,143,143,450,,,,,,,,,,,,,,,,,,,,,,,,,,,,,,,,,,,,187.04028380010277,None,2,1,0.8148827999830246,187.04028380010277,None,None,None,None,None,None,,1,001,2020_Oct_14_1556,searchDisc2,2020.2.4,59.976633037556674,
images/exp2b_trial_46_colour3_distractors31_r.png,r,2,,,,,0,144,144,334,,,,,,,,,,,,,,,,,,,,,,,,,,,,,,,,,,,,187.91980529995635,None,2,1,0.9033610001206398,187.91980529995635,None,None,None,None,None,None,,1,001,2020_Oct_14_1556,searchDisc2,2020.2.4,59.976633037556674,
images/exp2a_trial_5_colour2_distractors1_r.png,r,2,,,,,0,145,145,197,,,,,,,,,,,,,,,,,,,,,,,,,,,,,,,,,,,,188.91733450023457,None,2,1,0.6732553001493216,188.91733450023457,None,None,None,None,None,None,,1,001,2020_Oct_14_1556,searchDisc2,2020.2.4,59.976633037556674,
images/exp2a_trial_93_colour3_distractors31_l.png,l,1,,,,,0,146,146,285,,,,,,,,,,,,,,,,,,,,,,,,,,,,,,,,,,,,189.65820319997147,None,1,1,0.8603326003067195,189.65820319997147,None,None,None,None,None,None,,1,001,2020_Oct_14_1556,searchDisc2,2020.2.4,59.976633037556674,
images/exp2a_trial_65_colour1_distractors4_r.png,r,2,,,,,0,147,147,257,,,,,,,,,,,,,,,,,,,,,,,,,,,,,,,,,,,,190.6362564000301,None,2,1,0.6819384000264108,190.6362564000301,None,None,None,None,None,None,,1,001,2020_Oct_14_1556,searchDisc2,2020.2.4,59.976633037556674,
images/exp1a_trial_73_colour2_distractors31_r.png,r,2,,,,,0,148,148,73,,,,,,,,,,,,,,,,,,,,,,,,,,,,,,,,,,,,191.40671369992197,None,2,1,0.7838634001091123,191.40671369992197,None,None,None,None,None,None,,1,001,2020_Oct_14_1556,searchDisc2,2020.2.4,59.976633037556674,
images/exp1a_trial_88_colour2_distractors31_l.png,l,1,,,,,0,149,149,88,,,,,,,,,,,,,,,,,,,,,,,,,,,,,,,,,,,,192.27606979990378,None,1,1,0.6744136996567249,192.27606979990378,None,None,None,None,None,None,,1,001,2020_Oct_14_1556,searchDisc2,2020.2.4,59.976633037556674,
images/exp1a_trial_67_colour1_distractors19_r.png,r,2,,,,,0,150,150,67,,,,,,,,,,,,,,,,,,,,,,,,,,,,,,,,,,,,193.04283750010654,None,2,1,0.7790113999508321,193.04283750010654,None,None,None,None,None,None,,1,001,2020_Oct_14_1556,searchDisc2,2020.2.4,59.976633037556674,
images/exp2c_trial_0_colour1_distractors1_r.png,r,2,,,,,0,151,151,384,,,,,,,,,,,,,,,,,,,,,,,,,,,,,,,,,,,,193.89065720001236,None,2,1,0.5159606002271175,193.89065720001236,None,None,None,None,None,None,,1,001,2020_Oct_14_1556,searchDisc2,2020.2.4,59.976633037556674,
images/exp1a_trial_39_colour2_distractors9_r.png,r,2,,,,,0,152,152,39,,,,,,,,,,,,,,,,,,,,,,,,,,,,,,,,,,,,194.49159110011533,None,2,1,0.7146372999995947,194.49159110011533,None,195.2522122003138,None,space,195.2522122003138,None,1.202138400170952,1,001,2020_Oct_14_1556,searchDisc2,2020.2.4,59.976633037556674,
images/exp2b_trial_61_colour3_distractors31_l.png,l,1,,,,,0,153,153,349,,,,,,,,,,,,,,,,,,,,,,,,,,,,,,,,,,,,196.53159120026976,None,1,1,0.8106351001188159,196.53159120026976,None,None,None,None,None,None,,1,001,2020_Oct_14_1556,searchDisc2,2020.2.4,59.976633037556674,
images/exp1a_trial_30_colour0_distractors0_r.png,r,2,,,,,0,154,154,30,,,,,,,,,,,,,,,,,,,,,,,,,,,,,,,,,,,,197.45565870031714,None,2,1,0.5913651003502309,197.45565870031714,None,None,None,None,None,None,,1,001,2020_Oct_14_1556,searchDisc2,2020.2.4,59.976633037556674,
images/exp1a_trial_29_colour3_distractors31_l.png,l,1,,,,,0,155,155,29,,,,,,,,,,,,,,,,,,,,,,,,,,,,,,,,,,,,198.13776190020144,None,1,1,0.6457311999984086,198.13776190020144,None,None,None,None,None,None,,1,001,2020_Oct_14_1556,searchDisc2,2020.2.4,59.976633037556674,
images/exp2b_trial_59_colour3_distractors9_l.png,l,1,,,,,0,156,156,347,,,,,,,,,,,,,,,,,,,,,,,,,,,,,,,,,,,,198.86451990017667,None,1,1,0.7275589001365006,198.86451990017667,None,None,None,None,None,None,,1,001,2020_Oct_14_1556,searchDisc2,2020.2.4,59.976633037556674,
images/exp1a_trial_74_colour3_distractors1_r.png,r,2,,,,,0,157,157,74,,,,,,,,,,,,,,,,,,,,,,,,,,,,,,,,,,,,199.6770273000002,None,2,1,0.5549072003923357,199.6770273000002,None,None,None,None,None,None,,1,001,2020_Oct_14_1556,searchDisc2,2020.2.4,59.976633037556674,
images/exp1b_trial_18_colour1_distractors19_l.png,l,1,,,,,0,158,158,114,,,,,,,,,,,,,,,,,,,,,,,,,,,,,,,,,,,,200.34929670020938,None,1,1,1.1053976998664439,200.34929670020938,None,None,None,None,None,None,,1,001,2020_Oct_14_1556,searchDisc2,2020.2.4,59.976633037556674,
images/exp2c_trial_74_colour3_distractors1_r.png,r,2,,,,,0,159,159,458,,,,,,,,,,,,,,,,,,,,,,,,,,,,,,,,,,,,201.53675180021673,None,2,1,0.6696668998338282,201.53675180021673,None,None,None,None,None,None,,1,001,2020_Oct_14_1556,searchDisc2,2020.2.4,59.976633037556674,
images/exp1b_trial_82_colour1_distractors19_l.png,l,1,,,,,0,160,160,178,,,,,,,,,,,,,,,,,,,,,,,,,,,,,,,,,,,,202.30357960006222,None,1,1,0.8001191997900605,202.30357960006222,None,None,None,None,None,None,,1,001,2020_Oct_14_1556,searchDisc2,2020.2.4,59.976633037556674,
images/exp2c_trial_65_colour1_distractors4_r.png,r,2,,,,,0,161,161,449,,,,,,,,,,,,,,,,,,,,,,,,,,,,,,,,,,,,203.19094499992207,None,2,1,0.6548716998659074,203.19094499992207,None,None,None,None,None,None,,1,001,2020_Oct_14_1556,searchDisc2,2020.2.4,59.976633037556674,
images/exp2a_trial_38_colour2_distractors4_r.png,r,2,,,,,0,162,162,230,,,,,,,,,,,,,,,,,,,,,,,,,,,,,,,,,,,,203.92707649990916,None,2,1,0.599341900087893,203.92707649990916,None,None,None,None,None,None,,1,001,2020_Oct_14_1556,searchDisc2,2020.2.4,59.976633037556674,
images/exp1a_trial_37_colour2_distractors1_r.png,r,2,,,,,0,163,163,37,,,,,,,,,,,,,,,,,,,,,,,,,,,,,,,,,,,,204.62258250033483,None,2,1,0.5194366998039186,204.62258250033483,None,None,None,None,None,None,,1,001,2020_Oct_14_1556,searchDisc2,2020.2.4,59.976633037556674,
images/exp2a_trial_13_colour3_distractors19_r.png,r,2,,,,,0,164,164,205,,,,,,,,,,,,,,,,,,,,,,,,,,,,,,,,,,,,205.23741589998826,None,2,1,0.6084206998348236,205.23741589998826,None,None,None,None,None,None,,1,001,2020_Oct_14_1556,searchDisc2,2020.2.4,59.976633037556674,
images/exp2b_trial_50_colour1_distractors19_l.png,l,1,,,,,0,165,165,338,,,,,,,,,,,,,,,,,,,,,,,,,,,,,,,,,,,,205.95732980035245,None,1,1,0.545110400300473,205.95732980035245,None,None,None,None,None,None,,1,001,2020_Oct_14_1556,searchDisc2,2020.2.4,59.976633037556674,
images/exp2b_trial_78_colour3_distractors31_r.png,r,2,,,,,0,166,166,366,,,,,,,,,,,,,,,,,,,,,,,,,,,,,,,,,,,,206.5900107002817,None,2,1,1.247696100268513,206.5900107002817,None,None,None,None,None,None,,1,001,2020_Oct_14_1556,searchDisc2,2020.2.4,59.976633037556674,
images/exp2c_trial_17_colour1_distractors9_l.png,l,1,,,,,0,167,167,401,,,,,,,,,,,,,,,,,,,,,,,,,,,,,,,,,,,,207.90632530022413,None,1,1,0.7640865999273956,207.90632530022413,None,None,None,None,None,None,,1,001,2020_Oct_14_1556,searchDisc2,2020.2.4,59.976633037556674,
images/exp2b_trial_0_colour1_distractors1_r.png,r,2,,,,,0,168,168,288,,,,,,,,,,,,,,,,,,,,,,,,,,,,,,,,,,,,208.75841929996386,None,2,1,0.6318923002108932,208.75841929996386,None,None,None,None,None,None,,1,001,2020_Oct_14_1556,searchDisc2,2020.2.4,59.976633037556674,
images/exp1b_trial_40_colour2_distractors19_r.png,r,2,,,,,0,169,169,136,,,,,,,,,,,,,,,,,,,,,,,,,,,,,,,,,,,,209.47502449993044,None,2,1,1.8992310999892652,209.47502449993044,None,None,None,None,None,None,,1,001,2020_Oct_14_1556,searchDisc2,2020.2.4,59.976633037556674,
images/exp2a_trial_45_colour3_distractors19_r.png,r,2,,,,,0,170,170,237,,,,,,,,,,,,,,,,,,,,,,,,,,,,,,,,,,,,211.46521290019155,None,2,1,0.845274300314486,211.46521290019155,None,None,None,None,None,None,,1,001,2020_Oct_14_1556,searchDisc2,2020.2.4,59.976633037556674,
images/exp1b_trial_50_colour1_distractors19_l.png,l,1,,,,,0,171,171,146,,,,,,,,,,,,,,,,,,,,,,,,,,,,,,,,,,,,212.40153759997338,None,1,1,1.0456849001348019,212.40153759997338,None,213.48705299990252,None,space,213.48705299990252,None,3.334939499851316,1,001,2020_Oct_14_1556,searchDisc2,2020.2.4,59.976633037556674,
images/exp2a_trial_77_colour3_distractors19_r.png,r,2,,,,,0,172,172,269,,,,,,,,,,,,,,,,,,,,,,,,,,,,,,,,,,,,216.88668690016493,None,2,1,0.7840732000768185,216.88668690016493,None,None,None,None,None,None,,1,001,2020_Oct_14_1556,searchDisc2,2020.2.4,59.976633037556674,
images/exp1b_trial_80_colour1_distractors4_l.png,l,1,,,,,0,173,173,176,,,,,,,,,,,,,,,,,,,,,,,,,,,,,,,,,,,,217.7970314999111,None,1,1,0.9607043000869453,217.7970314999111,None,None,None,None,None,None,,1,001,2020_Oct_14_1556,searchDisc2,2020.2.4,59.976633037556674,
images/exp2c_trial_2_colour1_distractors9_r.png,r,2,,,,,0,174,174,386,,,,,,,,,,,,,,,,,,,,,,,,,,,,,,,,,,,,218.84840570017695,None,2,1,0.6861705998890102,218.84840570017695,None,None,None,None,None,None,,1,001,2020_Oct_14_1556,searchDisc2,2020.2.4,59.976633037556674,
images/exp2c_trial_90_colour3_distractors4_l.png,l,1,,,,,0,175,175,474,,,,,,,,,,,,,,,,,,,,,,,,,,,,,,,,,,,,219.61866939999163,None,1,1,0.6366865998134017,219.61866939999163,None,None,None,None,None,None,,1,001,2020_Oct_14_1556,searchDisc2,2020.2.4,59.976633037556674,
images/exp2a_trial_76_colour3_distractors9_r.png,r,2,,,,,0,176,176,268,,,,,,,,,,,,,,,,,,,,,,,,,,,,,,,,,,,,220.3380736000836,None,2,1,0.6923018996603787,220.3380736000836,None,None,None,None,None,None,,1,001,2020_Oct_14_1556,searchDisc2,2020.2.4,59.976633037556674,
images/exp1a_trial_13_colour3_distractors19_r.png,r,2,,,,,0,177,177,13,,,,,,,,,,,,,,,,,,,,,,,,,,,,,,,,,,,,221.1225487999618,None,2,1,0.6198358000256121,221.1225487999618,None,None,None,None,None,None,,1,001,2020_Oct_14_1556,searchDisc2,2020.2.4,59.976633037556674,
images/exp2b_trial_27_colour3_distractors9_l.png,l,1,,,,,0,178,178,315,,,,,,,,,,,,,,,,,,,,,,,,,,,,,,,,,,,,221.83768220013008,None,1,1,0.6960236001759768,221.83768220013008,None,None,None,None,None,None,,1,001,2020_Oct_14_1556,searchDisc2,2020.2.4,59.976633037556674,
images/exp2a_trial_36_colour1_distractors31_r.png,r,2,,,,,0,179,179,228,,,,,,,,,,,,,,,,,,,,,,,,,,,,,,,,,,,,222.60497139999643,None,2,1,0.7932782000862062,222.60497139999643,None,None,None,None,None,None,,1,001,2020_Oct_14_1556,searchDisc2,2020.2.4,59.976633037556674,
images/exp1b_trial_7_colour2_distractors9_r.png,r,2,,,,,0,180,180,103,,,,,,,,,,,,,,,,,,,,,,,,,,,,,,,,,,,,223.4884581998922,None,2,1,0.7659036000259221,223.4884581998922,None,None,None,None,None,None,,1,001,2020_Oct_14_1556,searchDisc2,2020.2.4,59.976633037556674,
images/exp1a_trial_12_colour3_distractors9_r.png,r,2,,,,,0,181,181,12,,,,,,,,,,,,,,,,,,,,,,,,,,,,,,,,,,,,224.34117690008134,None,2,1,0.6339785996824503,224.34117690008134,None,None,None,None,None,None,,1,001,2020_Oct_14_1556,searchDisc2,2020.2.4,59.976633037556674,
images/exp2a_trial_53_colour2_distractors4_l.png,l,1,,,,,0,182,182,245,,,,,,,,,,,,,,,,,,,,,,,,,,,,,,,,,,,,225.0724329999648,None,1,1,0.6224736999720335,225.0724329999648,None,None,None,None,None,None,,1,001,2020_Oct_14_1556,searchDisc2,2020.2.4,59.976633037556674,
images/exp1a_trial_38_colour2_distractors4_r.png,r,2,,,,,0,183,183,38,,,,,,,,,,,,,,,,,,,,,,,,,,,,,,,,,,,,225.77337549999356,None,2,1,0.8570051002316177,225.77337549999356,None,None,None,None,None,None,,1,001,2020_Oct_14_1556,searchDisc2,2020.2.4,59.976633037556674,
images/exp2a_trial_11_colour3_distractors4_r.png,r,2,,,,,0,184,184,203,,,,,,,,,,,,,,,,,,,,,,,,,,,,,,,,,,,,226.71456649992615,None,2,1,0.7078539999201894,226.71456649992615,None,None,None,None,None,None,,1,001,2020_Oct_14_1556,searchDisc2,2020.2.4,59.976633037556674,
images/exp2a_trial_89_colour3_distractors1_l.png,l,1,,,,,0,185,185,281,,,,,,,,,,,,,,,,,,,,,,,,,,,,,,,,,,,,227.53553940029815,None,1,1,0.6957772001624107,227.53553940029815,None,None,None,None,None,None,,1,001,2020_Oct_14_1556,searchDisc2,2020.2.4,59.976633037556674,
images/exp2b_trial_56_colour2_distractors31_l.png,l,1,,,,,0,186,186,344,,,,,,,,,,,,,,,,,,,,,,,,,,,,,,,,,,,,228.3124665999785,None,1,1,0.5251699998043478,228.3124665999785,None,None,None,None,None,None,,1,001,2020_Oct_14_1556,searchDisc2,2020.2.4,59.976633037556674,
images/exp2b_trial_34_colour1_distractors9_r.png,r,2,,,,,0,187,187,322,,,,,,,,,,,,,,,,,,,,,,,,,,,,,,,,,,,,228.94857370015234,None,2,1,0.6257368996739388,228.94857370015234,None,None,None,None,None,None,,1,001,2020_Oct_14_1556,searchDisc2,2020.2.4,59.976633037556674,
images/exp2b_trial_62_colour0_distractors0_r.png,r,2,,,,,0,188,188,350,,,,,,,,,,,,,,,,,,,,,,,,,,,,,,,,,,,,229.69981530029327,None,2,1,0.41863090032711625,229.69981530029327,None,None,None,None,None,None,,1,001,2020_Oct_14_1556,searchDisc2,2020.2.4,59.976633037556674,
images/exp2c_trial_70_colour2_distractors4_r.png,r,2,,,,,0,189,189,454,,,,,,,,,,,,,,,,,,,,,,,,,,,,,,,,,,,,230.21037700027227,None,2,1,0.5884169000200927,230.21037700027227,None,None,None,None,None,None,,1,001,2020_Oct_14_1556,searchDisc2,2020.2.4,59.976633037556674,
images/exp2c_trial_31_colour0_distractors0_l.png,l,1,,,,,0,190,190,415,,,,,,,,,,,,,,,,,,,,,,,,,,,,,,,,,,,,230.86921939998865,None,1,1,0.6890700003132224,230.86921939998865,None,231.60192409995943,None,space,231.60192409995943,None,2.3722460996359587,1,001,2020_Oct_14_1556,searchDisc2,2020.2.4,59.976633037556674,
images/exp2a_trial_80_colour1_distractors4_l.png,l,1,,,,,0,191,191,272,,,,,,,,,,,,,,,,,,,,,,,,,,,,,,,,,,,,234.05232040025294,None,1,1,1.1373928999528289,234.05232040025294,None,None,None,None,None,None,,1,001,2020_Oct_14_1556,searchDisc2,2020.2.4,59.976633037556674,
images/exp2c_trial_9_colour2_distractors31_r.png,r,2,,,,,0,192,192,393,,,,,,,,,,,,,,,,,,,,,,,,,,,,,,,,,,,,235.2621765001677,None,2,1,0.7036147001199424,235.2621765001677,None,None,None,None,None,None,,1,001,2020_Oct_14_1556,searchDisc2,2020.2.4,59.976633037556674,
images/exp2c_trial_76_colour3_distractors9_r.png,r,2,,,,,0,193,193,460,,,,,,,,,,,,,,,,,,,,,,,,,,,,,,,,,,,,236.03363510034978,None,2,1,0.7164352997206151,236.03363510034978,None,None,None,None,None,None,,1,001,2020_Oct_14_1556,searchDisc2,2020.2.4,59.976633037556674,
images/exp2a_trial_73_colour2_distractors31_r.png,r,2,,,,,0,194,194,265,,,,,,,,,,,,,,,,,,,,,,,,,,,,,,,,,,,,236.84751019999385,None,2,1,0.5667988997884095,236.84751019999385,None,None,None,None,None,None,,1,001,2020_Oct_14_1556,searchDisc2,2020.2.4,59.976633037556674,
images/exp1b_trial_25_colour3_distractors1_l.png,l,1,,,,,0,195,195,121,,,,,,,,,,,,,,,,,,,,,,,,,,,,,,,,,,,,237.5371288000606,None,1,1,0.8219977002590895,237.5371288000606,None,None,None,None,None,None,,1,001,2020_Oct_14_1556,searchDisc2,2020.2.4,59.976633037556674,
images/exp1b_trial_72_colour2_distractors19_r.png,r,2,,,,,0,196,196,168,,,,,,,,,,,,,,,,,,,,,,,,,,,,,,,,,,,,238.4773675003089,None,2,1,1.2571332999505103,238.4773675003089,None,None,None,None,None,None,,1,001,2020_Oct_14_1556,searchDisc2,2020.2.4,59.976633037556674,
images/exp1a_trial_14_colour3_distractors31_r.png,r,2,,,,,0,197,197,14,,,,,,,,,,,,,,,,,,,,,,,,,,,,,,,,,,,,239.82432450028136,None,2,1,0.6143814004026353,239.82432450028136,None,None,None,None,None,None,,1,001,2020_Oct_14_1556,searchDisc2,2020.2.4,59.976633037556674,
images/exp2b_trial_37_colour2_distractors1_r.png,r,2,,,,,0,198,198,325,,,,,,,,,,,,,,,,,,,,,,,,,,,,,,,,,,,,240.50390050001442,None,2,1,0.7578697996214032,240.50390050001442,None,None,None,None,None,None,,1,001,2020_Oct_14_1556,searchDisc2,2020.2.4,59.976633037556674,
images/exp2a_trial_25_colour3_distractors1_l.png,l,1,,,,,0,199,199,217,,,,,,,,,,,,,,,,,,,,,,,,,,,,,,,,,,,,241.34078529989347,None,1,1,0.6258749002590775,241.34078529989347,None,None,None,None,None,None,,1,001,2020_Oct_14_1556,searchDisc2,2020.2.4,59.976633037556674,
images/exp2b_trial_82_colour1_distractors19_l.png,l,1,,,,,0,200,200,370,,,,,,,,,,,,,,,,,,,,,,,,,,,,,,,,,,,,242.05945389997214,None,1,1,0.5788750997744501,242.05945389997214,None,None,None,None,None,None,,1,001,2020_Oct_14_1556,searchDisc2,2020.2.4,59.976633037556674,
images/exp1a_trial_5_colour2_distractors1_r.png,r,2,,,,,0,201,201,5,,,,,,,,,,,,,,,,,,,,,,,,,,,,,,,,,,,,242.72658669995144,None,2,1,0.6958177001215518,242.72658669995144,None,None,None,None,None,None,,1,001,2020_Oct_14_1556,searchDisc2,2020.2.4,59.976633037556674,
images/exp1b_trial_70_colour2_distractors4_r.png,r,2,,,,,0,202,202,166,,,,,,,,,,,,,,,,,,,,,,,,,,,,,,,,,,,,243.51635850034654,None,2,1,0.5860806000418961,243.51635850034654,None,None,None,None,None,None,,1,001,2020_Oct_14_1556,searchDisc2,2020.2.4,59.976633037556674,
images/exp1b_trial_71_colour2_distractors9_r.png,r,2,,,,,0,203,203,167,,,,,,,,,,,,,,,,,,,,,,,,,,,,,,,,,,,,244.19345259992406,None,2,1,0.6442154999822378,244.19345259992406,None,None,None,None,None,None,,1,001,2020_Oct_14_1556,searchDisc2,2020.2.4,59.976633037556674,
images/exp2a_trial_49_colour1_distractors9_l.png,l,1,,,,,0,204,204,241,,,,,,,,,,,,,,,,,,,,,,,,,,,,,,,,,,,,244.90505739999935,None,1,1,0.685031000059098,244.90505739999935,None,None,None,None,None,None,,1,001,2020_Oct_14_1556,searchDisc2,2020.2.4,59.976633037556674,
images/exp2c_trial_41_colour2_distractors31_r.png,r,2,,,,,0,205,205,425,,,,,,,,,,,,,,,,,,,,,,,,,,,,,,,,,,,,245.65731499996036,None,2,1,0.8762895995751023,245.65731499996036,None,None,None,None,None,None,,1,001,2020_Oct_14_1556,searchDisc2,2020.2.4,59.976633037556674,
images/exp2a_trial_61_colour3_distractors31_l.png,l,1,,,,,0,206,206,253,,,,,,,,,,,,,,,,,,,,,,,,,,,,,,,,,,,,246.610607100185,None,1,1,0.9794492996297777,246.610607100185,None,None,None,None,None,None,,1,001,2020_Oct_14_1556,searchDisc2,2020.2.4,59.976633037556674,
images/exp1a_trial_20_colour2_distractors1_l.png,l,1,,,,,0,207,207,20,,,,,,,,,,,,,,,,,,,,,,,,,,,,,,,,,,,,247.6624520001933,None,1,1,0.7044063000939786,247.6624520001933,None,None,None,None,None,None,,1,001,2020_Oct_14_1556,searchDisc2,2020.2.4,59.976633037556674,
images/exp1a_trial_68_colour1_distractors31_r.png,r,2,,,,,0,208,208,68,,,,,,,,,,,,,,,,,,,,,,,,,,,,,,,,,,,,248.46172160003334,None,2,1,0.9684477997943759,248.46172160003334,None,None,None,None,None,None,,1,001,2020_Oct_14_1556,searchDisc2,2020.2.4,59.976633037556674,
images/exp2b_trial_25_colour3_distractors1_l.png,l,1,,,,,0,209,209,313,,,,,,,,,,,,,,,,,,,,,,,,,,,,,,,,,,,,249.51586530031636,None,1,1,0.8193874000571668,249.51586530031636,None,250.3748917002231,None,space,250.3748917002231,None,1.0232842001132667,1,001,2020_Oct_14_1556,searchDisc2,2020.2.4,59.976633037556674,
images/exp2a_trial_52_colour2_distractors1_l.png,l,1,,,,,0,210,210,244,,,,,,,,,,,,,,,,,,,,,,,,,,,,,,,,,,,,251.46870430000126,None,1,1,0.721817399840802,251.46870430000126,None,None,None,None,None,None,,1,001,2020_Oct_14_1556,searchDisc2,2020.2.4,59.976633037556674,
images/exp1a_trial_92_colour3_distractors19_l.png,l,1,,,,,0,211,211,92,,,,,,,,,,,,,,,,,,,,,,,,,,,,,,,,,,,,252.2858498999849,None,1,1,0.543913200031966,252.2858498999849,None,None,None,None,None,None,,1,001,2020_Oct_14_1556,searchDisc2,2020.2.4,59.976633037556674,
images/exp2a_trial_48_colour1_distractors4_l.png,l,1,,,,,0,212,212,240,,,,,,,,,,,,,,,,,,,,,,,,,,,,,,,,,,,,252.9286791998893,None,1,1,0.6538336002267897,252.9286791998893,None,None,None,None,None,None,,1,001,2020_Oct_14_1556,searchDisc2,2020.2.4,59.976633037556674,
images/exp2b_trial_68_colour1_distractors31_r.png,r,2,,,,,0,213,213,356,,,,,,,,,,,,,,,,,,,,,,,,,,,,,,,,,,,,253.6719388999045,None,2,1,0.6545549002476037,253.6719388999045,None,None,None,None,None,None,,1,001,2020_Oct_14_1556,searchDisc2,2020.2.4,59.976633037556674,
images/exp2a_trial_64_colour1_distractors1_r.png,r,2,,,,,0,214,214,256,,,,,,,,,,,,,,,,,,,,,,,,,,,,,,,,,,,,254.42221770016477,None,2,1,0.7682990999892354,254.42221770016477,None,None,None,None,None,None,,1,001,2020_Oct_14_1556,searchDisc2,2020.2.4,59.976633037556674,
images/exp1b_trial_39_colour2_distractors9_r.png,r,2,,,,,0,215,215,135,,,,,,,,,,,,,,,,,,,,,,,,,,,,,,,,,,,,255.2714682999067,None,2,1,0.6461077001877129,255.2714682999067,None,None,None,None,None,None,,1,001,2020_Oct_14_1556,searchDisc2,2020.2.4,59.976633037556674,
images/exp1b_trial_81_colour1_distractors9_l.png,l,1,,,,,0,216,216,177,,,,,,,,,,,,,,,,,,,,,,,,,,,,,,,,,,,,255.9844395001419,None,1,1,0.9744299999438226,255.9844395001419,None,None,None,None,None,None,,1,001,2020_Oct_14_1556,searchDisc2,2020.2.4,59.976633037556674,
images/exp2a_trial_17_colour1_distractors9_l.png,l,1,,,,,0,217,217,209,,,,,,,,,,,,,,,,,,,,,,,,,,,,,,,,,,,,257.05796580016613,None,1,1,0.7399132000282407,257.05796580016613,None,None,None,None,None,None,,1,001,2020_Oct_14_1556,searchDisc2,2020.2.4,59.976633037556674,
images/exp2b_trial_63_colour0_distractors0_l.png,l,1,,,,,0,218,218,351,,,,,,,,,,,,,,,,,,,,,,,,,,,,,,,,,,,,257.8704111003317,None,1,1,0.5919827003963292,257.8704111003317,None,None,None,None,None,None,,1,001,2020_Oct_14_1556,searchDisc2,2020.2.4,59.976633037556674,
images/exp2a_trial_6_colour2_distractors4_r.png,r,2,,,,,0,219,219,198,,,,,,,,,,,,,,,,,,,,,,,,,,,,,,,,,,,,258.559227200225,None,2,1,0.6704319003038108,258.559227200225,None,None,None,None,None,None,,1,001,2020_Oct_14_1556,searchDisc2,2020.2.4,59.976633037556674,
images/exp1b_trial_60_colour3_distractors19_l.png,l,1,,,,,0,220,220,156,,,,,,,,,,,,,,,,,,,,,,,,,,,,,,,,,,,,259.3512186999433,None,1,1,0.8387999003753066,259.3512186999433,None,None,None,None,None,None,,1,001,2020_Oct_14_1556,searchDisc2,2020.2.4,59.976633037556674,
images/exp2c_trial_34_colour1_distractors9_r.png,r,2,,,,,0,221,221,418,,,,,,,,,,,,,,,,,,,,,,,,,,,,,,,,,,,,260.312882500235,None,2,1,0.5982691003009677,260.312882500235,None,None,None,None,None,None,,1,001,2020_Oct_14_1556,searchDisc2,2020.2.4,59.976633037556674,
images/exp1b_trial_11_colour3_distractors4_r.png,r,2,,,,,0,222,222,107,,,,,,,,,,,,,,,,,,,,,,,,,,,,,,,,,,,,260.988657400012,None,2,1,1.129402399994433,260.988657400012,None,None,None,None,None,None,,1,001,2020_Oct_14_1556,searchDisc2,2020.2.4,59.976633037556674,
images/exp1b_trial_88_colour2_distractors31_l.png,l,1,,,,,0,223,223,184,,,,,,,,,,,,,,,,,,,,,,,,,,,,,,,,,,,,262.2258605998941,None,1,1,0.9003133000805974,262.2258605998941,None,None,None,None,None,None,,1,001,2020_Oct_14_1556,searchDisc2,2020.2.4,59.976633037556674,
images/exp1b_trial_27_colour3_distractors9_l.png,l,1,,,,,0,224,224,123,,,,,,,,,,,,,,,,,,,,,,,,,,,,,,,,,,,,263.21237830026075,None,1,1,0.8892496996559203,263.21237830026075,None,None,None,None,None,None,,1,001,2020_Oct_14_1556,searchDisc2,2020.2.4,59.976633037556674,
images/exp1a_trial_17_colour1_distractors9_l.png,l,1,,,,,0,225,225,17,,,,,,,,,,,,,,,,,,,,,,,,,,,,,,,,,,,,264.1827674000524,None,1,1,0.5509305000305176,264.1827674000524,None,None,None,None,None,None,,1,001,2020_Oct_14_1556,searchDisc2,2020.2.4,59.976633037556674,
images/exp1b_trial_66_colour1_distractors9_r.png,r,2,,,,,0,226,226,162,,,,,,,,,,,,,,,,,,,,,,,,,,,,,,,,,,,,264.8091457001865,None,2,1,0.8601975003257394,264.8091457001865,None,None,None,None,None,None,,1,001,2020_Oct_14_1556,searchDisc2,2020.2.4,59.976633037556674,
images/exp1a_trial_25_colour3_distractors1_l.png,l,1,,,,,0,227,227,25,,,,,,,,,,,,,,,,,,,,,,,,,,,,,,,,,,,,265.7316916002892,None,1,1,1.1378595996648073,265.7316916002892,None,None,None,None,None,None,,1,001,2020_Oct_14_1556,searchDisc2,2020.2.4,59.976633037556674,
images/exp1a_trial_65_colour1_distractors4_r.png,r,2,,,,,0,228,228,65,,,,,,,,,,,,,,,,,,,,,,,,,,,,,,,,,,,,266.93927180022,None,2,1,0.8432048996910453,266.93927180022,None,267.8326216000132,None,space,267.8326216000132,None,1.133768799714744,1,001,2020_Oct_14_1556,searchDisc2,2020.2.4,59.976633037556674,
images/exp1b_trial_41_colour2_distractors31_r.png,r,2,,,,,0,229,229,137,,,,,,,,,,,,,,,,,,,,,,,,,,,,,,,,,,,,269.04893720010296,None,2,1,0.7488211002200842,269.04893720010296,None,None,None,None,None,None,,1,001,2020_Oct_14_1556,searchDisc2,2020.2.4,59.976633037556674,
images/exp2c_trial_77_colour3_distractors19_r.png,r,2,,,,,0,230,230,461,,,,,,,,,,,,,,,,,,,,,,,,,,,,,,,,,,,,269.873978999909,None,2,1,0.5642150999046862,269.873978999909,None,None,None,None,None,None,,1,001,2020_Oct_14_1556,searchDisc2,2020.2.4,59.976633037556674,
images/exp2b_trial_70_colour2_distractors4_r.png,r,2,,,,,0,231,231,358,,,,,,,,,,,,,,,,,,,,,,,,,,,,,,,,,,,,270.49823930021375,None,2,1,0.5160415000282228,270.49823930021375,None,None,None,None,None,None,,1,001,2020_Oct_14_1556,searchDisc2,2020.2.4,59.976633037556674,
images/exp2b_trial_39_colour2_distractors9_r.png,r,2,,,,,0,232,232,327,,,,,,,,,,,,,,,,,,,,,,,,,,,,,,,,,,,,271.11538999993354,None,2,1,0.7950656996108592,271.11538999993354,None,None,None,None,None,None,,1,001,2020_Oct_14_1556,searchDisc2,2020.2.4,59.976633037556674,
images/exp1a_trial_43_colour3_distractors4_r.png,r,2,,,,,0,233,233,43,,,,,,,,,,,,,,,,,,,,,,,,,,,,,,,,,,,,272.0125931003131,None,2,1,0.4735694997943938,272.0125931003131,None,None,None,None,None,None,,1,001,2020_Oct_14_1556,searchDisc2,2020.2.4,59.976633037556674,
images/exp1b_trial_59_colour3_distractors9_l.png,l,1,,,,,0,234,234,155,,,,,,,,,,,,,,,,,,,,,,,,,,,,,,,,,,,,272.56802680017427,None,1,1,0.7185976002365351,272.56802680017427,None,None,None,None,None,None,,1,001,2020_Oct_14_1556,searchDisc2,2020.2.4,59.976633037556674,
images/exp1a_trial_19_colour1_distractors31_l.png,l,1,,,,,0,235,235,19,,,,,,,,,,,,,,,,,,,,,,,,,,,,,,,,,,,,273.3757501002401,None,1,1,0.6475991001352668,273.3757501002401,None,None,None,None,None,None,,1,001,2020_Oct_14_1556,searchDisc2,2020.2.4,59.976633037556674,
images/exp2b_trial_81_colour1_distractors9_l.png,l,1,,,,,0,236,236,369,,,,,,,,,,,,,,,,,,,,,,,,,,,,,,,,,,,,274.10513920011,None,1,1,0.5402755001559854,274.10513920011,None,None,None,None,None,None,,1,001,2020_Oct_14_1556,searchDisc2,2020.2.4,59.976633037556674,
images/exp2c_trial_24_colour2_distractors31_l.png,l,1,,,,,0,237,237,408,,,,,,,,,,,,,,,,,,,,,,,,,,,,,,,,,,,,274.7243857001886,None,1,1,0.6573121999390423,274.7243857001886,None,None,None,None,None,None,,1,001,2020_Oct_14_1556,searchDisc2,2020.2.4,59.976633037556674,
images/exp2c_trial_58_colour3_distractors4_l.png,l,1,,,,,0,238,238,442,,,,,,,,,,,,,,,,,,,,,,,,,,,,,,,,,,,,275.4588480000384,None,1,1,0.8364697000943124,275.4588480000384,None,None,None,None,None,None,,1,001,2020_Oct_14_1556,searchDisc2,2020.2.4,59.976633037556674,
images/exp2b_trial_28_colour3_distractors19_l.png,l,1,,,,,0,239,239,316,,,,,,,,,,,,,,,,,,,,,,,,,,,,,,,,,,,,276.3755804002285,None,1,1,0.5987761002033949,276.3755804002285,None,None,None,None,None,None,,1,001,2020_Oct_14_1556,searchDisc2,2020.2.4,59.976633037556674,
images/exp2a_trial_3_colour1_distractors19_r.png,r,2,,,,,0,240,240,195,,,,,,,,,,,,,,,,,,,,,,,,,,,,,,,,,,,,277.05999030033126,None,2,1,0.6354220998473465,277.05999030033126,None,None,None,None,None,None,,1,001,2020_Oct_14_1556,searchDisc2,2020.2.4,59.976633037556674,
images/exp2c_trial_28_colour3_distractors19_l.png,l,1,,,,,0,241,241,412,,,,,,,,,,,,,,,,,,,,,,,,,,,,,,,,,,,,277.7774509000592,None,1,1,1.092604000121355,277.7774509000592,None,None,None,None,None,None,,1,001,2020_Oct_14_1556,searchDisc2,2020.2.4,59.976633037556674,
images/exp1a_trial_72_colour2_distractors19_r.png,r,2,,,,,0,242,242,72,,,,,,,,,,,,,,,,,,,,,,,,,,,,,,,,,,,,278.955699400045,None,2,1,0.8105450998991728,278.955699400045,None,None,None,None,None,None,,1,001,2020_Oct_14_1556,searchDisc2,2020.2.4,59.976633037556674,
images/exp1a_trial_22_colour2_distractors9_l.png,l,1,,,,,0,243,243,22,,,,,,,,,,,,,,,,,,,,,,,,,,,,,,,,,,,,279.832801300101,None,1,1,0.599791799671948,279.832801300101,None,None,None,None,None,None,,1,001,2020_Oct_14_1556,searchDisc2,2020.2.4,59.976633037556674,
images/exp2b_trial_38_colour2_distractors4_r.png,r,2,,,,,0,244,244,326,,,,,,,,,,,,,,,,,,,,,,,,,,,,,,,,,,,,280.5096815000288,None,2,1,0.7447116002440453,280.5096815000288,None,None,None,None,None,None,,1,001,2020_Oct_14_1556,searchDisc2,2020.2.4,59.976633037556674,
images/exp2b_trial_93_colour3_distractors31_l.png,l,1,,,,,0,245,245,381,,,,,,,,,,,,,,,,,,,,,,,,,,,,,,,,,,,,281.34844959992915,None,1,1,0.8349061999469995,281.34844959992915,None,None,None,None,None,None,,1,001,2020_Oct_14_1556,searchDisc2,2020.2.4,59.976633037556674,
images/exp1a_trial_58_colour3_distractors4_l.png,l,1,,,,,0,246,246,58,,,,,,,,,,,,,,,,,,,,,,,,,,,,,,,,,,,,282.28672040021047,None,1,1,0.6870615999214351,282.28672040021047,None,None,None,None,None,None,,1,001,2020_Oct_14_1556,searchDisc2,2020.2.4,59.976633037556674,
images/exp1b_trial_31_colour0_distractors0_l.png,l,1,,,,,0,247,247,127,,,,,,,,,,,,,,,,,,,,,,,,,,,,,,,,,,,,283.05039860028774,None,1,1,0.6517520998604596,283.05039860028774,None,283.7235471000895,None,space,283.7235471000895,None,1.2585199000313878,1,001,2020_Oct_14_1556,searchDisc2,2020.2.4,59.976633037556674,
images/exp2c_trial_63_colour0_distractors0_l.png,l,1,,,,,0,248,248,447,,,,,,,,,,,,,,,,,,,,,,,,,,,,,,,,,,,,285.0425235000439,None,1,1,0.635721200145781,285.0425235000439,None,None,None,None,None,None,,1,001,2020_Oct_14_1556,searchDisc2,2020.2.4,59.976633037556674,
images/exp2c_trial_22_colour2_distractors9_l.png,l,1,,,,,0,249,249,406,,,,,,,,,,,,,,,,,,,,,,,,,,,,,,,,,,,,285.7655484001152,None,1,1,0.6568483998999,285.7655484001152,None,None,None,None,None,None,,1,001,2020_Oct_14_1556,searchDisc2,2020.2.4,59.976633037556674,
images/exp2a_trial_92_colour3_distractors19_l.png,l,1,,,,,0,250,250,284,,,,,,,,,,,,,,,,,,,,,,,,,,,,,,,,,,,,286.504529800266,None,1,1,0.5506735001690686,286.504529800266,None,None,None,None,None,None,,1,001,2020_Oct_14_1556,searchDisc2,2020.2.4,59.976633037556674,
images/exp1b_trial_33_colour1_distractors4_r.png,r,2,,,,,0,251,251,129,,,,,,,,,,,,,,,,,,,,,,,,,,,,,,,,,,,,287.11839949991554,None,2,1,0.624021400231868,287.11839949991554,None,None,None,None,None,None,,1,001,2020_Oct_14_1556,searchDisc2,2020.2.4,59.976633037556674,
images/exp2b_trial_75_colour3_distractors4_r.png,r,2,,,,,0,252,252,363,,,,,,,,,,,,,,,,,,,,,,,,,,,,,,,,,,,,287.86016560019925,None,2,1,0.7221633000299335,287.86016560019925,None,None,None,None,None,None,,1,001,2020_Oct_14_1556,searchDisc2,2020.2.4,59.976633037556674,
images/exp2c_trial_7_colour2_distractors9_r.png,r,2,,,,,0,253,253,391,,,,,,,,,,,,,,,,,,,,,,,,,,,,,,,,,,,,288.6930182003416,None,2,1,0.769327700138092,288.6930182003416,None,None,None,None,None,None,,1,001,2020_Oct_14_1556,searchDisc2,2020.2.4,59.976633037556674,
images/exp1b_trial_58_colour3_distractors4_l.png,l,1,,,,,0,254,254,154,,,,,,,,,,,,,,,,,,,,,,,,,,,,,,,,,,,,289.5798829002306,None,1,1,0.9065747000277042,289.5798829002306,None,None,None,None,None,None,,1,001,2020_Oct_14_1556,searchDisc2,2020.2.4,59.976633037556674,
images/exp2b_trial_58_colour3_distractors4_l.png,l,1,,,,,0,255,255,346,,,,,,,,,,,,,,,,,,,,,,,,,,,,,,,,,,,,290.5540915001184,None,1,1,0.6282110000029206,290.5540915001184,None,None,None,None,None,None,,1,001,2020_Oct_14_1556,searchDisc2,2020.2.4,59.976633037556674,
images/exp2b_trial_20_colour2_distractors1_l.png,l,1,,,,,0,256,256,308,,,,,,,,,,,,,,,,,,,,,,,,,,,,,,,,,,,,291.2637847000733,None,1,1,0.479282199870795,291.2637847000733,None,None,None,None,None,None,,1,001,2020_Oct_14_1556,searchDisc2,2020.2.4,59.976633037556674,
images/exp1b_trial_15_colour1_distractors1_l.png,l,1,,,,,0,257,257,111,,,,,,,,,,,,,,,,,,,,,,,,,,,,,,,,,,,,291.84248619992286,None,1,1,1.0196638000197709,291.84248619992286,None,None,None,None,None,None,,1,001,2020_Oct_14_1556,searchDisc2,2020.2.4,59.976633037556674,
images/exp1a_trial_56_colour2_distractors31_l.png,l,1,,,,,0,258,258,56,,,,,,,,,,,,,,,,,,,,,,,,,,,,,,,,,,,,292.9361817003228,None,1,1,0.8934889999218285,292.9361817003228,None,None,None,None,None,None,,1,001,2020_Oct_14_1556,searchDisc2,2020.2.4,59.976633037556674,
images/exp2c_trial_81_colour1_distractors9_l.png,l,1,,,,,0,259,259,465,,,,,,,,,,,,,,,,,,,,,,,,,,,,,,,,,,,,293.8950982000679,None,1,1,0.7112116999924183,293.8950982000679,None,None,None,None,None,None,,1,001,2020_Oct_14_1556,searchDisc2,2020.2.4,59.976633037556674,
images/exp1a_trial_51_colour1_distractors31_l.png,l,1,,,,,0,260,260,51,,,,,,,,,,,,,,,,,,,,,,,,,,,,,,,,,,,,294.69286160031334,None,1,1,0.7540895002894104,294.69286160031334,None,None,None,None,None,None,,1,001,2020_Oct_14_1556,searchDisc2,2020.2.4,59.976633037556674,
images/exp2b_trial_3_colour1_distractors19_r.png,r,2,,,,,0,261,261,291,,,,,,,,,,,,,,,,,,,,,,,,,,,,,,,,,,,,295.5036468002945,None,2,1,0.6468237000517547,295.5036468002945,None,None,None,None,None,None,,1,001,2020_Oct_14_1556,searchDisc2,2020.2.4,59.976633037556674,
images/exp2b_trial_41_colour2_distractors31_r.png,r,2,,,,,0,262,262,329,,,,,,,,,,,,,,,,,,,,,,,,,,,,,,,,,,,,296.24610470002517,None,2,1,0.6881275000050664,296.24610470002517,None,None,None,None,None,None,,1,001,2020_Oct_14_1556,searchDisc2,2020.2.4,59.976633037556674,
images/exp2b_trial_85_colour2_distractors4_l.png,l,1,,,,,0,263,263,373,,,,,,,,,,,,,,,,,,,,,,,,,,,,,,,,,,,,297.0270148999989,None,1,1,0.6433862000703812,297.0270148999989,None,None,None,None,None,None,,1,001,2020_Oct_14_1556,searchDisc2,2020.2.4,59.976633037556674,
images/exp2b_trial_47_colour1_distractors1_l.png,l,1,,,,,0,264,264,335,,,,,,,,,,,,,,,,,,,,,,,,,,,,,,,,,,,,297.7902778000571,None,1,1,0.6718368995934725,297.7902778000571,None,None,None,None,None,None,,1,001,2020_Oct_14_1556,searchDisc2,2020.2.4,59.976633037556674,
images/exp2b_trial_88_colour2_distractors31_l.png,l,1,,,,,0,265,265,376,,,,,,,,,,,,,,,,,,,,,,,,,,,,,,,,,,,,298.5725120003335,None,1,1,0.673651599790901,298.5725120003335,None,None,None,None,None,None,,1,001,2020_Oct_14_1556,searchDisc2,2020.2.4,59.976633037556674,
images/exp2c_trial_23_colour2_distractors19_l.png,l,1,,,,,0,266,266,407,,,,,,,,,,,,,,,,,,,,,,,,,,,,,,,,,,,,299.357408599928,None,1,1,1.1937349000945687,299.357408599928,None,300.5898335003294,None,space,300.5898335003294,None,4.584359699860215,1,001,2020_Oct_14_1556,searchDisc2,2020.2.4,59.976633037556674,
images/exp2c_trial_61_colour3_distractors31_l.png,l,1,,,,,0,267,267,445,,,,,,,,,,,,,,,,,,,,,,,,,,,,,,,,,,,,305.2540068998933,None,1,1,1.480689199641347,305.2540068998933,None,None,None,None,None,None,,1,001,2020_Oct_14_1556,searchDisc2,2020.2.4,59.976633037556674,
images/exp2a_trial_51_colour1_distractors31_l.png,l,1,,,,,0,268,268,243,,,,,,,,,,,,,,,,,,,,,,,,,,,,,,,,,,,,306.80469570029527,None,1,1,0.5776329003274441,306.80469570029527,None,None,None,None,None,None,,1,001,2020_Oct_14_1556,searchDisc2,2020.2.4,59.976633037556674,
images/exp2b_trial_23_colour2_distractors19_l.png,l,1,,,,,0,269,269,311,,,,,,,,,,,,,,,,,,,,,,,,,,,,,,,,,,,,307.4606154002249,None,1,1,0.7220155000686646,307.4606154002249,None,None,None,None,None,None,,1,001,2020_Oct_14_1556,searchDisc2,2020.2.4,59.976633037556674,
images/exp1a_trial_64_colour1_distractors1_r.png,r,2,,,,,0,270,270,64,,,,,,,,,,,,,,,,,,,,,,,,,,,,,,,,,,,,308.27205860009417,None,2,1,0.6549909003078938,308.27205860009417,None,None,None,None,None,None,,1,001,2020_Oct_14_1556,searchDisc2,2020.2.4,59.976633037556674,
images/exp2c_trial_89_colour3_distractors1_l.png,l,1,,,,,0,271,271,473,,,,,,,,,,,,,,,,,,,,,,,,,,,,,,,,,,,,309.0023280000314,None,1,1,0.8513695001602173,309.0023280000314,None,None,None,None,None,None,,1,001,2020_Oct_14_1556,searchDisc2,2020.2.4,59.976633037556674,
images/exp2a_trial_91_colour3_distractors9_l.png,l,1,,,,,0,272,272,283,,,,,,,,,,,,,,,,,,,,,,,,,,,,,,,,,,,,309.92368370015174,None,1,1,0.6744766999036074,309.92368370015174,None,None,None,None,None,None,,1,001,2020_Oct_14_1556,searchDisc2,2020.2.4,59.976633037556674,
images/exp2a_trial_74_colour3_distractors1_r.png,r,2,,,,,0,273,273,266,,,,,,,,,,,,,,,,,,,,,,,,,,,,,,,,,,,,310.68404960026965,None,2,1,0.5547124999575317,310.68404960026965,None,None,None,None,None,None,,1,001,2020_Oct_14_1556,searchDisc2,2020.2.4,59.976633037556674,
images/exp1a_trial_21_colour2_distractors4_l.png,l,1,,,,,0,274,274,21,,,,,,,,,,,,,,,,,,,,,,,,,,,,,,,,,,,,311.3603038000874,None,1,1,0.6934767998754978,311.3603038000874,None,None,None,None,None,None,,1,001,2020_Oct_14_1556,searchDisc2,2020.2.4,59.976633037556674,
images/exp2b_trial_8_colour2_distractors19_r.png,r,2,,,,,0,275,275,296,,,,,,,,,,,,,,,,,,,,,,,,,,,,,,,,,,,,312.13210980035365,None,2,1,0.7855306998826563,312.13210980035365,None,None,None,None,None,None,,1,001,2020_Oct_14_1556,searchDisc2,2020.2.4,59.976633037556674,
images/exp1a_trial_59_colour3_distractors9_l.png,l,1,,,,,0,276,276,59,,,,,,,,,,,,,,,,,,,,,,,,,,,,,,,,,,,,313.00519199995324,None,1,1,0.5612492999061942,313.00519199995324,None,None,None,None,None,None,,1,001,2020_Oct_14_1556,searchDisc2,2020.2.4,59.976633037556674,
images/exp2a_trial_22_colour2_distractors9_l.png,l,1,,,,,0,277,277,214,,,,,,,,,,,,,,,,,,,,,,,,,,,,,,,,,,,,313.6602358999662,None,1,1,0.5707018999382854,313.6602358999662,None,None,None,None,None,None,,1,001,2020_Oct_14_1556,searchDisc2,2020.2.4,59.976633037556674,
images/exp1b_trial_46_colour3_distractors31_r.png,r,2,,,,,0,278,278,142,,,,,,,,,,,,,,,,,,,,,,,,,,,,,,,,,,,,314.31226680008695,None,2,1,0.7658196999691427,314.31226680008695,None,None,None,None,None,None,,1,001,2020_Oct_14_1556,searchDisc2,2020.2.4,59.976633037556674,
images/exp1a_trial_89_colour3_distractors1_l.png,l,1,,,,,0,279,279,89,,,,,,,,,,,,,,,,,,,,,,,,,,,,,,,,,,,,315.161917200312,None,1,1,0.8834053999744356,315.161917200312,None,None,None,None,None,None,,1,001,2020_Oct_14_1556,searchDisc2,2020.2.4,59.976633037556674,
images/exp2c_trial_39_colour2_distractors9_r.png,r,2,,,,,0,280,280,423,,,,,,,,,,,,,,,,,,,,,,,,,,,,,,,,,,,,316.1526013002731,None,2,1,0.8850572998635471,316.1526013002731,None,None,None,None,None,None,,1,001,2020_Oct_14_1556,searchDisc2,2020.2.4,59.976633037556674,
images/exp2c_trial_79_colour1_distractors1_l.png,l,1,,,,,0,281,281,463,,,,,,,,,,,,,,,,,,,,,,,,,,,,,,,,,,,,317.1253883000463,None,1,1,0.7122891996987164,317.1253883000463,None,None,None,None,None,None,,1,001,2020_Oct_14_1556,searchDisc2,2020.2.4,59.976633037556674,
images/exp2c_trial_86_colour2_distractors9_l.png,l,1,,,,,0,282,282,470,,,,,,,,,,,,,,,,,,,,,,,,,,,,,,,,,,,,317.91887690033764,None,1,1,0.5908562000840902,317.91887690033764,None,None,None,None,None,None,,1,001,2020_Oct_14_1556,searchDisc2,2020.2.4,59.976633037556674,
images/exp2a_trial_21_colour2_distractors4_l.png,l,1,,,,,0,283,283,213,,,,,,,,,,,,,,,,,,,,,,,,,,,,,,,,,,,,318.6109047001228,None,1,1,0.6194786000996828,318.6109047001228,None,None,None,None,None,None,,1,001,2020_Oct_14_1556,searchDisc2,2020.2.4,59.976633037556674,
images/exp2c_trial_60_colour3_distractors19_l.png,l,1,,,,,0,284,284,444,,,,,,,,,,,,,,,,,,,,,,,,,,,,,,,,,,,,319.31654260028154,None,1,1,0.665449199732393,319.31654260028154,None,None,None,None,None,None,,1,001,2020_Oct_14_1556,searchDisc2,2020.2.4,59.976633037556674,
images/exp2b_trial_4_colour1_distractors31_r.png,r,2,,,,,0,285,285,292,,,,,,,,,,,,,,,,,,,,,,,,,,,,,,,,,,,,320.05271199997514,None,2,1,0.7296480997465551,320.05271199997514,None,320.8195457002148,None,space,320.8195457002148,None,1.0260542002506554,1,001,2020_Oct_14_1556,searchDisc2,2020.2.4,59.976633037556674,
images/exp1b_trial_34_colour1_distractors9_r.png,r,2,,,,,0,286,286,130,,,,,,,,,,,,,,,,,,,,,,,,,,,,,,,,,,,,321.91932279989123,None,2,1,0.9197980999015272,321.91932279989123,None,None,None,None,None,None,,1,001,2020_Oct_14_1556,searchDisc2,2020.2.4,59.976633037556674,
images/exp1a_trial_42_colour3_distractors1_r.png,r,2,,,,,0,287,287,42,,,,,,,,,,,,,,,,,,,,,,,,,,,,,,,,,,,,322.93506770022213,None,2,1,0.6159385000355542,322.93506770022213,None,None,None,None,None,None,,1,001,2020_Oct_14_1556,searchDisc2,2020.2.4,59.976633037556674,
images/exp2b_trial_30_colour0_distractors0_r.png,r,2,,,,,0,288,288,318,,,,,,,,,,,,,,,,,,,,,,,,,,,,,,,,,,,,323.6722582001239,None,2,1,0.4539061998948455,323.6722582001239,None,None,None,None,None,None,,1,001,2020_Oct_14_1556,searchDisc2,2020.2.4,59.976633037556674,
images/exp2c_trial_38_colour2_distractors4_r.png,r,2,,,,,0,289,289,422,,,,,,,,,,,,,,,,,,,,,,,,,,,,,,,,,,,,324.1850304999389,None,2,1,0.6126476000063121,324.1850304999389,None,None,None,None,None,None,,1,001,2020_Oct_14_1556,searchDisc2,2020.2.4,59.976633037556674,
images/exp2a_trial_68_colour1_distractors31_r.png,r,2,,,,,0,290,290,260,,,,,,,,,,,,,,,,,,,,,,,,,,,,,,,,,,,,324.8731820001267,None,2,1,0.7018772000446916,324.8731820001267,None,None,None,None,None,None,,1,001,2020_Oct_14_1556,searchDisc2,2020.2.4,59.976633037556674,
images/exp2b_trial_90_colour3_distractors4_l.png,l,1,,,,,0,291,291,378,,,,,,,,,,,,,,,,,,,,,,,,,,,,,,,,,,,,325.67574570002034,None,1,1,0.5464699999429286,325.67574570002034,None,None,None,None,None,None,,1,001,2020_Oct_14_1556,searchDisc2,2020.2.4,59.976633037556674,
images/exp1a_trial_76_colour3_distractors9_r.png,r,2,,,,,0,292,292,76,,,,,,,,,,,,,,,,,,,,,,,,,,,,,,,,,,,,326.3383706002496,None,2,1,0.875993900001049,326.3383706002496,None,None,None,None,None,None,,1,001,2020_Oct_14_1556,searchDisc2,2020.2.4,59.976633037556674,
images/exp1b_trial_14_colour3_distractors31_r.png,r,2,,,,,0,293,293,110,,,,,,,,,,,,,,,,,,,,,,,,,,,,,,,,,,,,327.3328945999965,None,2,1,1.288712500128895,327.3328945999965,None,None,None,None,None,None,,1,001,2020_Oct_14_1556,searchDisc2,2020.2.4,59.976633037556674,
images/exp2b_trial_26_colour3_distractors4_l.png,l,1,,,,,0,294,294,314,,,,,,,,,,,,,,,,,,,,,,,,,,,,,,,,,,,,328.69835870014504,None,1,1,0.6850487999618053,328.69835870014504,None,None,None,None,None,None,,1,001,2020_Oct_14_1556,searchDisc2,2020.2.4,59.976633037556674,
images/exp2a_trial_29_colour3_distractors31_l.png,l,1,,,,,0,295,295,221,,,,,,,,,,,,,,,,,,,,,,,,,,,,,,,,,,,,329.47835490014404,None,1,1,0.776195100042969,329.47835490014404,None,None,None,None,None,None,,1,001,2020_Oct_14_1556,searchDisc2,2020.2.4,59.976633037556674,
images/exp1b_trial_45_colour3_distractors19_r.png,r,2,,,,,0,296,296,141,,,,,,,,,,,,,,,,,,,,,,,,,,,,,,,,,,,,330.3414564002305,None,2,1,0.8894875003024936,330.3414564002305,None,None,None,None,None,None,,1,001,2020_Oct_14_1556,searchDisc2,2020.2.4,59.976633037556674,
images/exp2b_trial_22_colour2_distractors9_l.png,l,1,,,,,0,297,297,310,,,,,,,,,,,,,,,,,,,,,,,,,,,,,,,,,,,,331.29405170027167,None,1,1,1.048169800080359,331.29405170027167,None,None,None,None,None,None,,1,001,2020_Oct_14_1556,searchDisc2,2020.2.4,59.976633037556674,
images/exp1a_trial_47_colour1_distractors1_l.png,l,1,,,,,0,298,298,47,,,,,,,,,,,,,,,,,,,,,,,,,,,,,,,,,,,,332.4291098001413,None,1,1,0.5605971002951264,332.4291098001413,None,None,None,None,None,None,,1,001,2020_Oct_14_1556,searchDisc2,2020.2.4,59.976633037556674,
images/exp1b_trial_26_colour3_distractors4_l.png,l,1,,,,,0,299,299,122,,,,,,,,,,,,,,,,,,,,,,,,,,,,,,,,,,,,333.09007260017097,None,1,1,1.1641853000037372,333.09007260017097,None,None,None,None,None,None,,1,001,2020_Oct_14_1556,searchDisc2,2020.2.4,59.976633037556674,
images/exp2b_trial_18_colour1_distractors19_l.png,l,1,,,,,0,300,300,306,,,,,,,,,,,,,,,,,,,,,,,,,,,,,,,,,,,,334.34105960000306,None,1,1,0.6414852002635598,334.34105960000306,None,None,None,None,None,None,,1,001,2020_Oct_14_1556,searchDisc2,2020.2.4,59.976633037556674,
images/exp1b_trial_8_colour2_distractors19_r.png,r,2,,,,,0,301,301,104,,,,,,,,,,,,,,,,,,,,,,,,,,,,,,,,,,,,335.06346700014547,None,2,1,0.8069760999642313,335.06346700014547,None,None,None,None,None,None,,1,001,2020_Oct_14_1556,searchDisc2,2020.2.4,59.976633037556674,
images/exp2c_trial_36_colour1_distractors31_r.png,r,2,,,,,0,302,302,420,,,,,,,,,,,,,,,,,,,,,,,,,,,,,,,,,,,,335.9385120002553,None,2,1,0.7087730998173356,335.9385120002553,None,None,None,None,None,None,,1,001,2020_Oct_14_1556,searchDisc2,2020.2.4,59.976633037556674,
images/exp2b_trial_11_colour3_distractors4_r.png,r,2,,,,,0,303,303,299,,,,,,,,,,,,,,,,,,,,,,,,,,,,,,,,,,,,336.73211329989135,None,2,1,1.050171000417322,336.73211329989135,None,None,None,None,None,None,,1,001,2020_Oct_14_1556,searchDisc2,2020.2.4,59.976633037556674,
images/exp2a_trial_26_colour3_distractors4_l.png,l,1,,,,,0,304,304,218,,,,,,,,,,,,,,,,,,,,,,,,,,,,,,,,,,,,337.8603706001304,None,1,1,0.8982736999168992,337.8603706001304,None,338.82245410000905,None,space,338.82245410000905,None,1.3997589000500739,1,001,2020_Oct_14_1556,searchDisc2,2020.2.4,59.976633037556674,
images/exp2b_trial_10_colour3_distractors1_r.png,r,2,,,,,0,305,305,298,,,,,,,,,,,,,,,,,,,,,,,,,,,,,,,,,,,,340.2846844000742,None,2,1,1.049860400147736,340.2846844000742,None,None,None,None,None,None,,1,001,2020_Oct_14_1556,searchDisc2,2020.2.4,59.976633037556674,
images/exp1b_trial_21_colour2_distractors4_l.png,l,1,,,,,0,306,306,117,,,,,,,,,,,,,,,,,,,,,,,,,,,,,,,,,,,,341.4216904002242,None,1,1,1.2409880999475718,341.4216904002242,None,None,None,None,None,None,,1,001,2020_Oct_14_1556,searchDisc2,2020.2.4,59.976633037556674,
images/exp2c_trial_49_colour1_distractors9_l.png,l,1,,,,,0,307,307,433,,,,,,,,,,,,,,,,,,,,,,,,,,,,,,,,,,,,342.7407142999582,None,1,1,0.6416724999435246,342.7407142999582,None,None,None,None,None,None,,1,001,2020_Oct_14_1556,searchDisc2,2020.2.4,59.976633037556674,
images/exp1a_trial_70_colour2_distractors4_r.png,r,2,,,,,0,308,308,70,,,,,,,,,,,,,,,,,,,,,,,,,,,,,,,,,,,,343.4717104001902,None,2,1,0.8146150000393391,343.4717104001902,None,None,None,None,None,None,,1,001,2020_Oct_14_1556,searchDisc2,2020.2.4,59.976633037556674,
images/exp1b_trial_19_colour1_distractors31_l.png,l,1,,,,,0,309,309,115,,,,,,,,,,,,,,,,,,,,,,,,,,,,,,,,,,,,344.37841830030084,None,1,1,0.7236286997795105,344.37841830030084,None,None,None,None,None,None,,1,001,2020_Oct_14_1556,searchDisc2,2020.2.4,59.976633037556674,
images/exp2c_trial_26_colour3_distractors4_l.png,l,1,,,,,0,310,310,410,,,,,,,,,,,,,,,,,,,,,,,,,,,,,,,,,,,,345.1702209999785,None,1,1,0.6835260996595025,345.1702209999785,None,None,None,None,None,None,,1,001,2020_Oct_14_1556,searchDisc2,2020.2.4,59.976633037556674,
images/exp2b_trial_35_colour1_distractors19_r.png,r,2,,,,,0,311,311,323,,,,,,,,,,,,,,,,,,,,,,,,,,,,,,,,,,,,345.9574281000532,None,2,1,0.5770317995920777,345.9574281000532,None,None,None,None,None,None,,1,001,2020_Oct_14_1556,searchDisc2,2020.2.4,59.976633037556674,
images/exp2c_trial_35_colour1_distractors19_r.png,r,2,,,,,0,312,312,419,,,,,,,,,,,,,,,,,,,,,,,,,,,,,,,,,,,,346.6248145001009,None,2,1,0.49307020008563995,346.6248145001009,None,None,None,None,None,None,,1,001,2020_Oct_14_1556,searchDisc2,2020.2.4,59.976633037556674,
images/exp1b_trial_62_colour0_distractors0_r.png,r,1,,,,,0,313,313,158,,,,,,,,,,,,,,,,,,,,,,,,,,,,,,,,,,,,347.1886402000673,None,2,0,0.6013107998296618,347.1886402000673,None,None,None,None,None,None,,1,001,2020_Oct_14_1556,searchDisc2,2020.2.4,59.976633037556674,
images/exp2c_trial_16_colour1_distractors4_l.png,l,1,,,,,0,314,314,400,,,,,,,,,,,,,,,,,,,,,,,,,,,,,,,,,,,,347.8608059999533,None,1,1,0.7775218999013305,347.8608059999533,None,None,None,None,None,None,,1,001,2020_Oct_14_1556,searchDisc2,2020.2.4,59.976633037556674,
images/exp2a_trial_19_colour1_distractors31_l.png,l,1,,,,,0,315,315,211,,,,,,,,,,,,,,,,,,,,,,,,,,,,,,,,,,,,348.72627389989793,None,1,1,0.6801892002113163,348.72627389989793,None,None,None,None,None,None,,1,001,2020_Oct_14_1556,searchDisc2,2020.2.4,59.976633037556674,
images/exp2b_trial_12_colour3_distractors9_r.png,r,2,,,,,0,316,316,300,,,,,,,,,,,,,,,,,,,,,,,,,,,,,,,,,,,,349.51975050009787,None,2,1,0.6787354997359216,349.51975050009787,None,None,None,None,None,None,,1,001,2020_Oct_14_1556,searchDisc2,2020.2.4,59.976633037556674,
images/exp1a_trial_62_colour0_distractors0_r.png,r,2,,,,,0,317,317,62,,,,,,,,,,,,,,,,,,,,,,,,,,,,,,,,,,,,350.28392670024186,None,2,1,0.5458362000063062,350.28392670024186,None,None,None,None,None,None,,1,001,2020_Oct_14_1556,searchDisc2,2020.2.4,59.976633037556674,
images/exp2c_trial_1_colour1_distractors4_r.png,r,2,,,,,0,318,318,385,,,,,,,,,,,,,,,,,,,,,,,,,,,,,,,,,,,,350.89196739997715,None,2,1,0.5383578999899328,350.89196739997715,None,None,None,None,None,None,,1,001,2020_Oct_14_1556,searchDisc2,2020.2.4,59.976633037556674,
images/exp2b_trial_55_colour2_distractors19_l.png,l,1,,,,,0,319,319,343,,,,,,,,,,,,,,,,,,,,,,,,,,,,,,,,,,,,351.516798700206,None,1,1,0.5933864000253379,351.516798700206,None,None,None,None,None,None,,1,001,2020_Oct_14_1556,searchDisc2,2020.2.4,59.976633037556674,
images/exp1b_trial_69_colour2_distractors1_r.png,r,2,,,,,0,320,320,165,,,,,,,,,,,,,,,,,,,,,,,,,,,,,,,,,,,,352.2012061001733,None,2,1,0.5254073003306985,352.2012061001733,None,None,None,None,None,None,,1,001,2020_Oct_14_1556,searchDisc2,2020.2.4,59.976633037556674,
images/exp2a_trial_86_colour2_distractors9_l.png,l,1,,,,,0,321,321,278,,,,,,,,,,,,,,,,,,,,,,,,,,,,,,,,,,,,352.8227130002342,None,1,1,0.6877085003070533,352.8227130002342,None,None,None,None,None,None,,1,001,2020_Oct_14_1556,searchDisc2,2020.2.4,59.976633037556674,
images/exp2c_trial_5_colour2_distractors1_r.png,r,2,,,,,0,322,322,389,,,,,,,,,,,,,,,,,,,,,,,,,,,,,,,,,,,,353.60204569995403,None,2,1,0.580842699855566,353.60204569995403,None,None,None,None,None,None,,1,001,2020_Oct_14_1556,searchDisc2,2020.2.4,59.976633037556674,
images/exp1a_trial_93_colour3_distractors31_l.png,l,1,,,,,0,323,323,93,,,,,,,,,,,,,,,,,,,,,,,,,,,,,,,,,,,,354.26712350035086,None,1,1,0.5719349998980761,354.26712350035086,None,354.89310709992424,None,space,354.89310709992424,None,2.009306099731475,1,001,2020_Oct_14_1556,searchDisc2,2020.2.4,59.976633037556674,
images/exp1b_trial_83_colour1_distractors31_l.png,l,1,,,,,0,324,324,179,,,,,,,,,,,,,,,,,,,,,,,,,,,,,,,,,,,,356.9762297999114,None,1,1,1.0861010998487473,356.9762297999114,None,None,None,None,None,None,,1,001,2020_Oct_14_1556,searchDisc2,2020.2.4,59.976633037556674,
images/exp1b_trial_73_colour2_distractors31_r.png,r,2,,,,,0,325,325,169,,,,,,,,,,,,,,,,,,,,,,,,,,,,,,,,,,,,358.1521534998901,None,2,1,1.285439200233668,358.1521534998901,None,None,None,None,None,None,,1,001,2020_Oct_14_1556,searchDisc2,2020.2.4,59.976633037556674,
images/exp2a_trial_35_colour1_distractors19_r.png,r,2,,,,,0,326,326,227,,,,,,,,,,,,,,,,,,,,,,,,,,,,,,,,,,,,359.5341934002936,None,2,1,1.0722835999913514,359.5341934002936,None,None,None,None,None,None,,1,001,2020_Oct_14_1556,searchDisc2,2020.2.4,59.976633037556674,
images/exp2c_trial_10_colour3_distractors1_r.png,r,2,,,,,0,327,327,394,,,,,,,,,,,,,,,,,,,,,,,,,,,,,,,,,,,,360.69427550025284,None,2,1,0.7758583999238908,360.69427550025284,None,None,None,None,None,None,,1,001,2020_Oct_14_1556,searchDisc2,2020.2.4,59.976633037556674,
images/exp1b_trial_1_colour1_distractors4_r.png,r,2,,,,,0,328,328,97,,,,,,,,,,,,,,,,,,,,,,,,,,,,,,,,,,,,361.554860400036,None,2,1,0.8430026001296937,361.554860400036,None,None,None,None,None,None,,1,001,2020_Oct_14_1556,searchDisc2,2020.2.4,59.976633037556674,
images/exp2c_trial_80_colour1_distractors4_l.png,l,1,,,,,0,329,329,464,,,,,,,,,,,,,,,,,,,,,,,,,,,,,,,,,,,,362.45996490027755,None,1,1,0.5382681000046432,362.45996490027755,None,None,None,None,None,None,,1,001,2020_Oct_14_1556,searchDisc2,2020.2.4,59.976633037556674,
images/exp1a_trial_3_colour1_distractors19_r.png,r,2,,,,,0,330,330,3,,,,,,,,,,,,,,,,,,,,,,,,,,,,,,,,,,,,363.0624605002813,None,2,1,0.8717383998446167,363.0624605002813,None,None,None,None,None,None,,1,001,2020_Oct_14_1556,searchDisc2,2020.2.4,59.976633037556674,
images/exp1b_trial_24_colour2_distractors31_l.png,l,1,,,,,0,331,331,120,,,,,,,,,,,,,,,,,,,,,,,,,,,,,,,,,,,,364.0244829999283,None,1,1,0.8700860999524593,364.0244829999283,None,None,None,None,None,None,,1,001,2020_Oct_14_1556,searchDisc2,2020.2.4,59.976633037556674,
images/exp1a_trial_53_colour2_distractors4_l.png,l,1,,,,,0,332,332,53,,,,,,,,,,,,,,,,,,,,,,,,,,,,,,,,,,,,364.9807279999368,None,1,1,0.6733130002394319,364.9807279999368,None,None,None,None,None,None,,1,001,2020_Oct_14_1556,searchDisc2,2020.2.4,59.976633037556674,
images/exp2c_trial_20_colour2_distractors1_l.png,l,1,,,,,0,333,333,404,,,,,,,,,,,,,,,,,,,,,,,,,,,,,,,,,,,,365.7407356002368,None,1,1,0.6587641001679003,365.7407356002368,None,None,None,None,None,None,,1,001,2020_Oct_14_1556,searchDisc2,2020.2.4,59.976633037556674,
images/exp1a_trial_69_colour2_distractors1_r.png,r,2,,,,,0,334,334,69,,,,,,,,,,,,,,,,,,,,,,,,,,,,,,,,,,,,366.4785992000252,None,2,1,0.5916205001994967,366.4785992000252,None,None,None,None,None,None,,1,001,2020_Oct_14_1556,searchDisc2,2020.2.4,59.976633037556674,
images/exp1b_trial_28_colour3_distractors19_l.png,l,1,,,,,0,335,335,124,,,,,,,,,,,,,,,,,,,,,,,,,,,,,,,,,,,,367.14631660003215,None,1,1,0.6121155000291765,367.14631660003215,None,None,None,None,None,None,,1,001,2020_Oct_14_1556,searchDisc2,2020.2.4,59.976633037556674,
images/exp1a_trial_32_colour1_distractors1_r.png,r,2,,,,,0,336,336,32,,,,,,,,,,,,,,,,,,,,,,,,,,,,,,,,,,,,367.8359382003546,None,2,1,0.6743360003456473,367.8359382003546,None,None,None,None,None,None,,1,001,2020_Oct_14_1556,searchDisc2,2020.2.4,59.976633037556674,
images/exp2c_trial_67_colour1_distractors19_r.png,r,2,,,,,0,337,337,451,,,,,,,,,,,,,,,,,,,,,,,,,,,,,,,,,,,,368.6022859001532,None,2,1,0.7399491001851857,368.6022859001532,None,None,None,None,None,None,,1,001,2020_Oct_14_1556,searchDisc2,2020.2.4,59.976633037556674,
images/exp2a_trial_72_colour2_distractors19_r.png,r,2,,,,,0,338,338,264,,,,,,,,,,,,,,,,,,,,,,,,,,,,,,,,,,,,369.43770850030705,None,2,1,0.6407666997984052,369.43770850030705,None,None,None,None,None,None,,1,001,2020_Oct_14_1556,searchDisc2,2020.2.4,59.976633037556674,
images/exp2c_trial_54_colour2_distractors9_l.png,l,1,,,,,0,339,339,438,,,,,,,,,,,,,,,,,,,,,,,,,,,,,,,,,,,,370.1632794002071,None,1,1,0.8111129002645612,370.1632794002071,None,None,None,None,None,None,,1,001,2020_Oct_14_1556,searchDisc2,2020.2.4,59.976633037556674,
images/exp2c_trial_55_colour2_distractors19_l.png,l,1,,,,,0,340,340,439,,,,,,,,,,,,,,,,,,,,,,,,,,,,,,,,,,,,371.06812330009416,None,1,1,0.5709899999201298,371.06812330009416,None,None,None,None,None,None,,1,001,2020_Oct_14_1556,searchDisc2,2020.2.4,59.976633037556674,
images/exp2c_trial_43_colour3_distractors4_r.png,r,2,,,,,0,341,341,427,,,,,,,,,,,,,,,,,,,,,,,,,,,,,,,,,,,,371.6987779000774,None,2,1,0.7402432002127171,371.6987779000774,None,None,None,None,None,None,,1,001,2020_Oct_14_1556,searchDisc2,2020.2.4,59.976633037556674,
images/exp1b_trial_22_colour2_distractors9_l.png,l,1,,,,,0,342,342,118,,,,,,,,,,,,,,,,,,,,,,,,,,,,,,,,,,,,372.497972200159,None,1,1,0.9405153999105096,372.497972200159,None,373.47927490016446,None,space,373.47927490016446,None,1.5828130999580026,1,001,2020_Oct_14_1556,searchDisc2,2020.2.4,59.976633037556674,
images/exp2b_trial_19_colour1_distractors31_l.png,l,1,,,,,0,343,343,307,,,,,,,,,,,,,,,,,,,,,,,,,,,,,,,,,,,,375.1412647003308,None,1,1,0.5766048999503255,375.1412647003308,None,None,None,None,None,None,,1,001,2020_Oct_14_1556,searchDisc2,2020.2.4,59.976633037556674,
images/exp2c_trial_85_colour2_distractors4_l.png,l,1,,,,,0,344,344,469,,,,,,,,,,,,,,,,,,,,,,,,,,,,,,,,,,,,375.81110069993883,None,1,1,0.6515322998166084,375.81110069993883,None,None,None,None,None,None,,1,001,2020_Oct_14_1556,searchDisc2,2020.2.4,59.976633037556674,
images/exp2a_trial_63_colour0_distractors0_l.png,l,1,,,,,0,345,345,255,,,,,,,,,,,,,,,,,,,,,,,,,,,,,,,,,,,,376.5417367001064,None,1,1,0.5769079001620412,376.5417367001064,None,None,None,None,None,None,,1,001,2020_Oct_14_1556,searchDisc2,2020.2.4,59.976633037556674,
images/exp1b_trial_94_colour0_distractors0_r.png,r,2,,,,,0,346,346,190,,,,,,,,,,,,,,,,,,,,,,,,,,,,,,,,,,,,377.2077516000718,None,2,1,0.5818679998628795,377.2077516000718,None,None,None,None,None,None,,1,001,2020_Oct_14_1556,searchDisc2,2020.2.4,59.976633037556674,
images/exp2b_trial_52_colour2_distractors1_l.png,l,1,,,,,0,347,347,340,,,,,,,,,,,,,,,,,,,,,,,,,,,,,,,,,,,,377.88368920003995,None,1,1,0.49857369996607304,377.88368920003995,None,None,None,None,None,None,,1,001,2020_Oct_14_1556,searchDisc2,2020.2.4,59.976633037556674,
