ImageFile,targ_side,correctAnswer,trials_2.thisRepN,trials_2.thisTrialN,trials_2.thisN,trials_2.thisIndex,trials.thisRepN,trials.thisTrialN,trials.thisN,trials.thisIndex,text_2.started,text_2.stopped,key_resp_5.keys,key_resp_5.rt,key_resp_5.started,key_resp_5.stopped,image_2.started,image_2.stopped,key_resp_6.keys,key_resp_6.rt,key_resp_6.started,key_resp_6.stopped,text_3.started,text_3.stopped,image_3.started,image_3.stopped,image.started,image.stopped,key_resp_4.keys,key_resp_4.corr,key_resp_4.rt,key_resp_4.started,key_resp_4.stopped,text_4.started,text_4.stopped,text.started,text.stopped,key_resp_3.keys,key_resp_3.rt,key_resp_3.started,key_resp_3.stopped,dispStimuli.started,dispStimuli.stopped,key_resp_2.keys,key_resp_2.corr,key_resp_2.rt,key_resp_2.started,key_resp_2.stopped,breakMessage.started,breakMessage.stopped,key_resp.keys,key_resp.started,key_resp.stopped,key_resp.rt,participant,session,date,expName,psychopyVersion,frameRate,
,,,,,,,,,,,9.965254900002037,None,space,0.8855065999960061,10.936026800001855,None,,,,,,,,,,,,,,,,,,,,,,,,,,,,,,,,,,,,,,,1,001,2020_Nov_25_1013,searchDisc3,2020.2.4,59.98908198949247,
,,,,,,,,,,,,,,,,,11.852657800001907,None,space,0.057657500001369044,12.835863800006337,None,,,,,,,,,,,,,,,,,,,,,,,,,,,,,,,,,1,001,2020_Nov_25_1013,searchDisc3,2020.2.4,59.98908198949247,
images/exp1a_trial_12_colour3_distractors9_r.png,r,2,0,0,0,12,,,,,,,,,,,,,,,,,11.852657800001907,None,11.852657800001907,None,13.171442300008493,None,2,1,1.5062270000053104,13.171442300008493,None,14.712949499997194,None,,,,,,,,,,,,,,,,,,,,1,001,2020_Nov_25_1013,searchDisc3,2020.2.4,59.98908198949247,
images/exp1a_trial_3_colour1_distractors19_r.png,r,2,0,1,1,3,,,,,,,,,,,,,,,,,,,,,15.768647100005182,None,2,1,0.9890015999990283,15.768647100005182,None,16.785619300004328,None,,,,,,,,,,,,,,,,,,,,1,001,2020_Nov_25_1013,searchDisc3,2020.2.4,59.98908198949247,
images/exp1a_trial_18_colour1_distractors19_l.png,l,1,0,2,2,18,,,,,,,,,,,,,,,,,,,,,17.82359970000107,None,1,1,0.41389260000141803,17.82359970000107,None,18.268160200008424,None,,,,,,,,,,,,,,,,,,,,1,001,2020_Nov_25_1013,searchDisc3,2020.2.4,59.98908198949247,
images/exp1a_trial_7_colour2_distractors9_r.png,r,2,0,3,3,7,,,,,,,,,,,,,,,,,,,,,19.303096900010132,None,1,0,0.34260090001043864,19.303096900010132,None,19.6811854000116,None,,,,,,,,,,,,,,,,,,,,1,001,2020_Nov_25_1013,searchDisc3,2020.2.4,59.98908198949247,
images/exp1a_trial_13_colour3_distractors19_r.png,r,2,0,4,4,13,,,,,,,,,,,,,,,,,,,,,20.71584879999864,None,1,0,0.4099030999932438,20.71584879999864,None,21.152008999997634,None,,,,,,,,,,,,,,,,,,,,1,001,2020_Nov_25_1013,searchDisc3,2020.2.4,59.98908198949247,
images/exp1a_trial_4_colour1_distractors31_r.png,r,2,0,5,5,4,,,,,,,,,,,,,,,,,,,,,22.18802480000886,None,1,0,0.2897443999972893,22.18802480000886,None,22.501519099998404,None,,,,,,,,,,,,,,,,,,,,1,001,2020_Nov_25_1013,searchDisc3,2020.2.4,59.98908198949247,
images/exp1a_trial_2_colour1_distractors9_r.png,r,2,0,6,6,2,,,,,,,,,,,,,,,,,,,,,23.53870299999835,None,1,0,0.3228871000028448,23.53870299999835,None,23.884860999998637,None,,,,,,,,,,,,,,,,,,,,1,001,2020_Nov_25_1013,searchDisc3,2020.2.4,59.98908198949247,
images/exp1a_trial_6_colour2_distractors4_r.png,r,2,0,7,7,6,,,,,,,,,,,,,,,,,,,,,24.92733620000945,None,1,0,0.3422367999883136,24.92733620000945,None,25.28436440000951,None,,,,,,,,,,,,,,,,,,,,1,001,2020_Nov_25_1013,searchDisc3,2020.2.4,59.98908198949247,
images/exp1a_trial_9_colour2_distractors31_r.png,r,2,0,8,8,9,,,,,,,,,,,,,,,,,,,,,26.325504500011448,None,2,1,1.5764223000005586,26.325504500011448,None,27.91975880000973,None,,,,,,,,,,,,,,,,,,,,1,001,2020_Nov_25_1013,searchDisc3,2020.2.4,59.98908198949247,
images/exp1a_trial_5_colour2_distractors1_r.png,r,2,0,9,9,5,,,,,,,,,,,,,,,,,,,,,28.965176199999405,None,2,1,0.585321800012025,28.965176199999405,None,29.56746030000795,None,,,,,,,,,,,,,,,,,,,,1,001,2020_Nov_25_1013,searchDisc3,2020.2.4,59.98908198949247,
images/exp1a_trial_1_colour1_distractors4_r.png,r,2,0,10,10,1,,,,,,,,,,,,,,,,,,,,,30.61065070000768,None,2,1,0.5310790999938035,30.61065070000768,None,31.167446400009794,None,,,,,,,,,,,,,,,,,,,,1,001,2020_Nov_25_1013,searchDisc3,2020.2.4,59.98908198949247,
images/exp1a_trial_10_colour3_distractors1_r.png,r,2,0,11,11,10,,,,,,,,,,,,,,,,,,,,,32.20967270000256,None,2,1,0.6440264999982901,32.20967270000256,None,32.883961100000306,None,,,,,,,,,,,,,,,,,,,,1,001,2020_Nov_25_1013,searchDisc3,2020.2.4,59.98908198949247,
images/exp1a_trial_11_colour3_distractors4_r.png,r,2,0,12,12,11,,,,,,,,,,,,,,,,,,,,,33.92500580000342,None,2,1,0.6567202000005636,33.92500580000342,None,34.60013250001066,None,,,,,,,,,,,,,,,,,,,,1,001,2020_Nov_25_1013,searchDisc3,2020.2.4,59.98908198949247,
images/exp1a_trial_0_colour1_distractors1_r.png,r,2,0,13,13,0,,,,,,,,,,,,,,,,,,,,,35.63838509999914,None,2,1,0.5196606999961659,35.63838509999914,None,36.183643099997425,None,,,,,,,,,,,,,,,,,,,,1,001,2020_Nov_25_1013,searchDisc3,2020.2.4,59.98908198949247,
images/exp1a_trial_14_colour3_distractors31_r.png,r,2,0,14,14,14,,,,,,,,,,,,,,,,,,,,,37.21239310000965,None,2,1,0.5853814000001876,37.21239310000965,None,37.81681119999848,None,,,,,,,,,,,,,,,,,,,,1,001,2020_Nov_25_1013,searchDisc3,2020.2.4,59.98908198949247,
images/exp1a_trial_19_colour1_distractors31_l.png,l,1,0,15,15,19,,,,,,,,,,,,,,,,,,,,,38.856257799998275,None,2,0,0.4773762999975588,38.856257799998275,None,39.352400400006445,None,,,,,,,,,,,,,,,,,,,,1,001,2020_Nov_25_1013,searchDisc3,2020.2.4,59.98908198949247,
images/exp1a_trial_15_colour1_distractors1_l.png,l,1,0,16,16,15,,,,,,,,,,,,,,,,,,,,,40.40960199999972,None,1,1,0.56417220000003,40.40960199999972,None,41.00050480000209,None,,,,,,,,,,,,,,,,,,,,1,001,2020_Nov_25_1013,searchDisc3,2020.2.4,59.98908198949247,
images/exp1a_trial_16_colour1_distractors4_l.png,l,1,0,17,17,16,,,,,,,,,,,,,,,,,,,,,42.03686000000744,None,1,1,0.8728654000005918,42.03686000000744,None,42.932866800008924,None,,,,,,,,,,,,,,,,,,,,1,001,2020_Nov_25_1013,searchDisc3,2020.2.4,59.98908198949247,
images/exp1a_trial_17_colour1_distractors9_l.png,l,1,0,18,18,17,,,,,,,,,,,,,,,,,,,,,43.96311810000043,None,1,1,0.810541099999682,43.96311810000043,None,44.79824460000964,None,,,,,,,,,,,,,,,,,,,,1,001,2020_Nov_25_1013,searchDisc3,2020.2.4,59.98908198949247,
images/exp1a_trial_8_colour2_distractors19_r.png,r,2,0,19,19,8,,,,,,,,,,,,,,,,,,,,,45.84862060000887,None,2,1,0.6369738999928813,45.84862060000887,None,46.5155611000082,None,,,,,,,,,,,,,,,,,,,,1,001,2020_Nov_25_1013,searchDisc3,2020.2.4,59.98908198949247,
,,,,,,,,,,,,,,,,,,,,,,,,,,,,,,,,,,,,47.58682670000417,None,space,1.1839532000012696,50.58152870000049,None,,,,,,,,,,,,,,1,001,2020_Nov_25_1013,searchDisc3,2020.2.4,59.98908198949247,
images/exp2c_trial_21_colour2_distractors4_l.png,l,1,,,,,0,0,0,405,,,,,,,,,,,,,,,,,,,,,,,,,,,,,,,,51.93081170000369,None,1,1,1.0428700000047684,51.93081170000369,None,53.0479877600068,None,None,53.0479877600068,None,,1,001,2020_Nov_25_1013,searchDisc3,2020.2.4,59.98908198949247,
images/exp1a_trial_76_colour3_distractors9_r.png,r,2,,,,,0,1,1,76,,,,,,,,,,,,,,,,,,,,,,,,,,,,,,,,53.0882588000095,None,2,1,0.7003562999889255,53.0882588000095,None,53.831365780005584,None,None,53.831365780005584,None,,1,001,2020_Nov_25_1013,searchDisc3,2020.2.4,59.98908198949247,
images/exp1b_trial_70_colour2_distractors4_r.png,r,2,,,,,0,2,2,166,,,,,,,,,,,,,,,,,,,,,,,,,,,,,,,,53.8683624999976,None,1,0,0.456004200008465,53.8683624999976,None,54.36492498001026,None,None,54.36492498001026,None,,1,001,2020_Nov_25_1013,searchDisc3,2020.2.4,59.98908198949247,
images/exp2b_trial_12_colour3_distractors9_r.png,r,2,,,,,0,3,3,300,,,,,,,,,,,,,,,,,,,,,,,,,,,,,,,,54.40810820000479,None,2,1,0.4516115999867907,54.40810820000479,None,54.897662380000114,None,None,54.897662380000114,None,,1,001,2020_Nov_25_1013,searchDisc3,2020.2.4,59.98908198949247,
images/exp1a_trial_58_colour3_distractors4_l.png,l,1,,,,,0,4,4,58,,,,,,,,,,,,,,,,,,,,,,,,,,,,,,,,54.93364499999734,None,1,1,0.3745238999981666,54.93364499999734,None,55.34773548000085,None,None,55.34773548000085,None,,1,001,2020_Nov_25_1013,searchDisc3,2020.2.4,59.98908198949247,
images/exp2c_trial_64_colour1_distractors1_r.png,r,2,,,,,0,5,5,448,,,,,,,,,,,,,,,,,,,,,,,,,,,,,,,,55.3870670000033,None,2,1,0.3294510999985505,55.3870670000033,None,55.76442018000235,None,None,55.76442018000235,None,,1,001,2020_Nov_25_1013,searchDisc3,2020.2.4,59.98908198949247,
images/exp2a_trial_72_colour2_distractors19_r.png,r,2,,,,,0,6,6,264,,,,,,,,,,,,,,,,,,,,,,,,,,,,,,,,55.79633140000806,None,1,0,0.24000389999127947,55.79633140000806,None,56.06399894000206,None,None,56.06399894000206,None,,1,001,2020_Nov_25_1013,searchDisc3,2020.2.4,59.98908198949247,
images/exp2b_trial_87_colour2_distractors19_l.png,l,1,,,,,0,7,7,375,,,,,,,,,,,,,,,,,,,,,,,,,,,,,,,,56.10731079999823,None,2,0,0.37715049998951145,56.10731079999823,None,56.530867680007944,None,None,56.530867680007944,None,,1,001,2020_Nov_25_1013,searchDisc3,2020.2.4,59.98908198949247,
images/exp1a_trial_82_colour1_distractors19_l.png,l,1,,,,,0,8,8,82,,,,,,,,,,,,,,,,,,,,,,,,,,,,,,,,56.572569800002384,None,1,1,0.27120170000125654,56.572569800002384,None,56.881104180010155,None,None,56.881104180010155,None,,1,001,2020_Nov_25_1013,searchDisc3,2020.2.4,59.98908198949247,
images/exp2b_trial_19_colour1_distractors31_l.png,l,1,,,,,0,9,9,307,,,,,,,,,,,,,,,,,,,,,,,,,,,,,,,,56.91988729999866,None,2,0,0.3091905999899609,56.91988729999866,None,57.26536448000407,None,None,57.26536448000407,None,,1,001,2020_Nov_25_1013,searchDisc3,2020.2.4,59.98908198949247,
images/exp1b_trial_66_colour1_distractors9_r.png,r,2,,,,,0,10,10,162,,,,,,,,,,,,,,,,,,,,,,,,,,,,,,,,57.309747400009655,None,1,0,0.2625119000003906,57.309747400009655,None,57.59683014000766,None,None,57.59683014000766,None,,1,001,2020_Nov_25_1013,searchDisc3,2020.2.4,59.98908198949247,
images/exp1a_trial_69_colour2_distractors1_r.png,r,2,,,,,0,11,11,69,,,,,,,,,,,,,,,,,,,,,,,,,,,,,,,,57.63761050000903,None,2,1,0.3187861000042176,57.63761050000903,None,57.98038604000758,None,None,57.98038604000758,None,,1,001,2020_Nov_25_1013,searchDisc3,2020.2.4,59.98908198949247,
images/exp2a_trial_4_colour1_distractors31_r.png,r,2,,,,,0,12,12,196,,,,,,,,,,,,,,,,,,,,,,,,,,,,,,,,58.02353060001042,None,1,0,0.23600010000518523,58.02353060001042,None,58.297434780007464,None,None,58.297434780007464,None,,1,001,2020_Nov_25_1013,searchDisc3,2020.2.4,59.98908198949247,
images/exp1b_trial_74_colour3_distractors1_r.png,r,2,,,,,0,13,13,170,,,,,,,,,,,,,,,,,,,,,,,,,,,,,,,,58.332242100004805,None,2,1,0.3273380000027828,58.332242100004805,None,58.69747688000207,None,None,58.69747688000207,None,,1,001,2020_Nov_25_1013,searchDisc3,2020.2.4,59.98908198949247,
images/exp1a_trial_50_colour1_distractors19_l.png,l,1,,,,,0,14,14,50,,,,,,,,,,,,,,,,,,,,,,,,,,,,,,,,58.73724630000652,None,1,1,0.25031799999123905,58.73724630000652,None,59.03082668000134,None,None,59.03082668000134,None,,1,001,2020_Nov_25_1013,searchDisc3,2020.2.4,59.98908198949247,
images/exp2a_trial_5_colour2_distractors1_r.png,r,2,,,,,0,15,15,197,,,,,,,,,,,,,,,,,,,,,,,,,,,,,,,,59.06761730001017,None,2,1,0.2488862999889534,59.06761730001017,None,59.36405818000203,None,None,59.36405818000203,None,,1,001,2020_Nov_25_1013,searchDisc3,2020.2.4,59.98908198949247,
images/exp2c_trial_41_colour2_distractors31_r.png,r,2,,,,,0,16,16,425,,,,,,,,,,,,,,,,,,,,,,,,,,,,,,,,59.39876670000376,None,1,0,0.2377078999998048,59.39876670000376,None,59.680671280005484,None,None,59.680671280005484,None,,1,001,2020_Nov_25_1013,searchDisc3,2020.2.4,59.98908198949247,
images/exp1b_trial_21_colour2_distractors4_l.png,l,1,,,,,0,17,17,117,,,,,,,,,,,,,,,,,,,,,,,,,,,,,,,,59.70896650000941,None,2,0,0.26279179999255575,59.70896650000941,None,60.01364898000902,None,None,60.01364898000902,None,,1,001,2020_Nov_25_1013,searchDisc3,2020.2.4,59.98908198949247,
images/exp1b_trial_94_colour0_distractors0_r.png,r,2,,,,,0,18,18,190,,,,,,,,,,,,,,,,,,,,,,,,,,,,,,,,60.05068280000705,None,1,0,0.26481190000777133,60.05068280000705,None,60.3637560800009,None,None,60.3637560800009,None,,1,001,2020_Nov_25_1013,searchDisc3,2020.2.4,59.98908198949247,
images/exp2b_trial_90_colour3_distractors4_l.png,l,1,,,,,0,19,19,378,,,,,,,,,,,,,,,,,,,,,,,,,,,,,,,,60.401628899999196,None,1,1,0.25007670000195503,60.401628899999196,None,60.69745658000757,None,None,60.69745658000757,None,,1,001,2020_Nov_25_1013,searchDisc3,2020.2.4,59.98908198949247,
images/exp1b_trial_92_colour3_distractors19_l.png,l,1,,,,,0,20,20,188,,,,,,,,,,,,,,,,,,,,,,,,,,,,,,,,60.73502590000862,None,2,0,0.22934610000811517,60.73502590000862,None,61.01376148000709,None,None,61.01376148000709,None,,1,001,2020_Nov_25_1013,searchDisc3,2020.2.4,59.98908198949247,
images/exp2c_trial_83_colour1_distractors31_l.png,l,1,,,,,0,21,21,467,,,,,,,,,,,,,,,,,,,,,,,,,,,,,,,,61.05035590000625,None,2,0,0.24190409999573603,61.05035590000625,None,61.32989638000727,None,None,61.32989638000727,None,,1,001,2020_Nov_25_1013,searchDisc3,2020.2.4,59.98908198949247,
images/exp2c_trial_39_colour2_distractors9_r.png,r,2,,,,,0,22,22,423,,,,,,,,,,,,,,,,,,,,,,,,,,,,,,,,61.35987400000158,None,1,0,0.2529299000016181,61.35987400000158,None,61.64693998000003,None,None,61.64693998000003,None,,1,001,2020_Nov_25_1013,searchDisc3,2020.2.4,59.98908198949247,
images/exp2b_trial_13_colour3_distractors19_r.png,r,2,,,,,0,23,23,301,,,,,,,,,,,,,,,,,,,,,,,,,,,,,,,,61.67428220000875,None,1,0,0.2337726000114344,61.67428220000875,None,61.947015380009546,None,None,61.947015380009546,None,,1,001,2020_Nov_25_1013,searchDisc3,2020.2.4,59.98908198949247,
images/exp2a_trial_64_colour1_distractors1_r.png,r,2,,,,,0,24,24,256,,,,,,,,,,,,,,,,,,,,,,,,,,,,,,,,61.98694640000758,None,2,1,0.16950509999878705,61.98694640000758,None,62.19684218000039,None,None,62.19684218000039,None,,1,001,2020_Nov_25_1013,searchDisc3,2020.2.4,59.98908198949247,
images/exp2a_trial_27_colour3_distractors9_l.png,l,1,,,,,0,25,25,219,,,,,,,,,,,,,,,,,,,,,,,,,,,,,,,,62.232291799999075,None,2,0,0.235415599992848,62.232291799999075,None,62.51348748000164,None,None,62.51348748000164,None,,1,001,2020_Nov_25_1013,searchDisc3,2020.2.4,59.98908198949247,
images/exp1b_trial_29_colour3_distractors31_l.png,l,1,,,,,0,26,26,125,,,,,,,,,,,,,,,,,,,,,,,,,,,,,,,,62.55062120000366,None,1,1,0.2218840999994427,62.55062120000366,None,62.81351508001099,None,None,62.81351508001099,None,,1,001,2020_Nov_25_1013,searchDisc3,2020.2.4,59.98908198949247,
images/exp1b_trial_34_colour1_distractors9_r.png,r,2,,,,,0,27,27,130,,,,,,,,,,,,,,,,,,,,,,,,,,,,,,,,62.84725289999915,None,1,0,0.17322370001056697,62.84725289999915,None,63.06390388000291,None,None,63.06390388000291,None,,1,001,2020_Nov_25_1013,searchDisc3,2020.2.4,59.98908198949247,
images/exp1a_trial_22_colour2_distractors9_l.png,l,1,,,,,0,28,28,22,,,,,,,,,,,,,,,,,,,,,,,,,,,,,,,,63.10578080000414,None,1,1,0.2025504000048386,63.10578080000414,None,63.34669028000208,None,None,63.34669028000208,None,,1,001,2020_Nov_25_1013,searchDisc3,2020.2.4,59.98908198949247,
images/exp2a_trial_29_colour3_distractors31_l.png,l,1,,,,,0,29,29,221,,,,,,,,,,,,,,,,,,,,,,,,,,,,,,,,63.39083720000053,None,2,0,0.1413821000023745,63.39083720000053,None,63.58026398001239,None,None,63.58026398001239,None,,1,001,2020_Nov_25_1013,searchDisc3,2020.2.4,59.98908198949247,
images/exp2c_trial_85_colour2_distractors4_l.png,l,1,,,,,0,30,30,469,,,,,,,,,,,,,,,,,,,,,,,,,,,,,,,,63.61808729999757,None,2,0,0.17836359998909757,63.61808729999757,None,63.829964080013454,None,None,63.829964080013454,None,,1,001,2020_Nov_25_1013,searchDisc3,2020.2.4,59.98908198949247,
images/exp1a_trial_87_colour2_distractors19_l.png,l,1,,,,,0,31,31,87,,,,,,,,,,,,,,,,,,,,,,,,,,,,,,,,63.86969050001062,None,2,0,0.2069179000100121,63.86969050001062,None,64.11379708000749,None,None,64.11379708000749,None,,1,001,2020_Nov_25_1013,searchDisc3,2020.2.4,59.98908198949247,
images/exp2a_trial_57_colour3_distractors1_l.png,l,1,,,,,0,32,32,249,,,,,,,,,,,,,,,,,,,,,,,,,,,,,,,,64.147461200002,None,2,0,0.17693210000288673,64.147461200002,None,64.36375288000562,None,None,64.36375288000562,None,,1,001,2020_Nov_25_1013,searchDisc3,2020.2.4,59.98908198949247,
images/exp2c_trial_22_colour2_distractors9_l.png,l,1,,,,,0,33,33,406,,,,,,,,,,,,,,,,,,,,,,,,,,,,,,,,64.40131719999772,None,1,1,0.17111450000084005,64.40131719999772,None,64.61372998000587,None,None,64.61372998000587,None,,1,001,2020_Nov_25_1013,searchDisc3,2020.2.4,59.98908198949247,
images/exp2c_trial_3_colour1_distractors19_r.png,r,2,,,,,0,34,34,387,,,,,,,,,,,,,,,,,,,,,,,,,,,,,,,,64.65348860000086,None,1,0,0.12617730000056326,64.65348860000086,None,64.81349488000268,None,None,64.81349488000268,None,,1,001,2020_Nov_25_1013,searchDisc3,2020.2.4,59.98908198949247,
images/exp2a_trial_67_colour1_distractors19_r.png,r,2,,,,,0,35,35,259,,,,,,,,,,,,,,,,,,,,,,,,,,,,,,,,64.85594470000069,None,1,0,0.3634986000106437,64.85594470000069,None,65.24589903999876,None,None,65.24589903999876,None,,1,001,2020_Nov_25_1013,searchDisc3,2020.2.4,59.98908198949247,
images/exp1b_trial_2_colour1_distractors9_r.png,r,2,,,,,0,36,36,98,,,,,,,,,,,,,,,,,,,,,,,,,,,,,,,,65.28714890000992,None,1,0,0.1804132999968715,65.28714890000992,None,65.51362008000723,None,None,65.51362008000723,None,,1,001,2020_Nov_25_1013,searchDisc3,2020.2.4,59.98908198949247,
images/exp1a_trial_92_colour3_distractors19_l.png,l,1,,,,,0,37,37,92,,,,,,,,,,,,,,,,,,,,,,,,,,,,,,,,65.54364450000867,None,1,1,0.19637569999031257,65.54364450000867,None,65.78015298000827,None,None,65.78015298000827,None,,1,001,2020_Nov_25_1013,searchDisc3,2020.2.4,59.98908198949247,
images/exp2b_trial_17_colour1_distractors9_l.png,l,1,,,,,0,38,38,305,,,,,,,,,,,,,,,,,,,,,,,,,,,,,,,,65.82742060000601,None,1,1,0.273171499997261,65.82742060000601,None,66.12911994000896,None,None,66.12911994000896,None,,1,001,2020_Nov_25_1013,searchDisc3,2020.2.4,59.98908198949247,
images/exp2c_trial_81_colour1_distractors9_l.png,l,1,,,,,0,39,39,465,,,,,,,,,,,,,,,,,,,,,,,,,,,,,,,,66.16945460000716,None,2,0,0.1868209999956889,66.16945460000716,None,66.3969129800127,None,None,66.3969129800127,None,,1,001,2020_Nov_25_1013,searchDisc3,2020.2.4,59.98908198949247,
images/exp2a_trial_9_colour2_distractors31_r.png,r,2,,,,,0,40,40,201,,,,,,,,,,,,,,,,,,,,,,,,,,,,,,,,66.44247290000203,None,2,1,0.12110779999056831,66.44247290000203,None,66.61325418000632,None,None,66.61325418000632,None,,1,001,2020_Nov_25_1013,searchDisc3,2020.2.4,59.98908198949247,
images/exp1a_trial_6_colour2_distractors4_r.png,r,2,,,,,0,41,41,6,,,,,,,,,,,,,,,,,,,,,,,,,,,,,,,,66.64780150000297,None,2,1,0.13951610001095105,66.64780150000297,None,66.81241184000973,None,None,66.81241184000973,None,,1,001,2020_Nov_25_1013,searchDisc3,2020.2.4,59.98908198949247,
images/exp1b_trial_35_colour1_distractors19_r.png,r,2,,,,,0,42,42,131,,,,,,,,,,,,,,,,,,,,,,,,,,,,,,,,66.85494109999854,None,2,1,0.11672370000451338,66.85494109999854,None,67.01330278000677,None,None,67.01330278000677,None,,1,001,2020_Nov_25_1013,searchDisc3,2020.2.4,59.98908198949247,
images/exp2a_trial_55_colour2_distractors19_l.png,l,1,,,,,0,43,43,247,,,,,,,,,,,,,,,,,,,,,,,,,,,,,,,,67.05815500000608,None,2,0,0.16138560000399593,67.05815500000608,None,67.24617784001165,None,None,67.24617784001165,None,,1,001,2020_Nov_25_1013,searchDisc3,2020.2.4,59.98908198949247,
images/exp2c_trial_49_colour1_distractors9_l.png,l,1,,,,,0,44,44,433,,,,,,,,,,,,,,,,,,,,,,,,,,,,,,,,67.28776469999866,None,2,0,0.09258340000815224,67.28776469999866,None,67.42988438000901,None,None,67.42988438000901,None,,1,001,2020_Nov_25_1013,searchDisc3,2020.2.4,59.98908198949247,
images/exp2b_trial_82_colour1_distractors19_l.png,l,1,,,,,0,45,45,370,,,,,,,,,,,,,,,,,,,,,,,,,,,,,,,,67.46749400001136,None,2,0,0.17691799999738578,67.46749400001136,None,67.67955768000974,None,None,67.67955768000974,None,,1,001,2020_Nov_25_1013,searchDisc3,2020.2.4,59.98908198949247,
images/exp1b_trial_63_colour0_distractors0_l.png,l,1,,,,,0,46,46,159,,,,,,,,,,,,,,,,,,,,,,,,,,,,,,,,67.7154634000035,None,2,0,0.08904130000155419,67.7154634000035,None,67.84650077999976,None,None,67.84650077999976,None,,1,001,2020_Nov_25_1013,searchDisc3,2020.2.4,59.98908198949247,
images/exp2c_trial_79_colour1_distractors1_l.png,l,1,,,,,0,47,47,463,,,,,,,,,,,,,,,,,,,,,,,,,,,,,,,,67.88621039999998,None,2,0,0.14983670000219718,67.88621039999998,None,68.07997638000523,None,None,68.07997638000523,None,,1,001,2020_Nov_25_1013,searchDisc3,2020.2.4,59.98908198949247,
images/exp2c_trial_35_colour1_distractors19_r.png,r,2,,,,,0,48,48,419,,,,,,,,,,,,,,,,,,,,,,,,,,,,,,,,68.11768429999938,None,2,1,0.11772350000683218,68.11768429999938,None,68.26237674000149,None,None,68.26237674000149,None,,1,001,2020_Nov_25_1013,searchDisc3,2020.2.4,59.98908198949247,
images/exp1a_trial_47_colour1_distractors1_l.png,l,1,,,,,0,49,49,47,,,,,,,,,,,,,,,,,,,,,,,,,,,,,,,,68.30372200001148,None,2,0,0.14019160000316333,68.30372200001148,None,68.48004858001076,None,None,68.48004858001076,None,,1,001,2020_Nov_25_1013,searchDisc3,2020.2.4,59.98908198949247,
images/exp2c_trial_43_colour3_distractors4_r.png,r,2,,,,,0,50,50,427,,,,,,,,,,,,,,,,,,,,,,,,,,,,,,,,68.5174260000058,None,2,1,0.1670423000032315,68.5174260000058,None,68.72976548000878,None,None,68.72976548000878,None,,1,001,2020_Nov_25_1013,searchDisc3,2020.2.4,59.98908198949247,
images/exp1b_trial_36_colour1_distractors31_r.png,r,2,,,,,0,51,51,132,,,,,,,,,,,,,,,,,,,,,,,,,,,,,,,,68.76944030000595,None,2,1,0.1629832000035094,68.76944030000595,None,68.96204844000167,None,None,68.96204844000167,None,,1,001,2020_Nov_25_1013,searchDisc3,2020.2.4,59.98908198949247,
images/exp2c_trial_14_colour3_distractors31_r.png,r,2,,,,,0,52,52,398,,,,,,,,,,,,,,,,,,,,,,,,,,,,,,,,69.01086210001085,None,2,1,0.15276199999789242,69.01086210001085,None,69.21257058000191,None,None,69.21257058000191,None,,1,001,2020_Nov_25_1013,searchDisc3,2020.2.4,59.98908198949247,
images/exp2a_trial_21_colour2_distractors4_l.png,l,1,,,,,0,53,53,213,,,,,,,,,,,,,,,,,,,,,,,,,,,,,,,,69.25255540000217,None,2,0,0.18287059999420308,69.25255540000217,None,69.47933568001025,None,None,69.47933568001025,None,,1,001,2020_Nov_25_1013,searchDisc3,2020.2.4,59.98908198949247,
images/exp2c_trial_5_colour2_distractors1_r.png,r,2,,,,,0,54,54,389,,,,,,,,,,,,,,,,,,,,,,,,,,,,,,,,69.51805020000029,None,2,1,0.19059729999571573,69.51805020000029,None,69.7459321800008,None,None,69.7459321800008,None,,1,001,2020_Nov_25_1013,searchDisc3,2020.2.4,59.98908198949247,
images/exp1a_trial_42_colour3_distractors1_r.png,r,2,,,,,0,55,55,42,,,,,,,,,,,,,,,,,,,,,,,,,,,,,,,,69.78308819999802,None,2,1,0.15653029999521095,69.78308819999802,None,69.97970458001072,None,None,69.97970458001072,None,,1,001,2020_Nov_25_1013,searchDisc3,2020.2.4,59.98908198949247,
images/exp2c_trial_4_colour1_distractors31_r.png,r,2,,,,,0,56,56,388,,,,,,,,,,,,,,,,,,,,,,,,,,,,,,,,70.0191543999972,None,2,1,0.18464700000185985,70.0191543999972,None,70.228527140012,None,None,70.228527140012,None,,1,001,2020_Nov_25_1013,searchDisc3,2020.2.4,59.98908198949247,
images/exp1b_trial_49_colour1_distractors9_l.png,l,1,,,,,0,57,57,145,,,,,,,,,,,,,,,,,,,,,,,,,,,,,,,,70.27125910000177,None,2,0,0.15679770000861026,70.27125910000177,None,70.46307438001094,None,None,70.46307438001094,None,,1,001,2020_Nov_25_1013,searchDisc3,2020.2.4,59.98908198949247,
images/exp2c_trial_60_colour3_distractors19_l.png,l,1,,,,,0,58,58,444,,,,,,,,,,,,,,,,,,,,,,,,,,,,,,,,70.5034500000038,None,2,0,0.16504160000476986,70.5034500000038,None,70.71255928000318,None,None,70.71255928000318,None,,1,001,2020_Nov_25_1013,searchDisc3,2020.2.4,59.98908198949247,
images/exp2b_trial_8_colour2_distractors19_r.png,r,2,,,,,0,59,59,296,,,,,,,,,,,,,,,,,,,,,,,,,,,,,,,,70.74955160000536,None,2,1,0.17417810000188183,70.74955160000536,None,70.99433010000212,None,space,70.99433010000212,None,7.555205700002261,1,001,2020_Nov_25_1013,searchDisc3,2020.2.4,59.98908198949247,
images/exp2c_trial_1_colour1_distractors4_r.png,r,2,,,,,0,60,60,385,,,,,,,,,,,,,,,,,,,,,,,,,,,,,,,,78.61863880000601,None,2,1,0.8749189000081969,78.61863880000601,None,79.51107614000793,None,None,79.51107614000793,None,,1,001,2020_Nov_25_1013,searchDisc3,2020.2.4,59.98908198949247,
images/exp2b_trial_55_colour2_distractors19_l.png,l,1,,,,,0,61,61,343,,,,,,,,,,,,,,,,,,,,,,,,,,,,,,,,79.5525292000093,None,2,0,0.21913639998820145,79.5525292000093,None,79.8114706799999,None,None,79.8114706799999,None,,1,001,2020_Nov_25_1013,searchDisc3,2020.2.4,59.98908198949247,
images/exp1b_trial_60_colour3_distractors19_l.png,l,1,,,,,0,62,62,156,,,,,,,,,,,,,,,,,,,,,,,,,,,,,,,,79.84497730000294,None,2,0,0.16747280000708997,79.84497730000294,None,80.04530168000491,None,None,80.04530168000491,None,,1,001,2020_Nov_25_1013,searchDisc3,2020.2.4,59.98908198949247,
images/exp1a_trial_44_colour3_distractors9_r.png,r,2,,,,,0,63,63,44,,,,,,,,,,,,,,,,,,,,,,,,,,,,,,,,80.0831038000033,None,2,1,0.15347999999357853,80.0831038000033,None,80.2608750400046,None,None,80.2608750400046,None,,1,001,2020_Nov_25_1013,searchDisc3,2020.2.4,59.98908198949247,
images/exp2b_trial_23_colour2_distractors19_l.png,l,1,,,,,0,64,64,311,,,,,,,,,,,,,,,,,,,,,,,,,,,,,,,,80.30049980001058,None,2,0,0.1519185000070138,80.30049980001058,None,80.49494598000018,None,None,80.49494598000018,None,,1,001,2020_Nov_25_1013,searchDisc3,2020.2.4,59.98908198949247,
images/exp2a_trial_58_colour3_distractors4_l.png,l,1,,,,,0,65,65,250,,,,,,,,,,,,,,,,,,,,,,,,,,,,,,,,80.54287230000773,None,2,0,0.10951579999527894,80.54287230000773,None,80.6947501800052,None,None,80.6947501800052,None,,1,001,2020_Nov_25_1013,searchDisc3,2020.2.4,59.98908198949247,
images/exp2a_trial_51_colour1_distractors31_l.png,l,1,,,,,0,66,66,243,,,,,,,,,,,,,,,,,,,,,,,,,,,,,,,,80.73509970000305,None,2,0,0.13350809999974445,80.73509970000305,None,80.9114162800135,None,None,80.9114162800135,None,,1,001,2020_Nov_25_1013,searchDisc3,2020.2.4,59.98908198949247,
images/exp2a_trial_0_colour1_distractors1_r.png,r,2,,,,,0,67,67,192,,,,,,,,,,,,,,,,,,,,,,,,,,,,,,,,80.94773100000748,None,2,1,0.09607909999613184,80.94773100000748,None,81.07789838000025,None,None,81.07789838000025,None,,1,001,2020_Nov_25_1013,searchDisc3,2020.2.4,59.98908198949247,
images/exp2c_trial_15_colour1_distractors1_l.png,l,1,,,,,0,68,68,399,,,,,,,,,,,,,,,,,,,,,,,,,,,,,,,,81.11165700000129,None,2,0,0.18053590001363773,81.11165700000129,None,81.32906968001333,None,None,81.32906968001333,None,,1,001,2020_Nov_25_1013,searchDisc3,2020.2.4,59.98908198949247,
images/exp2c_trial_45_colour3_distractors19_r.png,r,2,,,,,0,69,69,429,,,,,,,,,,,,,,,,,,,,,,,,,,,,,,,,81.36669439999969,None,2,1,0.1338263000070583,81.36669439999969,None,81.54494998000445,None,None,81.54494998000445,None,,1,001,2020_Nov_25_1013,searchDisc3,2020.2.4,59.98908198949247,
images/exp2b_trial_40_colour2_distractors19_r.png,r,2,,,,,0,70,70,328,,,,,,,,,,,,,,,,,,,,,,,,,,,,,,,,81.58281370000623,None,2,1,0.11668799999461044,81.58281370000623,None,81.74466028000751,None,None,81.74466028000751,None,,1,001,2020_Nov_25_1013,searchDisc3,2020.2.4,59.98908198949247,
images/exp2b_trial_64_colour1_distractors1_r.png,r,2,,,,,0,71,71,352,,,,,,,,,,,,,,,,,,,,,,,,,,,,,,,,81.77267320000101,None,2,1,0.13481830000819173,81.77267320000101,None,81.94468598001112,None,None,81.94468598001112,None,,1,001,2020_Nov_25_1013,searchDisc3,2020.2.4,59.98908198949247,
images/exp1b_trial_3_colour1_distractors19_r.png,r,2,,,,,0,72,72,99,,,,,,,,,,,,,,,,,,,,,,,,,,,,,,,,81.98235310000018,None,2,1,0.1181596999958856,81.98235310000018,None,82.14435348000842,None,None,82.14435348000842,None,,1,001,2020_Nov_25_1013,searchDisc3,2020.2.4,59.98908198949247,
images/exp2b_trial_85_colour2_distractors4_l.png,l,1,,,,,0,73,73,373,,,,,,,,,,,,,,,,,,,,,,,,,,,,,,,,82.18120940000517,None,2,0,0.18325719999847934,82.18120940000517,None,82.41150058000056,None,None,82.41150058000056,None,,1,001,2020_Nov_25_1013,searchDisc3,2020.2.4,59.98908198949247,
images/exp2b_trial_44_colour3_distractors9_r.png,r,2,,,,,0,74,74,332,,,,,,,,,,,,,,,,,,,,,,,,,,,,,,,,82.44960950000677,None,2,1,0.09085530000447761,82.44960950000677,None,82.57761938000039,None,None,82.57761938000039,None,,1,001,2020_Nov_25_1013,searchDisc3,2020.2.4,59.98908198949247,
images/exp2c_trial_34_colour1_distractors9_r.png,r,2,,,,,0,75,75,418,,,,,,,,,,,,,,,,,,,,,,,,,,,,,,,,82.61496099999931,None,2,1,0.19643080000241753,82.61496099999931,None,82.86117977999965,None,None,82.86117977999965,None,,1,001,2020_Nov_25_1013,searchDisc3,2020.2.4,59.98908198949247,
images/exp1b_trial_77_colour3_distractors19_r.png,r,2,,,,,0,76,76,173,,,,,,,,,,,,,,,,,,,,,,,,,,,,,,,,82.89918550000584,None,2,1,0.16112550000252668,82.89918550000584,None,83.09440968001144,None,None,83.09440968001144,None,,1,001,2020_Nov_25_1013,searchDisc3,2020.2.4,59.98908198949247,
images/exp2b_trial_86_colour2_distractors9_l.png,l,1,,,,,0,77,77,374,,,,,,,,,,,,,,,,,,,,,,,,,,,,,,,,83.13161090000358,None,2,0,0.14486489999399055,83.13161090000358,None,83.31098288001084,None,None,83.31098288001084,None,,1,001,2020_Nov_25_1013,searchDisc3,2020.2.4,59.98908198949247,
images/exp1a_trial_70_colour2_distractors4_r.png,r,2,,,,,0,78,78,70,,,,,,,,,,,,,,,,,,,,,,,,,,,,,,,,83.34722619999957,None,2,1,0.15327769999566954,83.34722619999957,None,83.54486778000427,None,None,83.54486778000427,None,,1,001,2020_Nov_25_1013,searchDisc3,2020.2.4,59.98908198949247,
images/exp2a_trial_14_colour3_distractors31_r.png,r,2,,,,,0,79,79,206,,,,,,,,,,,,,,,,,,,,,,,,,,,,,,,,83.58973560000595,None,2,1,0.12590160001127515,83.58973560000595,None,83.76100508000235,None,None,83.76100508000235,None,,1,001,2020_Nov_25_1013,searchDisc3,2020.2.4,59.98908198949247,
images/exp2c_trial_48_colour1_distractors4_l.png,l,1,,,,,0,80,80,432,,,,,,,,,,,,,,,,,,,,,,,,,,,,,,,,83.80030100001022,None,2,0,0.11501480000151787,83.80030100001022,None,83.9609800800128,None,None,83.9609800800128,None,,1,001,2020_Nov_25_1013,searchDisc3,2020.2.4,59.98908198949247,
images/exp1b_trial_17_colour1_distractors9_l.png,l,1,,,,,0,81,81,113,,,,,,,,,,,,,,,,,,,,,,,,,,,,,,,,84.01046570000472,None,2,0,0.13025760000164155,84.01046570000472,None,84.1776241799991,None,None,84.1776241799991,None,,1,001,2020_Nov_25_1013,searchDisc3,2020.2.4,59.98908198949247,
images/exp2b_trial_39_colour2_distractors9_r.png,r,2,,,,,0,82,82,327,,,,,,,,,,,,,,,,,,,,,,,,,,,,,,,,84.21856730000582,None,2,1,0.13805219999630935,84.21856730000582,None,84.39418538000899,None,None,84.39418538000899,None,,1,001,2020_Nov_25_1013,searchDisc3,2020.2.4,59.98908198949247,
images/exp1a_trial_33_colour1_distractors4_r.png,r,2,,,,,0,83,83,33,,,,,,,,,,,,,,,,,,,,,,,,,,,,,,,,84.43108090000169,None,2,1,0.22131290000106674,84.43108090000169,None,84.69418898001021,None,None,84.69418898001021,None,,1,001,2020_Nov_25_1013,searchDisc3,2020.2.4,59.98908198949247,
images/exp2a_trial_48_colour1_distractors4_l.png,l,1,,,,,0,84,84,240,,,,,,,,,,,,,,,,,,,,,,,,,,,,,,,,84.72311099999934,None,2,0,0.07317509999847971,84.72311099999934,None,84.84415448000362,None,None,84.84415448000362,None,,1,001,2020_Nov_25_1013,searchDisc3,2020.2.4,59.98908198949247,
images/exp2b_trial_57_colour3_distractors1_l.png,l,1,,,,,0,85,85,345,,,,,,,,,,,,,,,,,,,,,,,,,,,,,,,,84.88176290001138,None,2,0,0.1697647999972105,84.88176290001138,None,85.0942582800082,None,None,85.0942582800082,None,,1,001,2020_Nov_25_1013,searchDisc3,2020.2.4,59.98908198949247,
images/exp1b_trial_40_colour2_distractors19_r.png,r,2,,,,,0,86,86,136,,,,,,,,,,,,,,,,,,,,,,,,,,,,,,,,85.13231670000823,None,2,1,0.19999639999878127,85.13231670000823,None,85.37748358000243,None,None,85.37748358000243,None,,1,001,2020_Nov_25_1013,searchDisc3,2020.2.4,59.98908198949247,
images/exp1a_trial_14_colour3_distractors31_r.png,r,2,,,,,0,87,87,14,,,,,,,,,,,,,,,,,,,,,,,,,,,,,,,,85.4086163000029,None,2,1,0.09142519999295473,85.4086163000029,None,85.54400337999977,None,None,85.54400337999977,None,,1,001,2020_Nov_25_1013,searchDisc3,2020.2.4,59.98908198949247,
images/exp1b_trial_52_colour2_distractors1_l.png,l,1,,,,,0,88,88,148,,,,,,,,,,,,,,,,,,,,,,,,,,,,,,,,85.58181040000636,None,2,0,0.15768360000220127,85.58181040000636,None,85.76047974000684,None,None,85.76047974000684,None,,1,001,2020_Nov_25_1013,searchDisc3,2020.2.4,59.98908198949247,
images/exp1a_trial_36_colour1_distractors31_r.png,r,2,,,,,0,89,89,36,,,,,,,,,,,,,,,,,,,,,,,,,,,,,,,,85.80486460000975,None,2,1,0.1989356999984011,85.80486460000975,None,86.04460568000212,None,None,86.04460568000212,None,,1,001,2020_Nov_25_1013,searchDisc3,2020.2.4,59.98908198949247,
images/exp1a_trial_88_colour2_distractors31_l.png,l,1,,,,,0,90,90,88,,,,,,,,,,,,,,,,,,,,,,,,,,,,,,,,86.08351910000783,None,2,0,0.14402600000903476,86.08351910000783,None,86.2602762399998,None,None,86.2602762399998,None,,1,001,2020_Nov_25_1013,searchDisc3,2020.2.4,59.98908198949247,
images/exp1a_trial_28_colour3_distractors19_l.png,l,1,,,,,0,91,91,28,,,,,,,,,,,,,,,,,,,,,,,,,,,,,,,,86.30179720000888,None,2,0,0.15860830000019632,86.30179720000888,None,86.49421928001101,None,None,86.49421928001101,None,,1,001,2020_Nov_25_1013,searchDisc3,2020.2.4,59.98908198949247,
images/exp1b_trial_15_colour1_distractors1_l.png,l,1,,,,,0,92,92,111,,,,,,,,,,,,,,,,,,,,,,,,,,,,,,,,86.52922100000433,None,2,0,0.14709630000288598,86.52922100000433,None,86.71079788000787,None,None,86.71079788000787,None,,1,001,2020_Nov_25_1013,searchDisc3,2020.2.4,59.98908198949247,
images/exp2b_trial_68_colour1_distractors31_r.png,r,2,,,,,0,93,93,356,,,,,,,,,,,,,,,,,,,,,,,,,,,,,,,,86.74831320000521,None,2,1,0.1440287999866996,86.74831320000521,None,86.92722008000709,None,None,86.92722008000709,None,,1,001,2020_Nov_25_1013,searchDisc3,2020.2.4,59.98908198949247,
images/exp1b_trial_20_colour2_distractors1_l.png,l,1,,,,,0,94,94,116,,,,,,,,,,,,,,,,,,,,,,,,,,,,,,,,86.96427620000031,None,2,0,0.15983059999416582,86.96427620000031,None,87.16059008000883,None,None,87.16059008000883,None,,1,001,2020_Nov_25_1013,searchDisc3,2020.2.4,59.98908198949247,
images/exp2b_trial_32_colour1_distractors1_r.png,r,2,,,,,0,95,95,320,,,,,,,,,,,,,,,,,,,,,,,,,,,,,,,,87.1983801000024,None,2,1,0.18119479999586474,87.1983801000024,None,87.42724298000684,None,None,87.42724298000684,None,,1,001,2020_Nov_25_1013,searchDisc3,2020.2.4,59.98908198949247,
images/exp2a_trial_61_colour3_distractors31_l.png,l,1,,,,,0,96,96,253,,,,,,,,,,,,,,,,,,,,,,,,,,,,,,,,87.46057110000402,None,2,0,0.13585170000442304,87.46057110000402,None,87.64389747999957,None,None,87.64389747999957,None,,1,001,2020_Nov_25_1013,searchDisc3,2020.2.4,59.98908198949247,
images/exp2c_trial_26_colour3_distractors4_l.png,l,1,,,,,0,97,97,410,,,,,,,,,,,,,,,,,,,,,,,,,,,,,,,,87.6733768999984,None,2,0,0.17865190000156872,87.6733768999984,None,87.87694444000371,None,None,87.87694444000371,None,,1,001,2020_Nov_25_1013,searchDisc3,2020.2.4,59.98908198949247,
images/exp1b_trial_84_colour2_distractors1_l.png,l,1,,,,,0,98,98,180,,,,,,,,,,,,,,,,,,,,,,,,,,,,,,,,87.91578989999834,None,2,0,0.1837046000000555,87.91578989999834,None,88.14352568000612,None,None,88.14352568000612,None,,1,001,2020_Nov_25_1013,searchDisc3,2020.2.4,59.98908198949247,
images/exp1b_trial_85_colour2_distractors4_l.png,l,1,,,,,0,99,99,181,,,,,,,,,,,,,,,,,,,,,,,,,,,,,,,,88.16791760000342,None,2,0,0.47565759999270085,88.16791760000342,None,88.67726768000574,None,None,88.67726768000574,None,,1,001,2020_Nov_25_1013,searchDisc3,2020.2.4,59.98908198949247,
images/exp1a_trial_8_colour2_distractors19_r.png,r,2,,,,,0,100,100,8,,,,,,,,,,,,,,,,,,,,,,,,,,,,,,,,88.71689599999809,None,2,1,0.15067849999468308,88.71689599999809,None,88.91036728000034,None,None,88.91036728000034,None,,1,001,2020_Nov_25_1013,searchDisc3,2020.2.4,59.98908198949247,
images/exp2b_trial_29_colour3_distractors31_l.png,l,1,,,,,0,101,101,317,,,,,,,,,,,,,,,,,,,,,,,,,,,,,,,,88.9381895000115,None,2,0,0.18530810000083875,88.9381895000115,None,89.16056597999994,None,None,89.16056597999994,None,,1,001,2020_Nov_25_1013,searchDisc3,2020.2.4,59.98908198949247,
images/exp2b_trial_67_colour1_distractors19_r.png,r,2,,,,,0,102,102,355,,,,,,,,,,,,,,,,,,,,,,,,,,,,,,,,89.19741220001015,None,2,1,0.15010329999495298,89.19741220001015,None,89.39367588000022,None,None,89.39367588000022,None,,1,001,2020_Nov_25_1013,searchDisc3,2020.2.4,59.98908198949247,
images/exp2c_trial_16_colour1_distractors4_l.png,l,1,,,,,0,103,103,400,,,,,,,,,,,,,,,,,,,,,,,,,,,,,,,,89.43230860000767,None,2,0,0.21184669999638572,89.43230860000767,None,89.67705568000673,None,None,89.67705568000673,None,,1,001,2020_Nov_25_1013,searchDisc3,2020.2.4,59.98908198949247,
images/exp1b_trial_59_colour3_distractors9_l.png,l,1,,,,,0,104,104,155,,,,,,,,,,,,,,,,,,,,,,,,,,,,,,,,89.70317000000796,None,2,0,0.39645410000230186,89.70317000000796,None,90.14357418001163,None,None,90.14357418001163,None,,1,001,2020_Nov_25_1013,searchDisc3,2020.2.4,59.98908198949247,
images/exp1b_trial_56_colour2_distractors31_l.png,l,1,,,,,0,105,105,152,,,,,,,,,,,,,,,,,,,,,,,,,,,,,,,,90.18228269999963,None,2,0,0.16527870000572875,90.18228269999963,None,90.39347758000366,None,None,90.39347758000366,None,,1,001,2020_Nov_25_1013,searchDisc3,2020.2.4,59.98908198949247,
images/exp2c_trial_76_colour3_distractors9_r.png,r,2,,,,,0,106,106,460,,,,,,,,,,,,,,,,,,,,,,,,,,,,,,,,90.43011739999929,None,2,1,0.14230969999334775,90.43011739999929,None,90.61032458000699,None,None,90.61032458000699,None,,1,001,2020_Nov_25_1013,searchDisc3,2020.2.4,59.98908198949247,
images/exp2c_trial_94_colour0_distractors0_r.png,r,2,,,,,0,107,107,478,,,,,,,,,,,,,,,,,,,,,,,,,,,,,,,,90.64674620000005,None,2,1,0.18874649998906534,90.64674620000005,None,90.8769246800104,None,None,90.8769246800104,None,,1,001,2020_Nov_25_1013,searchDisc3,2020.2.4,59.98908198949247,
images/exp1b_trial_55_colour2_distractors19_l.png,l,1,,,,,0,108,108,151,,,,,,,,,,,,,,,,,,,,,,,,,,,,,,,,90.91034200000286,None,2,0,0.182286600000225,90.91034200000286,None,91.12684218000794,None,None,91.12684218000794,None,,1,001,2020_Nov_25_1013,searchDisc3,2020.2.4,59.98908198949247,
images/exp2a_trial_26_colour3_distractors4_l.png,l,1,,,,,0,109,109,218,,,,,,,,,,,,,,,,,,,,,,,,,,,,,,,,91.16557290000492,None,2,0,0.1901309999957448,91.16557290000492,None,91.39353498000418,None,None,91.39353498000418,None,,1,001,2020_Nov_25_1013,searchDisc3,2020.2.4,59.98908198949247,
images/exp2a_trial_22_colour2_distractors9_l.png,l,1,,,,,0,110,110,214,,,,,,,,,,,,,,,,,,,,,,,,,,,,,,,,91.43399420000787,None,2,0,0.21003230000496842,91.43399420000787,None,91.6772042800032,None,None,91.6772042800032,None,,1,001,2020_Nov_25_1013,searchDisc3,2020.2.4,59.98908198949247,
images/exp2c_trial_0_colour1_distractors1_r.png,r,2,,,,,0,111,111,384,,,,,,,,,,,,,,,,,,,,,,,,,,,,,,,,91.71489480001037,None,2,1,0.16936240000359248,91.71489480001037,None,91.90937364000419,None,None,91.90937364000419,None,,1,001,2020_Nov_25_1013,searchDisc3,2020.2.4,59.98908198949247,
images/exp1b_trial_4_colour1_distractors31_r.png,r,2,,,,,0,112,112,100,,,,,,,,,,,,,,,,,,,,,,,,,,,,,,,,91.95316660001117,None,2,1,0.15503769999486394,91.95316660001117,None,92.12630094000778,None,None,92.12630094000778,None,,1,001,2020_Nov_25_1013,searchDisc3,2020.2.4,59.98908198949247,
images/exp2c_trial_18_colour1_distractors19_l.png,l,1,,,,,0,113,113,402,,,,,,,,,,,,,,,,,,,,,,,,,,,,,,,,92.16767830000026,None,2,0,0.1799551000003703,92.16767830000026,None,92.37646344000822,None,None,92.37646344000822,None,,1,001,2020_Nov_25_1013,searchDisc3,2020.2.4,59.98908198949247,
images/exp1b_trial_64_colour1_distractors1_r.png,r,2,,,,,0,114,114,160,,,,,,,,,,,,,,,,,,,,,,,,,,,,,,,,92.41809600000852,None,2,1,0.16952060000039637,92.41809600000852,None,92.62666128001291,None,None,92.62666128001291,None,,1,001,2020_Nov_25_1013,searchDisc3,2020.2.4,59.98908198949247,
images/exp2b_trial_54_colour2_distractors9_l.png,l,1,,,,,0,115,115,342,,,,,,,,,,,,,,,,,,,,,,,,,,,,,,,,92.66214450000552,None,2,0,0.13401349999185186,92.66214450000552,None,92.82611093999876,None,None,92.82611093999876,None,,1,001,2020_Nov_25_1013,searchDisc3,2020.2.4,59.98908198949247,
images/exp2a_trial_71_colour2_distractors9_r.png,r,2,,,,,0,116,116,263,,,,,,,,,,,,,,,,,,,,,,,,,,,,,,,,92.8705353999976,None,2,1,0.18190590001177043,92.8705353999976,None,93.0934978800098,None,None,93.0934978800098,None,,1,001,2020_Nov_25_1013,searchDisc3,2020.2.4,59.98908198949247,
images/exp2a_trial_11_colour3_distractors4_r.png,r,2,,,,,0,117,117,203,,,,,,,,,,,,,,,,,,,,,,,,,,,,,,,,93.12376450000738,None,2,1,0.16000000000349246,93.12376450000738,None,93.32642918000346,None,None,93.32642918000346,None,,1,001,2020_Nov_25_1013,searchDisc3,2020.2.4,59.98908198949247,
images/exp2a_trial_19_colour1_distractors31_l.png,l,1,,,,,0,118,118,211,,,,,,,,,,,,,,,,,,,,,,,,,,,,,,,,93.36629900000116,None,2,0,0.17310640000505373,93.36629900000116,None,93.5765347800072,None,None,93.5765347800072,None,,1,001,2020_Nov_25_1013,searchDisc3,2020.2.4,59.98908198949247,
images/exp1a_trial_86_colour2_distractors9_l.png,l,1,,,,,0,119,119,86,,,,,,,,,,,,,,,,,,,,,,,,,,,,,,,,93.61358640000981,None,2,0,0.15801959999953397,93.61358640000981,None,93.81440560000192,None,space,93.81440560000192,None,4.431222400002298,1,001,2020_Nov_25_1013,searchDisc3,2020.2.4,59.98908198949247,
images/exp2a_trial_79_colour1_distractors1_l.png,l,1,,,,,0,120,120,271,,,,,,,,,,,,,,,,,,,,,,,,,,,,,,,,98.30952070000058,None,1,1,0.9441128000034951,98.30952070000058,None,99.27545694000727,None,None,99.27545694000727,None,,1,001,2020_Nov_25_1013,searchDisc3,2020.2.4,59.98908198949247,
images/exp1b_trial_86_colour2_distractors9_l.png,l,1,,,,,0,121,121,182,,,,,,,,,,,,,,,,,,,,,,,,,,,,,,,,99.31895190000068,None,1,1,0.18849200000113342,99.31895190000068,None,99.54237638000922,None,None,99.54237638000922,None,,1,001,2020_Nov_25_1013,searchDisc3,2020.2.4,59.98908198949247,
images/exp2b_trial_56_colour2_distractors31_l.png,l,1,,,,,0,122,122,344,,,,,,,,,,,,,,,,,,,,,,,,,,,,,,,,99.5801427999977,None,1,1,0.17523720000463072,99.5801427999977,None,99.79254878001228,None,None,99.79254878001228,None,,1,001,2020_Nov_25_1013,searchDisc3,2020.2.4,59.98908198949247,
images/exp1a_trial_56_colour2_distractors31_l.png,l,1,,,,,0,123,123,56,,,,,,,,,,,,,,,,,,,,,,,,,,,,,,,,99.83230210001057,None,1,1,0.13132359999872278,99.83230210001057,None,100.00931968000367,None,None,100.00931968000367,None,,1,001,2020_Nov_25_1013,searchDisc3,2020.2.4,59.98908198949247,
images/exp2c_trial_86_colour2_distractors9_l.png,l,1,,,,,0,124,124,470,,,,,,,,,,,,,,,,,,,,,,,,,,,,,,,,100.04607979999855,None,1,1,0.14963479999278206,100.04607979999855,None,100.24245288000674,None,None,100.24245288000674,None,,1,001,2020_Nov_25_1013,searchDisc3,2020.2.4,59.98908198949247,
images/exp1b_trial_14_colour3_distractors31_r.png,r,2,,,,,0,125,125,110,,,,,,,,,,,,,,,,,,,,,,,,,,,,,,,,100.27799740000046,None,1,0,0.12609110001358204,100.27799740000046,None,100.44232328000652,None,None,100.44232328000652,None,,1,001,2020_Nov_25_1013,searchDisc3,2020.2.4,59.98908198949247,
images/exp2a_trial_43_colour3_distractors4_r.png,r,2,,,,,0,126,126,235,,,,,,,,,,,,,,,,,,,,,,,,,,,,,,,,100.48044220000156,None,1,0,0.13931759999832138,100.48044220000156,None,100.65900968000932,None,None,100.65900968000932,None,,1,001,2020_Nov_25_1013,searchDisc3,2020.2.4,59.98908198949247,
images/exp2b_trial_93_colour3_distractors31_l.png,l,1,,,,,0,127,127,381,,,,,,,,,,,,,,,,,,,,,,,,,,,,,,,,100.69550030000391,None,1,1,0.14916139999695588,100.69550030000391,None,100.89232988001021,None,None,100.89232988001021,None,,1,001,2020_Nov_25_1013,searchDisc3,2020.2.4,59.98908198949247,
images/exp1b_trial_69_colour2_distractors1_r.png,r,2,,,,,0,128,128,165,,,,,,,,,,,,,,,,,,,,,,,,,,,,,,,,100.92858510000224,None,1,0,0.12270409999473486,100.92858510000224,None,101.09209418000245,None,None,101.09209418000245,None,,1,001,2020_Nov_25_1013,searchDisc3,2020.2.4,59.98908198949247,
images/exp2a_trial_49_colour1_distractors9_l.png,l,1,,,,,0,129,129,241,,,,,,,,,,,,,,,,,,,,,,,,,,,,,,,,101.12795330000517,None,1,1,0.13219400000525638,101.12795330000517,None,101.3088506800006,None,None,101.3088506800006,None,,1,001,2020_Nov_25_1013,searchDisc3,2020.2.4,59.98908198949247,
images/exp2b_trial_21_colour2_distractors4_l.png,l,1,,,,,0,130,130,309,,,,,,,,,,,,,,,,,,,,,,,,,,,,,,,,101.34698670000944,None,1,1,0.12932069999806117,101.34698670000944,None,101.52565228000748,None,None,101.52565228000748,None,,1,001,2020_Nov_25_1013,searchDisc3,2020.2.4,59.98908198949247,
images/exp1a_trial_83_colour1_distractors31_l.png,l,1,,,,,0,131,131,83,,,,,,,,,,,,,,,,,,,,,,,,,,,,,,,,101.56874940000125,None,1,1,0.11451880000822712,101.56874940000125,None,101.72582808000442,None,None,101.72582808000442,None,,1,001,2020_Nov_25_1013,searchDisc3,2020.2.4,59.98908198949247,
images/exp1a_trial_91_colour3_distractors9_l.png,l,1,,,,,0,132,132,91,,,,,,,,,,,,,,,,,,,,,,,,,,,,,,,,101.76177500000631,None,1,1,0.1386330000095768,101.76177500000631,None,101.94225458000727,None,None,101.94225458000727,None,,1,001,2020_Nov_25_1013,searchDisc3,2020.2.4,59.98908198949247,
images/exp1a_trial_23_colour2_distractors19_l.png,l,1,,,,,0,133,133,23,,,,,,,,,,,,,,,,,,,,,,,,,,,,,,,,101.97946699999738,None,1,1,0.13615540000319015,101.97946699999738,None,102.15887798001057,None,None,102.15887798001057,None,,1,001,2020_Nov_25_1013,searchDisc3,2020.2.4,59.98908198949247,
images/exp2c_trial_82_colour1_distractors19_l.png,l,1,,,,,0,134,134,466,,,,,,,,,,,,,,,,,,,,,,,,,,,,,,,,102.19727580000472,None,1,1,0.15020399999048095,102.19727580000472,None,102.39200698001076,None,None,102.39200698001076,None,,1,001,2020_Nov_25_1013,searchDisc3,2020.2.4,59.98908198949247,
images/exp2c_trial_92_colour3_distractors19_l.png,l,1,,,,,0,135,135,476,,,,,,,,,,,,,,,,,,,,,,,,,,,,,,,,102.43082660000073,None,1,1,0.1008222999953432,102.43082660000073,None,102.57549018001299,None,None,102.57549018001299,None,,1,001,2020_Nov_25_1013,searchDisc3,2020.2.4,59.98908198949247,
images/exp2c_trial_62_colour0_distractors0_r.png,r,2,,,,,0,136,136,446,,,,,,,,,,,,,,,,,,,,,,,,,,,,,,,,102.6131890000106,None,1,0,0.1352842999913264,102.6131890000106,None,102.79209268000267,None,None,102.79209268000267,None,,1,001,2020_Nov_25_1013,searchDisc3,2020.2.4,59.98908198949247,
images/exp2c_trial_46_colour3_distractors31_r.png,r,2,,,,,0,137,137,430,,,,,,,,,,,,,,,,,,,,,,,,,,,,,,,,102.829178400003,None,1,0,0.12758450000546873,102.829178400003,None,102.99344088000652,None,None,102.99344088000652,None,,1,001,2020_Nov_25_1013,searchDisc3,2020.2.4,59.98908198949247,
images/exp2a_trial_69_colour2_distractors1_r.png,r,2,,,,,0,138,138,261,,,,,,,,,,,,,,,,,,,,,,,,,,,,,,,,103.03337330000068,None,1,0,0.07444559999566991,103.03337330000068,None,103.14192788000508,None,None,103.14192788000508,None,,1,001,2020_Nov_25_1013,searchDisc3,2020.2.4,59.98908198949247,
