ImageFile,targ_side,correctAnswer,trials_2.thisRepN,trials_2.thisTrialN,trials_2.thisN,trials_2.thisIndex,trials.thisRepN,trials.thisTrialN,trials.thisN,trials.thisIndex,text_2.started,text_2.stopped,key_resp_5.keys,key_resp_5.rt,key_resp_5.started,key_resp_5.stopped,image_2.started,image_2.stopped,key_resp_6.keys,key_resp_6.rt,key_resp_6.started,key_resp_6.stopped,text_3.started,text_3.stopped,image.started,image.stopped,key_resp_4.keys,key_resp_4.corr,key_resp_4.rt,key_resp_4.started,key_resp_4.stopped,text.started,text.stopped,key_resp_3.keys,key_resp_3.rt,key_resp_3.started,key_resp_3.stopped,dispStimuli.started,dispStimuli.stopped,key_resp_2.keys,key_resp_2.corr,key_resp_2.rt,key_resp_2.started,key_resp_2.stopped,breakMessage.started,breakMessage.stopped,key_resp.keys,key_resp.started,key_resp.stopped,participant,session,date,expName,psychopyVersion,frameRate,
,,,,,,,,,,,9.736633668479044,None,space,0.5639017528155819,14.708358293224592,None,,,,,,,,,,,,,,,,,,,,,,,,,,,,,,,,,,1,001,2020_Oct_13_1411,searchDisc,2020.2.2,59.89982883716722,
,,,,,,,,,,,,,,,,,15.292167784122285,None,space,3.1557464026263915,16.27652562421281,None,,,,,,,,,,,,,,,,,,,,,,,,,,,,1,001,2020_Oct_13_1411,searchDisc,2020.2.2,59.89982883716722,
images/exp1a_trial_11_colour3_distractors4_r.png,r,2,0,0,0,11,,,,,,,,,,,,,,,,,15.292167784122285,None,19.579647592210677,None,1,0,1.9325398654327728,19.579647592210677,None,,,,,,,,,,,,,,,,,,,1,001,2020_Oct_13_1411,searchDisc,2020.2.2,59.89982883716722,
images/exp1a_trial_2_colour1_distractors9_r.png,r,2,0,1,1,2,,,,,,,,,,,,,,,,,,,21.614975091360975,None,2,1,0.2733976402087137,21.614975091360975,None,,,,,,,,,,,,,,,,,,,1,001,2020_Oct_13_1411,searchDisc,2020.2.2,59.89982883716722,
images/exp1a_trial_4_colour1_distractors31_r.png,r,2,0,2,2,4,,,,,,,,,,,,,,,,,,,21.998692806693725,None,1,0,0.18574528896715492,21.998692806693725,None,,,,,,,,,,,,,,,,,,,1,001,2020_Oct_13_1411,searchDisc,2020.2.2,59.89982883716722,
images/exp1a_trial_6_colour2_distractors4_r.png,r,2,0,3,3,6,,,,,,,,,,,,,,,,,,,22.298993029166013,None,2,1,0.18917023146059364,22.298993029166013,None,,,,,,,,,,,,,,,,,,,1,001,2020_Oct_13_1411,searchDisc,2020.2.2,59.89982883716722,
images/exp1a_trial_19_colour1_distractors31_l.png,l,1,0,4,4,19,,,,,,,,,,,,,,,,,,,22.599296131636947,None,1,1,0.1448990981443785,22.599296131636947,None,,,,,,,,,,,,,,,,,,,1,001,2020_Oct_13_1411,searchDisc,2020.2.2,59.89982883716722,
images/exp1a_trial_0_colour1_distractors1_r.png,r,2,0,5,5,0,,,,,,,,,,,,,,,,,,,22.84950125060277,None,2,1,0.1907436634064652,22.84950125060277,None,,,,,,,,,,,,,,,,,,,1,001,2020_Oct_13_1411,searchDisc,2020.2.2,59.89982883716722,
images/exp1a_trial_14_colour3_distractors31_r.png,r,2,0,6,6,14,,,,,,,,,,,,,,,,,,,23.14979667303851,None,1,0,0.17043080739676952,23.14979667303851,None,,,,,,,,,,,,,,,,,,,1,001,2020_Oct_13_1411,searchDisc,2020.2.2,59.89982883716722,
images/exp1a_trial_17_colour1_distractors9_l.png,l,1,0,7,7,17,,,,,,,,,,,,,,,,,,,23.43343618081417,None,2,0,0.182708824519068,23.43343618081417,None,,,,,,,,,,,,,,,,,,,1,001,2020_Oct_13_1411,searchDisc,2020.2.2,59.89982883716722,
images/exp1a_trial_10_colour3_distractors1_r.png,r,2,0,8,8,10,,,,,,,,,,,,,,,,,,,23.717052648717072,None,1,0,0.1231808093143627,23.717052648717072,None,,,,,,,,,,,,,,,,,,,1,001,2020_Oct_13_1411,searchDisc,2020.2.2,59.89982883716722,
images/exp1a_trial_1_colour1_distractors4_r.png,r,2,0,9,9,1,,,,,,,,,,,,,,,,,,,23.95062105281977,None,2,1,0.19374236807925627,23.95062105281977,None,,,,,,,,,,,,,,,,,,,1,001,2020_Oct_13_1411,searchDisc,2020.2.2,59.89982883716722,
images/exp1a_trial_3_colour1_distractors19_r.png,r,2,0,10,10,3,,,,,,,,,,,,,,,,,,,24.250920315331314,None,1,0,0.10938407992944121,24.250920315331314,None,,,,,,,,,,,,,,,,,,,1,001,2020_Oct_13_1411,searchDisc,2020.2.2,59.89982883716722,
images/exp1a_trial_8_colour2_distractors19_r.png,r,2,0,11,11,8,,,,,,,,,,,,,,,,,,,24.467804644838907,None,1,0,0.17248935683164746,24.467804644838907,None,,,,,,,,,,,,,,,,,,,1,001,2020_Oct_13_1411,searchDisc,2020.2.2,59.89982883716722,
images/exp1a_trial_16_colour1_distractors4_l.png,l,1,0,12,12,16,,,,,,,,,,,,,,,,,,,24.751404472859576,None,2,0,0.33681619551498443,24.751404472859576,None,,,,,,,,,,,,,,,,,,,1,001,2020_Oct_13_1411,searchDisc,2020.2.2,59.89982883716722,
images/exp1a_trial_15_colour1_distractors1_l.png,l,1,0,13,13,15,,,,,,,,,,,,,,,,,,,25.202052725537214,None,1,1,0.10252971504814923,25.202052725537214,None,,,,,,,,,,,,,,,,,,,1,001,2020_Oct_13_1411,searchDisc,2020.2.2,59.89982883716722,
images/exp1a_trial_7_colour2_distractors9_r.png,r,2,0,14,14,7,,,,,,,,,,,,,,,,,,,25.418904415215366,None,2,1,0.22936170565662906,25.418904415215366,None,,,,,,,,,,,,,,,,,,,1,001,2020_Oct_13_1411,searchDisc,2020.2.2,59.89982883716722,
images/exp1a_trial_13_colour3_distractors19_r.png,r,2,0,15,15,13,,,,,,,,,,,,,,,,,,,25.752386227832176,None,1,0,0.15187986235832796,25.752386227832176,None,,,,,,,,,,,,,,,,,,,1,001,2020_Oct_13_1411,searchDisc,2020.2.2,59.89982883716722,
images/exp1a_trial_5_colour2_distractors1_r.png,r,2,0,16,16,5,,,,,,,,,,,,,,,,,,,26.019423260586336,None,1,0,0.13274204032495618,26.019423260586336,None,,,,,,,,,,,,,,,,,,,1,001,2020_Oct_13_1411,searchDisc,2020.2.2,59.89982883716722,
images/exp1a_trial_12_colour3_distractors9_r.png,r,2,0,17,17,12,,,,,,,,,,,,,,,,,,,26.253035504487343,None,2,1,0.01924246147973463,26.253035504487343,None,,,,,,,,,,,,,,,,,,,1,001,2020_Oct_13_1411,searchDisc,2020.2.2,59.89982883716722,
images/exp1a_trial_18_colour1_distractors19_l.png,l,1,0,18,18,18,,,,,,,,,,,,,,,,,,,26.38632026204141,None,1,1,0.1978949867771007,26.38632026204141,None,,,,,,,,,,,,,,,,,,,1,001,2020_Oct_13_1411,searchDisc,2020.2.2,59.89982883716722,
images/exp1a_trial_9_colour2_distractors31_r.png,r,2,0,19,19,9,,,,,,,,,,,,,,,,,,,26.686616004561074,None,2,1,0.12162977724801749,26.686616004561074,None,,,,,,,,,,,,,,,,,,,1,001,2020_Oct_13_1411,searchDisc,2020.2.2,59.89982883716722,
,,,,,,,,,,,,,,,,,,,,,,,,,,,,,,,,26.903521454019938,None,space,0.12441056303214282,31.89205303270137,None,,,,,,,,,,,,,1,001,2020_Oct_13_1411,searchDisc,2020.2.2,59.89982883716722,
images/exp1a_trial_54_colour2_distractors9_l.png,l,1,,,,,0,0,0,54,,,,,,,,,,,,,,,,,,,,,,,,,,,,32.14208183257142,None,1,1,0.9780977121554315,32.14208183257142,None,None,None,None,None,None,1,001,2020_Oct_13_1411,searchDisc,2020.2.2,59.89982883716722,
images/exp1a_trial_55_colour2_distractors19_l.png,l,1,,,,,0,1,1,55,,,,,,,,,,,,,,,,,,,,,,,,,,,,33.24314531509299,None,2,0,0.1888511930592358,33.24314531509299,None,None,None,None,None,None,1,001,2020_Oct_13_1411,searchDisc,2020.2.2,59.89982883716722,
images/exp1a_trial_9_colour2_distractors31_r.png,r,2,,,,,0,2,2,9,,,,,,,,,,,,,,,,,,,,,,,,,,,,33.560107852274086,None,2,1,0.08808274904731661,33.560107852274086,None,None,None,None,None,None,1,001,2020_Oct_13_1411,searchDisc,2020.2.2,59.89982883716722,
images/exp1a_trial_41_colour2_distractors31_r.png,r,2,,,,,0,3,3,41,,,,,,,,,,,,,,,,,,,,,,,,,,,,33.776943222095724,None,1,0,0.11928034928860143,33.776943222095724,None,None,None,None,None,None,1,001,2020_Oct_13_1411,searchDisc,2020.2.2,59.89982883716722,
images/exp1a_trial_85_colour2_distractors4_l.png,l,1,,,,,0,4,4,85,,,,,,,,,,,,,,,,,,,,,,,,,,,,34.04391433519777,None,2,0,0.16435691848164424,34.04391433519777,None,None,None,None,None,None,1,001,2020_Oct_13_1411,searchDisc,2020.2.2,59.89982883716722,
images/exp1a_trial_52_colour2_distractors1_l.png,l,1,,,,,0,5,5,52,,,,,,,,,,,,,,,,,,,,,,,,,,,,34.34420719766058,None,1,1,0.10441930533852428,34.34420719766058,None,None,None,None,None,None,1,001,2020_Oct_13_1411,searchDisc,2020.2.2,59.89982883716722,
images/exp1a_trial_4_colour1_distractors31_r.png,r,2,,,,,0,6,6,4,,,,,,,,,,,,,,,,,,,,,,,,,,,,34.57777432183502,None,2,1,0.15829262958141044,34.57777432183502,None,None,None,None,None,None,1,001,2020_Oct_13_1411,searchDisc,2020.2.2,59.89982883716722,
images/exp1a_trial_0_colour1_distractors1_r.png,r,2,,,,,0,7,7,0,,,,,,,,,,,,,,,,,,,,,,,,,,,,34.82822807948105,None,1,0,0.18008611793629825,34.82822807948105,None,None,None,None,None,None,1,001,2020_Oct_13_1411,searchDisc,2020.2.2,59.89982883716722,
images/exp1a_trial_49_colour1_distractors9_l.png,l,1,,,,,0,8,8,49,,,,,,,,,,,,,,,,,,,,,,,,,,,,35.12827454326907,None,2,0,0.1599819008843042,35.12827454326907,None,None,None,None,None,None,1,001,2020_Oct_13_1411,searchDisc,2020.2.2,59.89982883716722,
images/exp1a_trial_43_colour3_distractors4_r.png,r,2,,,,,0,9,9,43,,,,,,,,,,,,,,,,,,,,,,,,,,,,35.411970050714444,None,1,0,0.11624836479313672,35.411970050714444,None,None,None,None,None,None,1,001,2020_Oct_13_1411,searchDisc,2020.2.2,59.89982883716722,
images/exp1a_trial_58_colour3_distractors4_l.png,l,1,,,,,0,10,10,58,,,,,,,,,,,,,,,,,,,,,,,,,,,,35.645623894408345,None,2,0,0.2105272421031259,35.645623894408345,None,None,None,None,None,None,1,001,2020_Oct_13_1411,searchDisc,2020.2.2,59.89982883716722,
