ImageFile,targ_side,correctAnswer,trials_2.thisRepN,trials_2.thisTrialN,trials_2.thisN,trials_2.thisIndex,trials.thisRepN,trials.thisTrialN,trials.thisN,trials.thisIndex,text_2.started,text_2.stopped,key_resp_5.keys,key_resp_5.rt,key_resp_5.started,key_resp_5.stopped,image_2.started,image_2.stopped,key_resp_6.keys,key_resp_6.rt,key_resp_6.started,key_resp_6.stopped,text_3.started,text_3.stopped,image_3.started,image_3.stopped,image.started,image.stopped,key_resp_4.keys,key_resp_4.corr,key_resp_4.rt,key_resp_4.started,key_resp_4.stopped,text_4.started,text_4.stopped,key_resp_7.keys,key_resp_7.started,key_resp_7.stopped,key_resp_7.rt,text.started,text.stopped,key_resp_3.keys,key_resp_3.rt,key_resp_3.started,key_resp_3.stopped,dispStimuli.started,dispStimuli.stopped,key_resp_2.keys,key_resp_2.corr,key_resp_2.rt,key_resp_2.started,key_resp_2.stopped,breakMessage.started,breakMessage.stopped,key_resp.keys,key_resp.started,key_resp.stopped,key_resp.rt,participant,session,date,expName,psychopyVersion,frameRate,
,,,,,,,,,,,8.865189170232043,None,space,1.130612131266389,9.816434859880246,None,,,,,,,,,,,,,,,,,,,,,,,,,,,,,,,,,,,,,,,,,,,2,001,2020_Oct_14_1512,searchDisc2,2020.2.2,59.8291861500113,
,,,,,,,,,,,,,,,,,10.983998481940944,None,space,2.107471449766308,11.95181848667562,None,,,,,,,,,,,,,,,,,,,,,,,,,,,,,,,,,,,,,2,001,2020_Oct_14_1512,searchDisc2,2020.2.2,59.8291861500113,
images/exp1a_trial_7_colour2_distractors9_r.png,r,2,0,0,0,7,,,,,,,,,,,,,,,,,10.983998481940944,None,10.983998481940944,None,14.220465751190204,None,2,1,0.6385912903933786,14.220465751190204,None,None,None,None,None,None,,,,,,,,,,,,,,,,,,,,,2,001,2020_Oct_14_1512,searchDisc2,2020.2.2,59.8291861500113,
images/exp1a_trial_18_colour1_distractors19_l.png,l,1,0,1,1,18,,,,,,,,,,,,,,,,,,,,,14.987962301645894,None,1,1,0.5431021793046966,14.987962301645894,None,None,None,None,None,None,,,,,,,,,,,,,,,,,,,,,2,001,2020_Oct_14_1512,searchDisc2,2020.2.2,59.8291861500113,
images/exp1a_trial_9_colour2_distractors31_r.png,r,2,0,2,2,9,,,,,,,,,,,,,,,,,,,,,15.671863120049238,None,2,1,0.6674762624897994,15.671863120049238,None,None,None,None,None,None,,,,,,,,,,,,,,,,,,,,,2,001,2020_Oct_14_1512,searchDisc2,2020.2.2,59.8291861500113,
images/exp1a_trial_5_colour2_distractors1_r.png,r,2,0,3,3,5,,,,,,,,,,,,,,,,,,,,,16.455945185560267,None,2,1,0.5471399186644703,16.455945185560267,None,None,None,None,None,None,,,,,,,,,,,,,,,,,,,,,2,001,2020_Oct_14_1512,searchDisc2,2020.2.2,59.8291861500113,
images/exp1a_trial_16_colour1_distractors4_l.png,l,1,0,4,4,16,,,,,,,,,,,,,,,,,,,,,17.14001304312842,None,1,1,0.511150662903674,17.14001304312842,None,None,None,None,None,None,,,,,,,,,,,,,,,,,,,,,2,001,2020_Oct_14_1512,searchDisc2,2020.2.2,59.8291861500113,
images/exp1a_trial_4_colour1_distractors31_r.png,r,2,0,5,5,4,,,,,,,,,,,,,,,,,,,,,17.77395059738774,None,2,1,0.5171375122154132,17.77395059738774,None,None,None,None,None,None,,,,,,,,,,,,,,,,,,,,,2,001,2020_Oct_14_1512,searchDisc2,2020.2.2,59.8291861500113,
images/exp1a_trial_19_colour1_distractors31_l.png,l,1,0,6,6,19,,,,,,,,,,,,,,,,,,,,,18.408094870566856,None,2,0,0.49889888567849994,18.408094870566856,None,None,None,None,None,None,,,,,,,,,,,,,,,,,,,,,2,001,2020_Oct_14_1512,searchDisc2,2020.2.2,59.8291861500113,
images/exp1a_trial_12_colour3_distractors9_r.png,r,2,0,7,7,12,,,,,,,,,,,,,,,,,,,,,19.025206910970155,None,1,0,0.4817837732261978,19.025206910970155,None,None,None,None,None,None,,,,,,,,,,,,,,,,,,,,,2,001,2020_Oct_14_1512,searchDisc2,2020.2.2,59.8291861500113,
images/exp1a_trial_10_colour3_distractors1_r.png,r,2,0,8,8,10,,,,,,,,,,,,,,,,,,,,,19.625799995905254,None,2,1,0.33706419420195743,19.625799995905254,None,None,None,None,None,None,,,,,,,,,,,,,,,,,,,,,2,001,2020_Oct_14_1512,searchDisc2,2020.2.2,59.8291861500113,
images/exp1a_trial_3_colour1_distractors19_r.png,r,2,0,9,9,3,,,,,,,,,,,,,,,,,,,,,20.092951844097115,None,1,0,0.2941588138928637,20.092951844097115,None,None,None,None,None,None,,,,,,,,,,,,,,,,,,,,,2,001,2020_Oct_14_1512,searchDisc2,2020.2.2,59.8291861500113,
images/exp1a_trial_2_colour1_distractors9_r.png,r,2,0,10,10,2,,,,,,,,,,,,,,,,,,,,,20.51016762794461,None,2,1,0.2530963041353971,20.51016762794461,None,None,None,None,None,None,,,,,,,,,,,,,,,,,,,,,2,001,2020_Oct_14_1512,searchDisc2,2020.2.2,59.8291861500113,
images/exp1a_trial_17_colour1_distractors9_l.png,l,1,0,11,11,17,,,,,,,,,,,,,,,,,,,,,20.893725344154518,None,1,1,0.1973797894315794,20.893725344154518,None,None,None,None,None,None,,,,,,,,,,,,,,,,,,,,,2,001,2020_Oct_14_1512,searchDisc2,2020.2.2,59.8291861500113,
images/exp1a_trial_11_colour3_distractors4_r.png,r,2,0,12,12,11,,,,,,,,,,,,,,,,,,,,,21.210654281429015,None,2,1,0.2483187285833992,21.210654281429015,None,None,None,None,None,None,,,,,,,,,,,,,,,,,,,,,2,001,2020_Oct_14_1512,searchDisc2,2020.2.2,59.8291861500113,
images/exp1a_trial_1_colour1_distractors4_r.png,r,2,0,13,13,1,,,,,,,,,,,,,,,,,,,,,21.577733682002872,None,1,0,0.2253418862237595,21.577733682002872,None,None,None,None,None,None,,,,,,,,,,,,,,,,,,,,,2,001,2020_Oct_14_1512,searchDisc2,2020.2.2,59.8291861500113,
images/exp1a_trial_13_colour3_distractors19_r.png,r,2,0,14,14,13,,,,,,,,,,,,,,,,,,,,,21.92806724831462,None,1,0,0.17122120334533975,21.92806724831462,None,None,None,None,None,None,,,,,,,,,,,,,,,,,,,,,2,001,2020_Oct_14_1512,searchDisc2,2020.2.2,59.8291861500113,
images/exp1a_trial_6_colour2_distractors4_r.png,r,2,0,15,15,6,,,,,,,,,,,,,,,,,,,,,22.228301551076584,None,1,0,0.25465789617737755,22.228301551076584,None,None,None,None,None,None,,,,,,,,,,,,,,,,,,,,,2,001,2020_Oct_14_1512,searchDisc2,2020.2.2,59.8291861500113,
images/exp1a_trial_15_colour1_distractors1_l.png,l,1,0,16,16,15,,,,,,,,,,,,,,,,,,,,,22.612168065679725,None,2,0,0.20676086138701066,22.612168065679725,None,None,None,None,None,None,,,,,,,,,,,,,,,,,,,,,2,001,2020_Oct_14_1512,searchDisc2,2020.2.2,59.8291861500113,
images/exp1a_trial_8_colour2_distractors19_r.png,r,2,0,17,17,8,,,,,,,,,,,,,,,,,,,,,22.94574363779975,None,1,0,0.2493529633502476,22.94574363779975,None,None,None,None,None,None,,,,,,,,,,,,,,,,,,,,,2,001,2020_Oct_14_1512,searchDisc2,2020.2.2,59.8291861500113,
images/exp1a_trial_0_colour1_distractors1_r.png,r,2,0,18,18,0,,,,,,,,,,,,,,,,,,,,,23.31270015897462,None,2,1,0.21048500231700018,23.31270015897462,None,None,None,None,None,None,,,,,,,,,,,,,,,,,,,,,2,001,2020_Oct_14_1512,searchDisc2,2020.2.2,59.8291861500113,
images/exp1a_trial_14_colour3_distractors31_r.png,r,2,0,19,19,14,,,,,,,,,,,,,,,,,,,,,23.646404050407,None,1,0,0.24480162659892812,23.646404050407,None,23.94693627167726,None,space,23.94693627167726,None,0.632080283772666,,,,,,,,,,,,,,,,,,,,2,001,2020_Oct_14_1512,searchDisc2,2020.2.2,59.8291861500113,
,,,,,,,,,,,,,,,,,,,,,,,,,,,,,,,,,,,,,,,,24.680795234336983,None,space,0.8538890680647455,29.66925321344752,None,,,,,,,,,,,,,,2,001,2020_Oct_14_1512,searchDisc2,2020.2.2,59.8291861500113,
images/exp1a_trial_63_colour0_distractors0_l.png,l,1,,,,,0,0,0,63,,,,,,,,,,,,,,,,,,,,,,,,,,,,,,,,,,,,30.686816003522836,None,1,1,0.7961053639301099,30.686816003522836,None,None,None,None,None,None,,2,001,2020_Oct_14_1512,searchDisc2,2020.2.2,59.8291861500113,
images/exp1b_trial_7_colour2_distractors9_r.png,r,2,,,,,0,1,1,103,,,,,,,,,,,,,,,,,,,,,,,,,,,,,,,,,,,,31.604275946097914,None,2,1,0.6227056117495522,31.604275946097914,None,None,None,None,None,None,,2,001,2020_Oct_14_1512,searchDisc2,2020.2.2,59.8291861500113,
images/exp1a_trial_45_colour3_distractors19_r.png,r,2,,,,,0,2,2,45,,,,,,,,,,,,,,,,,,,,,,,,,,,,,,,,,,,,32.35495402262313,None,2,1,0.6241497643641196,32.35495402262313,None,None,None,None,None,None,,2,001,2020_Oct_14_1512,searchDisc2,2020.2.2,59.8291861500113,
images/exp1b_trial_81_colour1_distractors9_l.png,l,1,,,,,0,3,3,177,,,,,,,,,,,,,,,,,,,,,,,,,,,,,,,,,,,,33.10571465874091,None,1,1,0.7213473467272706,33.10571465874091,None,None,None,None,None,None,,2,001,2020_Oct_14_1512,searchDisc2,2020.2.2,59.8291861500113,
images/exp2a_trial_90_colour3_distractors4_l.png,l,1,,,,,0,4,4,282,,,,,,,,,,,,,,,,,,,,,,,,,,,,,,,,,,,,33.95658358227229,None,1,1,0.8223884293693118,33.95658358227229,None,None,None,None,None,None,,2,001,2020_Oct_14_1512,searchDisc2,2020.2.2,59.8291861500113,
images/exp2c_trial_87_colour2_distractors19_l.png,l,1,,,,,0,5,5,471,,,,,,,,,,,,,,,,,,,,,,,,,,,,,,,,,,,,34.90760559303453,None,1,1,1.303911723953206,34.90760559303453,None,None,None,None,None,None,,2,001,2020_Oct_14_1512,searchDisc2,2020.2.2,59.8291861500113,
images/exp1a_trial_39_colour2_distractors9_r.png,r,2,,,,,0,6,6,39,,,,,,,,,,,,,,,,,,,,,,,,,,,,,,,,,,,,36.34224336768966,None,2,1,0.9488729017903097,36.34224336768966,None,None,None,None,None,None,,2,001,2020_Oct_14_1512,searchDisc2,2020.2.2,59.8291861500113,
images/exp2c_trial_45_colour3_distractors19_r.png,r,2,,,,,0,7,7,429,,,,,,,,,,,,,,,,,,,,,,,,,,,,,,,,,,,,37.44332893018145,None,2,1,0.7598345096339472,37.44332893018145,None,None,None,None,None,None,,2,001,2020_Oct_14_1512,searchDisc2,2020.2.2,59.8291861500113,
images/exp1b_trial_45_colour3_distractors19_r.png,r,2,,,,,0,8,8,141,,,,,,,,,,,,,,,,,,,,,,,,,,,,,,,,,,,,38.327590962755494,None,2,1,1.3396558609674685,38.327590962755494,None,None,None,None,None,None,,2,001,2020_Oct_14_1512,searchDisc2,2020.2.2,59.8291861500113,
images/exp2b_trial_13_colour3_distractors19_r.png,r,2,,,,,0,9,9,301,,,,,,,,,,,,,,,,,,,,,,,,,,,,,,,,,,,,39.79568712611217,None,2,1,0.6874102404690348,39.79568712611217,None,None,None,None,None,None,,2,001,2020_Oct_14_1512,searchDisc2,2020.2.2,59.8291861500113,
images/exp2a_trial_86_colour2_distractors9_l.png,l,1,,,,,0,10,10,278,,,,,,,,,,,,,,,,,,,,,,,,,,,,,,,,,,,,40.613225660286844,None,2,0,0.1579748711665161,40.613225660286844,None,None,None,None,None,None,,2,001,2020_Oct_14_1512,searchDisc2,2020.2.2,59.8291861500113,
images/exp1b_trial_84_colour2_distractors1_l.png,l,1,,,,,0,11,11,180,,,,,,,,,,,,,,,,,,,,,,,,,,,,,,,,,,,,40.896746128681116,None,2,0,0.07425369980046526,40.896746128681116,None,None,None,None,None,None,,2,001,2020_Oct_14_1512,searchDisc2,2020.2.2,59.8291861500113,
images/exp1a_trial_3_colour1_distractors19_r.png,r,2,,,,,0,12,12,3,,,,,,,,,,,,,,,,,,,,,,,,,,,,,,,,,,,,41.09692878375063,None,2,1,0.12209313490893692,41.09692878375063,None,None,None,None,None,None,,2,001,2020_Oct_14_1512,searchDisc2,2020.2.2,59.8291861500113,
images/exp2c_trial_27_colour3_distractors9_l.png,l,1,,,,,0,13,13,411,,,,,,,,,,,,,,,,,,,,,,,,,,,,,,,,,,,,41.34721550223185,None,2,0,0.0799112708773464,41.34721550223185,None,None,None,None,None,None,,2,001,2020_Oct_14_1512,searchDisc2,2020.2.2,59.8291861500113,
images/exp1a_trial_68_colour1_distractors31_r.png,r,2,,,,,0,14,14,68,,,,,,,,,,,,,,,,,,,,,,,,,,,,,,,,,,,,41.547424717165995,None,2,1,0.11168614815687761,41.547424717165995,None,None,None,None,None,None,,2,001,2020_Oct_14_1512,searchDisc2,2020.2.2,59.8291861500113,
images/exp1a_trial_67_colour1_distractors19_r.png,r,2,,,,,0,15,15,67,,,,,,,,,,,,,,,,,,,,,,,,,,,,,,,,,,,,41.78113648056751,None,2,1,0.0859774798154831,41.78113648056751,None,None,None,None,None,None,,2,001,2020_Oct_14_1512,searchDisc2,2020.2.2,59.8291861500113,
images/exp2b_trial_7_colour2_distractors9_r.png,r,2,,,,,0,16,16,295,,,,,,,,,,,,,,,,,,,,,,,,,,,,,,,,,,,,41.99802433012519,None,2,1,0.10912168130744249,41.99802433012519,None,None,None,None,None,None,,2,001,2020_Oct_14_1512,searchDisc2,2020.2.2,59.8291861500113,
images/exp1a_trial_94_colour0_distractors0_r.png,r,2,,,,,0,17,17,94,,,,,,,,,,,,,,,,,,,,,,,,,,,,,,,,,,,,42.23159209423466,None,2,1,0.09936909121461213,42.23159209423466,None,None,None,None,None,None,,2,001,2020_Oct_14_1512,searchDisc2,2020.2.2,59.8291861500113,
images/exp2c_trial_20_colour2_distractors1_l.png,l,1,,,,,0,18,18,404,,,,,,,,,,,,,,,,,,,,,,,,,,,,,,,,,,,,42.46501905907644,None,2,0,0.12217377446359023,42.46501905907644,None,None,None,None,None,None,,2,001,2020_Oct_14_1512,searchDisc2,2020.2.2,59.8291861500113,
images/exp2a_trial_15_colour1_distractors1_l.png,l,1,,,,,0,19,19,207,,,,,,,,,,,,,,,,,,,,,,,,,,,,,,,,,,,,42.71516657836037,None,2,0,0.11201798648107797,42.71516657836037,None,42.88223324296996,None,space,42.88223324296996,None,1.496792656427715,2,001,2020_Oct_14_1512,searchDisc2,2020.2.2,59.8291861500113,
images/exp2c_trial_50_colour1_distractors19_l.png,l,1,,,,,0,20,20,434,,,,,,,,,,,,,,,,,,,,,,,,,,,,,,,,,,,,44.48373000329593,None,1,1,0.5591888169874437,44.48373000329593,None,None,None,None,None,None,,2,001,2020_Oct_14_1512,searchDisc2,2020.2.2,59.8291861500113,
