ImageFile,targ_side,correctAnswer,trials.thisRepN,trials.thisTrialN,trials.thisN,trials.thisIndex,text.started,text.stopped,key_resp_3.keys,key_resp_3.rt,key_resp_3.started,key_resp_3.stopped,dispStimuli.started,dispStimuli.stopped,key_resp_2.keys,key_resp_2.corr,key_resp_2.rt,key_resp_2.started,key_resp_2.stopped,breakMessage.started,breakMessage.stopped,key_resp.keys,key_resp.rt,key_resp.started,key_resp.stopped,participant,session,date,expName,psychopyVersion,frameRate,
,,,,,,,8.358791122969706,None,space,7.813398395373952,13.33050358784385,None,,,,,,,,,,,,,,2,001,2020_Oct_13_1217,searchDisc,2020.2.2,59.865404088897265,
images/exp1a_trial_93_colour3_distractors31_l.png,l,1,0,0,0,93,,,,,,,21.28815404465422,None,1,1,1.2715653295745142,21.28815404465422,None,22.656157920486294,None,space,1.7278410734725185,22.656157920486294,None,2,001,2020_Oct_13_1217,searchDisc,2020.2.2,59.865404088897265,
images/exp1a_trial_81_colour1_distractors9_l.png,l,1,0,1,1,81,,,,,,,24.491240044881124,None,2,0,0.5245873940875754,24.491240044881124,None,None,None,None,,None,None,2,001,2020_Oct_13_1217,searchDisc,2020.2.2,59.865404088897265,
images/exp1a_trial_60_colour3_distractors19_l.png,l,1,0,2,2,60,,,,,,,25.141966953116935,None,1,1,0.36984898638911545,25.141966953116935,None,None,None,None,,None,None,2,001,2020_Oct_13_1217,searchDisc,2020.2.2,59.865404088897265,
images/exp1a_trial_87_colour2_distractors19_l.png,l,1,0,3,3,87,,,,,,,25.64240087091457,None,2,0,0.22964426421094686,25.64240087091457,None,None,None,None,,None,None,2,001,2020_Oct_13_1217,searchDisc,2020.2.2,59.865404088897265,
images/exp1a_trial_73_colour2_distractors31_r.png,r,2,0,4,4,73,,,,,,,25.992831716721412,None,1,0,0.29482089047087356,25.992831716721412,None,None,None,None,,None,None,2,001,2020_Oct_13_1217,searchDisc,2020.2.2,59.865404088897265,
images/exp1a_trial_68_colour1_distractors31_r.png,r,2,0,5,5,68,,,,,,,26.409858061524574,None,2,1,0.2858049366623163,26.409858061524574,None,None,None,None,,None,None,2,001,2020_Oct_13_1217,searchDisc,2020.2.2,59.865404088897265,
images/exp1a_trial_14_colour3_distractors31_r.png,r,2,0,6,6,14,,,,,,,26.826987445820123,None,1,0,0.2606546654715203,26.826987445820123,None,None,None,None,,None,None,2,001,2020_Oct_13_1217,searchDisc,2020.2.2,59.865404088897265,
images/exp1a_trial_89_colour3_distractors1_l.png,l,1,0,7,7,89,,,,,,,27.21061684162123,None,2,0,0.2691000622580759,27.21061684162123,None,None,None,None,,None,None,2,001,2020_Oct_13_1217,searchDisc,2020.2.2,59.865404088897265,
images/exp1a_trial_79_colour1_distractors1_l.png,l,1,0,8,8,79,,,,,,,27.627655986405443,None,1,1,0.2044405532651581,27.627655986405443,None,None,None,None,,None,None,2,001,2020_Oct_13_1217,searchDisc,2020.2.2,59.865404088897265,
images/exp1a_trial_76_colour3_distractors9_r.png,r,2,0,9,9,76,,,,,,,27.961300998111255,None,2,1,0.20647318282863125,27.961300998111255,None,None,None,None,,None,None,2,001,2020_Oct_13_1217,searchDisc,2020.2.2,59.865404088897265,
images/exp1a_trial_46_colour3_distractors31_r.png,r,2,0,10,10,46,,,,,,,28.295106009056326,None,1,0,0.22467212966876104,28.295106009056326,None,None,None,None,,None,None,2,001,2020_Oct_13_1217,searchDisc,2020.2.2,59.865404088897265,
images/exp1a_trial_29_colour3_distractors31_l.png,l,1,0,11,11,29,,,,,,,28.64530229603406,None,2,0,0.22640652081463486,28.64530229603406,None,None,None,None,,None,None,2,001,2020_Oct_13_1217,searchDisc,2020.2.2,59.865404088897265,
images/exp1a_trial_64_colour1_distractors1_r.png,r,2,0,12,12,64,,,,,,,28.9956694621942,None,1,0,0.18025059712817892,28.9956694621942,None,None,None,None,,None,None,2,001,2020_Oct_13_1217,searchDisc,2020.2.2,59.865404088897265,
images/exp1a_trial_7_colour2_distractors9_r.png,r,2,0,13,13,7,,,,,,,29.296154643699992,None,2,1,0.25584669003728777,29.296154643699992,None,None,None,None,,None,None,2,001,2020_Oct_13_1217,searchDisc,2020.2.2,59.865404088897265,
images/exp1a_trial_33_colour1_distractors4_r.png,r,2,0,14,14,33,,,,,,,29.679730599804316,None,1,0,0.20001241593854502,29.679730599804316,None,None,None,None,,None,None,2,001,2020_Oct_13_1217,searchDisc,2020.2.2,59.865404088897265,
images/exp1a_trial_35_colour1_distractors19_r.png,r,2,0,15,15,35,,,,,,,29.996661137090996,None,2,1,0.2350499965250492,29.996661137090996,None,None,None,None,,None,None,2,001,2020_Oct_13_1217,searchDisc,2020.2.2,59.865404088897265,
images/exp1a_trial_23_colour2_distractors19_l.png,l,1,0,16,16,23,,,,,,,30.347062543034554,None,1,1,0.23656166880391538,30.347062543034554,None,None,None,None,,None,None,2,001,2020_Oct_13_1217,searchDisc,2020.2.2,59.865404088897265,
images/exp1a_trial_54_colour2_distractors9_l.png,l,1,0,17,17,54,,,,,,,30.680716194736306,None,2,0,0.19091262255096808,30.680716194736306,None,None,None,None,,None,None,2,001,2020_Oct_13_1217,searchDisc,2020.2.2,59.865404088897265,
images/exp1a_trial_3_colour1_distractors19_r.png,r,2,0,18,18,3,,,,,,,30.99785985093331,None,1,0,0.23387272254331037,30.99785985093331,None,None,None,None,,None,None,2,001,2020_Oct_13_1217,searchDisc,2020.2.2,59.865404088897265,
images/exp1a_trial_39_colour2_distractors9_r.png,r,2,0,19,19,39,,,,,,,31.348017418175004,None,2,1,0.17989411897724494,31.348017418175004,None,31.581715101609007,None,space,0.8904789607622661,31.581715101609007,None,2,001,2020_Oct_13_1217,searchDisc,2020.2.2,59.865404088897265,
images/exp1a_trial_17_colour1_distractors9_l.png,l,1,0,20,20,17,,,,,,,32.59932845144067,None,1,1,0.33636179781751707,32.59932845144067,None,None,None,None,,None,None,2,001,2020_Oct_13_1217,searchDisc,2020.2.2,59.865404088897265,
images/exp1a_trial_5_colour2_distractors1_r.png,r,2,0,21,21,5,,,,,,,33.066549739276525,None,2,1,0.2533075030660257,33.066549739276525,None,None,None,None,,None,None,2,001,2020_Oct_13_1217,searchDisc,2020.2.2,59.865404088897265,
images/exp1a_trial_38_colour2_distractors4_r.png,r,2,0,22,22,38,,,,,,,33.450056895730086,None,1,0,0.20565686700865626,33.450056895730086,None,None,None,None,,None,None,2,001,2020_Oct_13_1217,searchDisc,2020.2.2,59.865404088897265,
images/exp1a_trial_75_colour3_distractors4_r.png,r,2,0,23,23,75,,,,,,,33.783733587304596,None,2,1,0.2241188525222242,33.783733587304596,None,None,None,None,,None,None,2,001,2020_Oct_13_1217,searchDisc,2020.2.2,59.865404088897265,
images/exp1a_trial_26_colour3_distractors4_l.png,l,1,0,24,24,26,,,,,,,34.13410715339705,None,1,1,0.22563308477401733,34.13410715339705,None,None,None,None,,None,None,2,001,2020_Oct_13_1217,searchDisc,2020.2.2,59.865404088897265,
images/exp1a_trial_50_colour1_distractors19_l.png,l,1,0,25,25,50,,,,,,,34.48454759910237,None,2,0,0.2112702782615088,34.48454759910237,None,None,None,None,,None,None,2,001,2020_Oct_13_1217,searchDisc,2020.2.2,59.865404088897265,
images/exp1a_trial_84_colour2_distractors1_l.png,l,1,0,26,26,84,,,,,,,34.81807581143221,None,1,1,0.22965386416763067,34.81807581143221,None,None,None,None,,None,None,2,001,2020_Oct_13_1217,searchDisc,2020.2.2,59.865404088897265,
images/exp1a_trial_66_colour1_distractors9_r.png,r,2,0,27,27,66,,,,,,,35.1685732168844,None,2,1,0.20711765956366435,35.1685732168844,None,None,None,None,,None,None,2,001,2020_Oct_13_1217,searchDisc,2020.2.2,59.865404088897265,
images/exp1a_trial_72_colour2_distractors19_r.png,r,2,0,28,28,72,,,,,,,35.5023193481029,None,1,0,0.209527887229342,35.5023193481029,None,None,None,None,,None,None,2,001,2020_Oct_13_1217,searchDisc,2020.2.2,59.865404088897265,
images/exp1a_trial_11_colour3_distractors4_r.png,r,2,0,29,29,11,,,,,,,35.835781640780624,None,2,1,0.20385623630136251,35.835781640780624,None,None,None,None,,None,None,2,001,2020_Oct_13_1217,searchDisc,2020.2.2,59.865404088897265,
images/exp1a_trial_37_colour2_distractors1_r.png,r,2,0,30,30,37,,,,,,,36.15276145783719,None,1,0,0.23892421671189368,36.15276145783719,None,None,None,None,,None,None,2,001,2020_Oct_13_1217,searchDisc,2020.2.2,59.865404088897265,
images/exp1a_trial_56_colour2_distractors31_l.png,l,1,0,31,31,56,,,,,,,36.51981909852475,None,2,0,0.2157726552686654,36.51981909852475,None,None,None,None,,None,None,2,001,2020_Oct_13_1217,searchDisc,2020.2.2,59.865404088897265,
images/exp1a_trial_85_colour2_distractors4_l.png,l,1,0,32,32,85,,,,,,,36.82010524108773,None,1,1,0.2674383107223548,36.82010524108773,None,None,None,None,,None,None,2,001,2020_Oct_13_1217,searchDisc,2020.2.2,59.865404088897265,
images/exp1a_trial_10_colour3_distractors1_r.png,r,2,0,33,33,10,,,,,,,37.17047144717071,None,2,1,0.3013926968560554,37.17047144717071,None,None,None,None,,None,None,2,001,2020_Oct_13_1217,searchDisc,2020.2.2,59.865404088897265,
images/exp1a_trial_67_colour1_distractors19_r.png,r,2,0,34,34,67,,,,,,,37.587470912141725,None,1,0,0.2521657489123754,37.587470912141725,None,None,None,None,,None,None,2,001,2020_Oct_13_1217,searchDisc,2020.2.2,59.865404088897265,
images/exp1a_trial_34_colour1_distractors9_r.png,r,2,0,35,35,34,,,,,,,37.95449271297548,None,2,1,0.26928342127939686,37.95449271297548,None,None,None,None,,None,None,2,001,2020_Oct_13_1217,searchDisc,2020.2.2,59.865404088897265,
images/exp1a_trial_57_colour3_distractors1_l.png,l,1,0,36,36,57,,,,,,,38.35508778196527,None,1,1,0.2208407893194817,38.35508778196527,None,None,None,None,,None,None,2,001,2020_Oct_13_1217,searchDisc,2020.2.2,59.865404088897265,
images/exp1a_trial_52_colour2_distractors1_l.png,l,1,0,37,37,52,,,,,,,38.70543798815925,None,2,0,0.2542569382349029,38.70543798815925,None,None,None,None,,None,None,2,001,2020_Oct_13_1217,searchDisc,2020.2.2,59.865404088897265,
images/exp1a_trial_90_colour3_distractors4_l.png,l,1,0,38,38,90,,,,,,,39.088975544436835,None,1,1,0.20674678141949698,39.088975544436835,None,39.35621609620284,None,space,0.9479621864156798,39.35621609620284,None,2,001,2020_Oct_13_1217,searchDisc,2020.2.2,59.865404088897265,
images/exp1a_trial_41_colour2_distractors31_r.png,r,2,0,39,39,41,,,,,,,40.40691503661219,None,1,0,0.32088379707420245,40.40691503661219,None,None,None,None,,None,None,2,001,2020_Oct_13_1217,searchDisc,2020.2.2,59.865404088897265,
images/exp1a_trial_62_colour0_distractors0_r.png,r,2,0,40,40,62,,,,,,,40.85739305015886,None,2,1,0.23847813898464665,40.85739305015886,None,None,None,None,,None,None,2,001,2020_Oct_13_1217,searchDisc,2020.2.2,59.865404088897265,
images/exp1a_trial_6_colour2_distractors4_r.png,r,2,0,41,41,6,,,,,,,41.2244324508938,None,1,0,0.1914438198436983,41.2244324508938,None,None,None,None,,None,None,2,001,2020_Oct_13_1217,searchDisc,2020.2.2,59.865404088897265,
images/exp1a_trial_20_colour2_distractors1_l.png,l,1,0,42,42,20,,,,,,,41.54136682819808,None,2,0,0.2665909550851211,41.54136682819808,None,None,None,None,,None,None,2,001,2020_Oct_13_1217,searchDisc,2020.2.2,59.865404088897265,
images/exp1a_trial_83_colour1_distractors31_l.png,l,1,0,43,43,83,,,,,,,41.925299262453336,None,1,1,0.19445596437435597,41.925299262453336,None,None,None,None,,None,None,2,001,2020_Oct_13_1217,searchDisc,2020.2.2,59.865404088897265,
images/exp1a_trial_49_colour1_distractors9_l.png,l,1,0,44,44,49,,,,,,,42.24205604067538,None,2,0,0.29368169634835795,42.24205604067538,None,None,None,None,,None,None,2,001,2020_Oct_13_1217,searchDisc,2020.2.2,59.865404088897265,
images/exp1a_trial_59_colour3_distractors9_l.png,l,1,0,45,45,59,,,,,,,42.659168465062976,None,1,1,0.20457047258969396,42.659168465062976,None,None,None,None,,None,None,2,001,2020_Oct_13_1217,searchDisc,2020.2.2,59.865404088897265,
images/exp1a_trial_69_colour2_distractors1_r.png,r,2,0,46,46,69,,,,,,,42.99279395688791,None,2,1,0.20711573958396912,42.99279395688791,None,None,None,None,,None,None,2,001,2020_Oct_13_1217,searchDisc,2020.2.2,59.865404088897265,
images/exp1a_trial_2_colour1_distractors9_r.png,r,2,0,47,47,2,,,,,,,43.326569207943976,None,1,0,0.23311752639710903,43.326569207943976,None,None,None,None,,None,None,2,001,2020_Oct_13_1217,searchDisc,2020.2.2,59.865404088897265,
