ImageFile,targ_side,correctAnswer,trials.thisRepN,trials.thisTrialN,trials.thisN,trials.thisIndex,dispStimuli.started,dispStimuli.stopped,key_resp_2.keys,key_resp_2.rt,key_resp_2.started,key_resp_2.stopped,breakMessage.started,breakMessage.stopped,key_resp.keys,key_resp.rt,key_resp.started,key_resp.stopped,participant,session,date,expName,psychopyVersion,frameRate,
images/exp1a_trial_87_colour2_distractors19_l.png,l,1,0,0,0,87,10.011624800041318,None,1,2.471192999975756,10.011624800041318,None,12.51474810007494,None,space,1.5920502999797463,12.51474810007494,None,2,001,2020_Oct_08_1356,searchDisc,2020.2.4,59.977280628604895,
images/exp1a_trial_11_colour3_distractors4_r.png,r,2,0,1,1,11,14.170742700109258,None,2,0.807987300097011,14.170742700109258,None,15.008872000034899,None,space,1.3939623000333086,15.008872000034899,None,2,001,2020_Oct_08_1356,searchDisc,2020.2.4,59.977280628604895,
images/exp1a_trial_3_colour1_distractors19_r.png,r,2,0,2,2,3,16.470594500075094,None,2,2.940400799969211,16.470594500075094,None,19.442035200074315,None,space,1.8647496999474242,19.442035200074315,None,2,001,2020_Oct_08_1356,searchDisc,2020.2.4,59.977280628604895,
images/exp1a_trial_37_colour2_distractors1_r.png,r,2,0,3,3,37,21.370342700043693,None,2,0.8165610999567434,21.370342700043693,None,22.208434400032274,None,space,0.9221444999566302,22.208434400032274,None,2,001,2020_Oct_08_1356,searchDisc,2020.2.4,59.977280628604895,
images/exp1a_trial_7_colour2_distractors9_r.png,r,2,0,4,4,7,23.20816260005813,None,2,0.6504850999917835,23.20816260005813,None,23.874954400002025,None,space,0.8159254000056535,23.874954400002025,None,2,001,2020_Oct_08_1356,searchDisc,2020.2.4,59.977280628604895,
images/exp1a_trial_76_colour3_distractors9_r.png,r,2,0,5,5,76,24.752607600064948,None,1,0.6742400999646634,24.752607600064948,None,25.457689700066112,None,space,0.7451607999391854,25.457689700066112,None,2,001,2020_Oct_08_1356,searchDisc,2020.2.4,59.977280628604895,
images/exp1a_trial_42_colour3_distractors1_r.png,r,2,0,6,6,42,26.266060700058006,None,2,0.6966048000613227,26.266060700058006,None,26.991046800045297,None,space,0.6195971999550238,26.991046800045297,None,2,001,2020_Oct_08_1356,searchDisc,2020.2.4,59.977280628604895,
images/exp1a_trial_40_colour2_distractors19_r.png,r,2,0,7,7,40,27.687020000070333,None,2,1.499881500029005,27.687020000070333,None,29.207646700087935,None,space,0.8112249000696465,29.207646700087935,None,2,001,2020_Oct_08_1356,searchDisc,2020.2.4,59.977280628604895,
images/exp1a_trial_27_colour3_distractors9_l.png,l,1,0,8,8,27,30.071530800079927,None,2,0.675265199970454,30.071530800079927,None,30.77388760005124,None,space,0.7166557000018656,30.77388760005124,None,2,001,2020_Oct_08_1356,searchDisc,2020.2.4,59.977280628604895,
images/exp1a_trial_18_colour1_distractors19_l.png,l,1,0,9,9,18,31.53725720010698,None,2,0.7055239999899641,31.53725720010698,None,32.273517600027844,None,space,0.6651656000176445,32.273517600027844,None,2,001,2020_Oct_08_1356,searchDisc,2020.2.4,59.977280628604895,
images/exp1a_trial_63_colour0_distractors0_l.png,l,1,0,10,10,63,33.000168700004,None,2,0.6671992000192404,33.000168700004,None,33.690554000088014,None,space,0.5684054000303149,33.690554000088014,None,2,001,2020_Oct_08_1356,searchDisc,2020.2.4,59.977280628604895,
images/exp1a_trial_55_colour2_distractors19_l.png,l,1,0,11,11,55,34.34241080004722,None,2,0.5084900000365451,34.34241080004722,None,34.87366280006245,None,space,0.5132397999987006,34.87366280006245,None,2,001,2020_Oct_08_1356,searchDisc,2020.2.4,59.977280628604895,
images/exp1a_trial_94_colour0_distractors0_r.png,r,2,0,12,12,94,35.44763840001542,None,2,0.5231067000422627,35.44763840001542,None,35.989968400099315,None,space,0.4929302000673488,35.989968400099315,None,2,001,2020_Oct_08_1356,searchDisc,2020.2.4,59.977280628604895,
images/exp1a_trial_41_colour2_distractors31_r.png,r,2,0,13,13,41,36.57347960001789,None,2,0.41355850000400096,36.57347960001789,None,37.0067626000382,None,space,0.4279992999508977,37.0067626000382,None,2,001,2020_Oct_08_1356,searchDisc,2020.2.4,59.977280628604895,
images/exp1a_trial_24_colour2_distractors31_l.png,l,1,0,14,14,24,37.500468100071885,None,2,0.42224179999902844,37.500468100071885,None,37.939391100080684,None,space,0.4233068999601528,37.939391100080684,None,2,001,2020_Oct_08_1356,searchDisc,2020.2.4,59.977280628604895,
images/exp1a_trial_21_colour2_distractors4_l.png,l,1,0,15,15,21,38.43222700001206,None,2,0.39444429997820407,38.43222700001206,None,38.855436700046994,None,space,0.37938399997074157,38.855436700046994,None,2,001,2020_Oct_08_1356,searchDisc,2020.2.4,59.977280628604895,
images/exp1a_trial_35_colour1_distractors19_r.png,r,2,0,16,16,35,39.29679060005583,None,2,0.3780564999906346,39.29679060005583,None,39.705841300077736,None,space,0.4089599000290036,39.705841300077736,None,2,001,2020_Oct_08_1356,searchDisc,2020.2.4,59.977280628604895,
images/exp1a_trial_62_colour0_distractors0_r.png,r,2,0,17,17,62,40.19945580000058,None,2,0.39528930000960827,40.19945580000058,None,40.622948400094174,None,space,0.403905599960126,40.622948400094174,None,2,001,2020_Oct_08_1356,searchDisc,2020.2.4,59.977280628604895,
images/exp1a_trial_2_colour1_distractors9_r.png,r,2,0,18,18,2,41.10044170008041,None,2,0.3822077999357134,41.10044170008041,None,41.50510530010797,None,space,0.3774433999788016,41.50510530010797,None,2,001,2020_Oct_08_1356,searchDisc,2020.2.4,59.977280628604895,
images/exp1a_trial_95_colour0_distractors0_l.png,l,1,0,19,19,95,41.934731000103056,None,2,0.48415570007637143,41.934731000103056,None,42.43911790009588,None,space,0.40374470001552254,42.43911790009588,None,2,001,2020_Oct_08_1356,searchDisc,2020.2.4,59.977280628604895,
images/exp1a_trial_81_colour1_distractors9_l.png,l,1,0,20,20,81,42.915965800057165,None,2,0.3587580999592319,42.915965800057165,None,43.30570470006205,None,space,0.3690715000266209,43.30570470006205,None,2,001,2020_Oct_08_1356,searchDisc,2020.2.4,59.977280628604895,
images/exp1a_trial_44_colour3_distractors9_r.png,r,2,0,21,21,44,43.770203400054015,None,2,0.36058029998093843,43.770203400054015,None,44.15563310007565,None,space,0.3831118999514729,44.15563310007565,None,2,001,2020_Oct_08_1356,searchDisc,2020.2.4,59.977280628604895,
images/exp1a_trial_71_colour2_distractors9_r.png,r,2,0,22,22,71,44.609093100065365,None,2,0.37767339998390526,44.609093100065365,None,45.00579020008445,None,space,0.3889093999750912,45.00579020008445,None,2,001,2020_Oct_08_1356,searchDisc,2020.2.4,59.977280628604895,
images/exp1a_trial_43_colour3_distractors4_r.png,r,2,0,23,23,43,45.4711166000925,None,2,0.41971149994060397,45.4711166000925,None,45.9219793000957,None,space,0.37674130010418594,45.9219793000957,None,2,001,2020_Oct_08_1356,searchDisc,2020.2.4,59.977280628604895,
images/exp1a_trial_90_colour3_distractors4_l.png,l,1,0,24,24,90,46.35625080007594,None,2,0.3986985000083223,46.35625080007594,None,46.77193010004703,None,space,0.39921820000745356,46.77193010004703,None,2,001,2020_Oct_08_1356,searchDisc,2020.2.4,59.977280628604895,
images/exp1a_trial_23_colour2_distractors19_l.png,l,1,0,25,25,23,47.25715510000009,None,2,0.3457882000366226,47.25715510000009,None,47.621995600056835,None,space,0.37262439995538443,47.621995600056835,None,2,001,2020_Oct_08_1356,searchDisc,2020.2.4,59.977280628604895,
images/exp1a_trial_54_colour2_distractors9_l.png,l,1,0,26,26,54,48.06613290007226,None,2,0.3767256001010537,48.06613290007226,None,48.472020400105976,None,space,0.3709712000563741,48.472020400105976,None,2,001,2020_Oct_08_1356,searchDisc,2020.2.4,59.977280628604895,
images/exp1a_trial_47_colour1_distractors1_l.png,l,1,0,27,27,47,48.93327490007505,None,2,0.33364750002510846,48.93327490007505,None,49.28865520004183,None,space,0.38601050002034754,49.28865520004183,None,2,001,2020_Oct_08_1356,searchDisc,2020.2.4,59.977280628604895,
images/exp1a_trial_30_colour0_distractors0_r.png,r,2,0,28,28,30,49.74750550009776,None,2,0.40722059994004667,49.74750550009776,None,50.17179830011446,None,space,0.3668730000499636,50.17179830011446,None,2,001,2020_Oct_08_1356,searchDisc,2020.2.4,59.977280628604895,
images/exp1a_trial_83_colour1_distractors31_l.png,l,1,0,29,29,83,50.60256840009242,None,2,0.36814760009292513,50.60256840009242,None,50.988085900084116,None,space,0.3747237001080066,50.988085900084116,None,2,001,2020_Oct_08_1356,searchDisc,2020.2.4,59.977280628604895,
images/exp1a_trial_31_colour0_distractors0_l.png,l,1,0,30,30,31,51.43020320008509,None,2,0.3572506000055,51.43020320008509,None,51.804126400034875,None,space,0.36680130008608103,51.804126400034875,None,2,001,2020_Oct_08_1356,searchDisc,2020.2.4,59.977280628604895,
images/exp1a_trial_20_colour2_distractors1_l.png,l,1,0,31,31,20,52.22474030009471,None,2,0.37826169992331415,52.22474030009471,None,52.62155830010306,None,space,0.3732836999697611,52.62155830010306,None,2,001,2020_Oct_08_1356,searchDisc,2020.2.4,59.977280628604895,
images/exp1a_trial_85_colour2_distractors4_l.png,l,1,0,32,32,85,53.06199820002075,None,2,0.3409432000480592,53.06199820002075,None,53.42092720000073,None,space,0.3737826000433415,53.42092720000073,None,2,001,2020_Oct_08_1356,searchDisc,2020.2.4,59.977280628604895,
images/exp1a_trial_17_colour1_distractors9_l.png,l,1,0,33,33,17,53.86575920006726,None,2,0.32125929999165237,53.86575920006726,None,54.20470960007515,None,space,0.3900615000165999,54.20470960007515,None,2,001,2020_Oct_08_1356,searchDisc,2020.2.4,59.977280628604895,
images/exp1a_trial_79_colour1_distractors1_l.png,l,1,0,34,34,79,54.662550700013526,None,2,0.36421610007528216,54.662550700013526,None,55.05443130002823,None,space,0.3722551999380812,55.05443130002823,None,2,001,2020_Oct_08_1356,searchDisc,2020.2.4,59.977280628604895,
images/exp1a_trial_38_colour2_distractors4_r.png,r,2,0,35,35,38,55.495158300036564,None,2,0.31569049996323884,55.495158300036564,None,55.837804800015874,None,space,0.34893870004452765,55.837804800015874,None,2,001,2020_Oct_08_1356,searchDisc,2020.2.4,59.977280628604895,
images/exp1a_trial_53_colour2_distractors4_l.png,l,1,0,36,36,53,56.24633210001048,None,2,0.33237339998595417,56.24633210001048,None,56.603682700078934,None,space,0.3429875000147149,56.603682700078934,None,2,001,2020_Oct_08_1356,searchDisc,2020.2.4,59.977280628604895,
images/exp1a_trial_34_colour1_distractors9_r.png,r,2,0,37,37,34,57.0252134000184,None,2,0.31356320006307214,57.0252134000184,None,57.35386740008835,None,space,0.3930417000083253,57.35386740008835,None,2,001,2020_Oct_08_1356,searchDisc,2020.2.4,59.977280628604895,
images/exp1a_trial_13_colour3_distractors19_r.png,r,2,0,38,38,13,57.814583700033836,None,2,0.32411849999334663,57.814583700033836,None,58.170865400112234,None,space,0.31196300010196865,58.170865400112234,None,2,001,2020_Oct_08_1356,searchDisc,2020.2.4,59.977280628604895,
images/exp1a_trial_32_colour1_distractors1_r.png,r,2,0,39,39,32,58.54600390000269,None,2,0.3450264000566676,58.54600390000269,None,58.92064040002879,None,space,0.3541242000646889,58.92064040002879,None,2,001,2020_Oct_08_1356,searchDisc,2020.2.4,59.977280628604895,
images/exp1a_trial_80_colour1_distractors4_l.png,l,1,0,40,40,80,59.34831130004022,None,2,0.31851829995866865,59.34831130004022,None,59.68737580010202,None,space,0.3713022000156343,59.68737580010202,None,2,001,2020_Oct_08_1356,searchDisc,2020.2.4,59.977280628604895,
images/exp1a_trial_60_colour3_distractors19_l.png,l,1,0,41,41,60,60.13064920005854,None,2,0.2881109999725595,60.13064920005854,None,60.4366638000356,None,space,0.34216620004735887,60.4366638000356,None,2,001,2020_Oct_08_1356,searchDisc,2020.2.4,59.977280628604895,
images/exp1a_trial_50_colour1_distractors19_l.png,l,1,0,42,42,50,60.85573900002055,None,2,0.2830028000753373,60.85573900002055,None,61.16996960004326,None,space,0.28887539997231215,61.16996960004326,None,2,001,2020_Oct_08_1356,searchDisc,2020.2.4,59.977280628604895,
images/exp1a_trial_51_colour1_distractors31_l.png,l,1,0,43,43,51,61.52947470010258,None,2,0.32925659988541156,61.52947470010258,None,61.88691970007494,None,space,0.04375119996257126,61.88691970007494,None,2,001,2020_Oct_08_1356,searchDisc,2020.2.4,59.977280628604895,
images/exp1a_trial_93_colour3_distractors31_l.png,l,1,0,44,44,93,61.98686510010157,None,2,0.19198119989596307,61.98686510010157,None,62.203381600091234,None,space,0.9754062999272719,62.203381600091234,None,2,001,2020_Oct_08_1356,searchDisc,2020.2.4,59.977280628604895,
images/exp1a_trial_58_colour3_distractors4_l.png,l,1,0,45,45,58,63.26236640010029,None,2,0.31654509995132685,63.26236640010029,None,63.60352160001639,None,space,0.35116640001069754,63.60352160001639,None,2,001,2020_Oct_08_1356,searchDisc,2020.2.4,59.977280628604895,
images/exp1a_trial_29_colour3_distractors31_l.png,l,1,0,46,46,29,64.0037844000617,None,2,0.3750225999392569,64.0037844000617,None,64.40326610009652,None,space,0.35151420009788126,64.40326610009652,None,2,001,2020_Oct_08_1356,searchDisc,2020.2.4,59.977280628604895,
images/exp1a_trial_52_colour2_distractors1_l.png,l,1,0,47,47,52,64.8074026000686,None,2,0.33935709996148944,64.8074026000686,None,65.17012670007534,None,space,0.33653219998814166,65.17012670007534,None,2,001,2020_Oct_08_1356,searchDisc,2020.2.4,59.977280628604895,
images/exp1a_trial_28_colour3_distractors19_l.png,l,1,0,48,48,28,65.57832640002016,None,2,0.6483228000579402,65.57832640002016,None,66.2525839000009,None,space,0.6540786999976262,66.2525839000009,None,2,001,2020_Oct_08_1356,searchDisc,2020.2.4,59.977280628604895,
images/exp1a_trial_82_colour1_distractors19_l.png,l,1,0,49,49,82,66.98450030002277,None,2,0.32217379997018725,66.98450030002277,None,67.33654040005058,None,space,0.37822219997178763,67.33654040005058,None,2,001,2020_Oct_08_1356,searchDisc,2020.2.4,59.977280628604895,
images/exp1a_trial_67_colour1_distractors19_r.png,r,2,0,50,50,67,67.78009620006196,None,2,0.6066157999448478,67.78009620006196,None,68.40280940011144,None,space,0.4723809000570327,68.40280940011144,None,2,001,2020_Oct_08_1356,searchDisc,2020.2.4,59.977280628604895,
images/exp1a_trial_61_colour3_distractors31_l.png,l,1,0,51,51,61,68.96651160006877,None,2,0.3002533999970183,68.96651160006877,None,69.28632110008039,None,space,0.39665670006070286,69.28632110008039,None,2,001,2020_Oct_08_1356,searchDisc,2020.2.4,59.977280628604895,
images/exp1a_trial_73_colour2_distractors31_r.png,r,2,0,52,52,73,69.75464680010919,None,2,1.616120900027454,69.75464680010919,None,71.40232060011476,None,space,0.38419120002072304,71.40232060011476,None,2,001,2020_Oct_08_1356,searchDisc,2020.2.4,59.977280628604895,
images/exp1a_trial_66_colour1_distractors9_r.png,r,2,0,53,53,66,71.83375390002038,None,2,0.32907320000231266,71.83375390002038,None,72.18587850010954,None,space,0.2970177000388503,72.18587850010954,None,2,001,2020_Oct_08_1356,searchDisc,2020.2.4,59.977280628604895,
images/exp1a_trial_26_colour3_distractors4_l.png,l,1,0,54,54,26,72.54371210001409,None,2,0.355172700015828,72.54371210001409,None,72.91891250002664,None,space,0.3320508999750018,72.91891250002664,None,2,001,2020_Oct_08_1356,searchDisc,2020.2.4,59.977280628604895,
images/exp1a_trial_46_colour3_distractors31_r.png,r,2,0,55,55,46,73.31236800004262,None,2,0.4663151999702677,73.31236800004262,None,73.80217900010757,None,space,0.9926316000055522,73.80217900010757,None,2,001,2020_Oct_08_1356,searchDisc,2020.2.4,59.977280628604895,
images/exp1a_trial_78_colour3_distractors31_r.png,r,2,0,56,56,78,74.86199700005818,None,2,0.3569888999918476,74.86199700005818,None,75.23530310008209,None,space,0.3516486999578774,75.23530310008209,None,2,001,2020_Oct_08_1356,searchDisc,2020.2.4,59.977280628604895,
images/exp1a_trial_89_colour3_distractors1_l.png,l,1,0,57,57,89,75.64466680004261,None,2,0.28615000005811453,75.64466680004261,None,75.95199720002711,None,space,0.3304812000133097,75.95199720002711,None,2,001,2020_Oct_08_1356,searchDisc,2020.2.4,59.977280628604895,
images/exp1a_trial_48_colour1_distractors4_l.png,l,1,0,58,58,48,76.32997010007966,None,2,0.32152699993457645,76.32997010007966,None,76.66887210006826,None,space,0.33397110004443675,76.66887210006826,None,2,001,2020_Oct_08_1356,searchDisc,2020.2.4,59.977280628604895,
images/exp1a_trial_6_colour2_distractors4_r.png,r,2,0,59,59,6,77.05595720000565,None,2,0.306754200020805,77.05595720000565,None,77.38486570003442,None,space,0.32999480003491044,77.38486570003442,None,2,001,2020_Oct_08_1356,searchDisc,2020.2.4,59.977280628604895,
images/exp1a_trial_25_colour3_distractors1_l.png,l,1,0,60,60,25,77.77857730002142,None,2,0.2561190000269562,77.77857730002142,None,78.05161420011427,None,space,0.35109180002473295,78.05161420011427,None,2,001,2020_Oct_08_1356,searchDisc,2020.2.4,59.977280628604895,
images/exp1a_trial_9_colour2_distractors31_r.png,r,2,0,61,61,9,78.4724102000473,None,2,0.2504006999079138,78.4724102000473,None,78.75183900003321,None,space,0.3153368999483064,78.75183900003321,None,2,001,2020_Oct_08_1356,searchDisc,2020.2.4,59.977280628604895,
images/exp1a_trial_77_colour3_distractors19_r.png,r,2,0,62,62,77,79.13043500005733,None,2,0.2803766999859363,79.13043500005733,None,79.43501920008566,None,space,0.3116757000098005,79.43501920008566,None,2,001,2020_Oct_08_1356,searchDisc,2020.2.4,59.977280628604895,
images/exp1a_trial_22_colour2_distractors9_l.png,l,1,0,63,63,22,79.81162410008255,None,2,0.26312159991357476,79.81162410008255,None,80.10160400008317,None,space,0.30114859994500875,80.10160400008317,None,2,001,2020_Oct_08_1356,searchDisc,2020.2.4,59.977280628604895,
images/exp1a_trial_64_colour1_distractors1_r.png,r,2,0,64,64,64,80.45842130004894,None,2,0.26432309998199344,80.45842130004894,None,80.75157610001042,None,space,0.2991803999757394,80.75157610001042,None,2,001,2020_Oct_08_1356,searchDisc,2020.2.4,59.977280628604895,
images/exp1a_trial_72_colour2_distractors19_r.png,r,2,0,65,65,72,81.11120410007425,None,2,0.29161309998016804,81.11120410007425,None,81.41793180000968,None,space,0.28877149999607354,81.41793180000968,None,2,001,2020_Oct_08_1356,searchDisc,2020.2.4,59.977280628604895,
images/exp1a_trial_1_colour1_distractors4_r.png,r,2,0,66,66,1,81.78408420004416,None,2,0.2345738000003621,81.78408420004416,None,82.03447330009658,None,space,0.3124078999971971,82.03447330009658,None,2,001,2020_Oct_08_1356,searchDisc,2020.2.4,59.977280628604895,
images/exp1a_trial_36_colour1_distractors31_r.png,r,2,0,67,67,36,82.41010370000731,None,2,0.2646268999669701,82.41010370000731,None,82.70105540007353,None,space,0.2697315999539569,82.70105540007353,None,2,001,2020_Oct_08_1356,searchDisc,2020.2.4,59.977280628604895,
images/exp1a_trial_4_colour1_distractors31_r.png,r,2,0,68,68,4,83.04424060008023,None,2,0.26248089992441237,83.04424060008023,None,83.33452180004679,None,space,0.26825449999887496,83.33452180004679,None,2,001,2020_Oct_08_1356,searchDisc,2020.2.4,59.977280628604895,
images/exp1a_trial_65_colour1_distractors4_r.png,r,2,0,69,69,65,83.67272250005044,None,2,0.25005310005508363,83.67272250005044,None,83.95086770004127,None,space,0.29192490002606064,83.95086770004127,None,2,001,2020_Oct_08_1356,searchDisc,2020.2.4,59.977280628604895,
images/exp1a_trial_56_colour2_distractors31_l.png,l,1,0,70,70,56,84.31408020004164,None,2,0.27266899996902794,84.31408020004164,None,84.61774850008078,None,space,0.36092040000949055,84.61774850008078,None,2,001,2020_Oct_08_1356,searchDisc,2020.2.4,59.977280628604895,
,,,,,,,85.03854470001534,None,2,0.2845081000123173,85.03854470001534,None,,,,,,,,,,,,,
