ImageFile,targ_side,correctAnswer,trials_2.thisRepN,trials_2.thisTrialN,trials_2.thisN,trials_2.thisIndex,trials.thisRepN,trials.thisTrialN,trials.thisN,trials.thisIndex,image.started,image.stopped,key_resp_4.keys,key_resp_4.corr,key_resp_4.rt,key_resp_4.started,key_resp_4.stopped,text.started,text.stopped,key_resp_3.keys,key_resp_3.rt,key_resp_3.started,key_resp_3.stopped,dispStimuli.started,dispStimuli.stopped,key_resp_2.keys,key_resp_2.corr,key_resp_2.rt,key_resp_2.started,key_resp_2.stopped,breakMessage.started,breakMessage.stopped,key_resp.keys,key_resp.started,key_resp.stopped,key_resp.rt,participant,session,date,expName,psychopyVersion,frameRate,
images/exp1a_trial_20_colour2_distractors1_l.png,l,1,0,0,0,0,,,,,22.97420941205928,None,1,1,3.977831153490115,22.97420941205928,None,,,,,,,,,,,,,,,,,,,,2,001,2020_Oct_13_1228,searchDisc,2020.2.2,59.918089994065525,
,,,,,,,,,,,,,,,,,,26.978339310910087,None,space,4.721743504633196,31.96658385108458,None,,,,,,,,,,,,,,2,001,2020_Oct_13_1228,searchDisc,2020.2.2,59.918089994065525,
images/exp1a_trial_83_colour1_distractors31_l.png,l,1,,,,,0,0,0,83,,,,,,,,,,,,,,36.8044877210632,None,1,1,1.5476477560587227,36.8044877210632,None,None,None,None,None,None,,2,001,2020_Oct_13_1228,searchDisc,2020.2.2,59.918089994065525,
images/exp1a_trial_53_colour2_distractors4_l.png,l,1,,,,,0,1,1,53,,,,,,,,,,,,,,38.50616380845895,None,2,0,0.3660074060317129,38.50616380845895,None,None,None,None,None,None,,2,001,2020_Oct_13_1228,searchDisc,2020.2.2,59.918089994065525,
images/exp1a_trial_17_colour1_distractors9_l.png,l,1,,,,,0,2,2,17,,,,,,,,,,,,,,38.989982131286524,None,1,1,0.30608963285339996,38.989982131286524,None,None,None,None,None,None,,2,001,2020_Oct_13_1228,searchDisc,2020.2.2,59.918089994065525,
images/exp1a_trial_44_colour3_distractors9_r.png,r,2,,,,,0,3,3,44,,,,,,,,,,,,,,39.42370023066178,None,2,1,0.3128515182179399,39.42370023066178,None,None,None,None,None,None,,2,001,2020_Oct_13_1228,searchDisc,2020.2.2,59.918089994065525,
images/exp1a_trial_46_colour3_distractors31_r.png,r,2,,,,,0,4,4,46,,,,,,,,,,,,,,39.85750408959575,None,1,0,0.3266744874417782,39.85750408959575,None,None,None,None,None,None,,2,001,2020_Oct_13_1228,searchDisc,2020.2.2,59.918089994065525,
images/exp1a_trial_88_colour2_distractors31_l.png,l,1,,,,,0,5,5,88,,,,,,,,,,,,,,40.30789666360943,None,2,0,0.2681957468157634,40.30789666360943,None,None,None,None,None,None,,2,001,2020_Oct_13_1228,searchDisc,2020.2.2,59.918089994065525,
images/exp1a_trial_38_colour2_distractors4_r.png,r,2,,,,,0,6,6,38,,,,,,,,,,,,,,40.6916108589503,None,1,0,0.28444590367143974,40.6916108589503,None,None,None,None,None,None,,2,001,2020_Oct_13_1228,searchDisc,2020.2.2,59.918089994065525,
images/exp1a_trial_4_colour1_distractors31_r.png,r,2,,,,,0,7,7,4,,,,,,,,,,,,,,41.09200272895396,None,2,1,0.2760997063596733,41.09200272895396,None,None,None,None,None,None,,2,001,2020_Oct_13_1228,searchDisc,2020.2.2,59.918089994065525,
images/exp1a_trial_57_colour3_distractors1_l.png,l,1,,,,,0,8,8,57,,,,,,,,,,,,,,41.492558118130546,None,1,1,0.28359374799765646,41.492558118130546,None,None,None,None,None,None,,2,001,2020_Oct_13_1228,searchDisc,2020.2.2,59.918089994065525,
images/exp1a_trial_78_colour3_distractors31_r.png,r,2,,,,,0,9,9,78,,,,,,,,,,,,,,41.892833508725744,None,2,1,0.2515209522098303,41.892833508725744,None,None,None,None,None,None,,2,001,2020_Oct_13_1228,searchDisc,2020.2.2,59.918089994065525,
images/exp1a_trial_76_colour3_distractors9_r.png,r,2,,,,,0,10,10,76,,,,,,,,,,,,,,42.25984698958928,None,1,0,0.2923722630366683,42.25984698958928,None,None,None,None,None,None,,2,001,2020_Oct_13_1228,searchDisc,2020.2.2,59.918089994065525,
images/exp1a_trial_71_colour2_distractors9_r.png,r,2,,,,,0,11,11,71,,,,,,,,,,,,,,42.67693093413254,None,2,1,0.2193492769729346,42.67693093413254,None,None,None,None,None,None,,2,001,2020_Oct_13_1228,searchDisc,2020.2.2,59.918089994065525,
images/exp1a_trial_42_colour3_distractors1_r.png,r,2,,,,,0,12,12,42,,,,,,,,,,,,,,43.02724434051197,None,1,0,0.26083066454157233,43.02724434051197,None,None,None,None,None,None,,2,001,2020_Oct_13_1228,searchDisc,2020.2.2,59.918089994065525,
images/exp1a_trial_2_colour1_distractors9_r.png,r,2,,,,,0,13,13,2,,,,,,,,,,,,,,43.4111303750542,None,2,1,0.2369811866665259,43.4111303750542,None,None,None,None,None,None,,2,001,2020_Oct_13_1228,searchDisc,2020.2.2,59.918089994065525,
images/exp1a_trial_95_colour0_distractors0_l.png,l,1,,,,,0,14,14,95,,,,,,,,,,,,,,43.777980976738036,None,1,1,0.23805958114098758,43.777980976738036,None,None,None,None,None,None,,2,001,2020_Oct_13_1228,searchDisc,2020.2.2,59.918089994065525,
images/exp1a_trial_84_colour2_distractors1_l.png,l,1,,,,,0,15,15,84,,,,,,,,,,,,,,44.145056857320014,None,2,0,0.23901861620834097,44.145056857320014,None,None,None,None,None,None,,2,001,2020_Oct_13_1228,searchDisc,2020.2.2,59.918089994065525,
images/exp1a_trial_85_colour2_distractors4_l.png,l,1,,,,,0,16,16,85,,,,,,,,,,,,,,44.51206681824988,None,1,1,0.2482412889949046,44.51206681824988,None,None,None,None,None,None,,2,001,2020_Oct_13_1228,searchDisc,2020.2.2,59.918089994065525,
images/exp1a_trial_3_colour1_distractors19_r.png,r,2,,,,,0,17,17,3,,,,,,,,,,,,,,44.879261738213245,None,2,1,0.2247489292640239,44.879261738213245,None,None,None,None,None,None,,2,001,2020_Oct_13_1228,searchDisc,2020.2.2,59.918089994065525,
images/exp1a_trial_27_colour3_distractors9_l.png,l,1,,,,,0,18,18,27,,,,,,,,,,,,,,45.229410665459,None,1,1,0.2427040373440832,45.229410665459,None,None,None,None,None,None,,2,001,2020_Oct_13_1228,searchDisc,2020.2.2,59.918089994065525,
images/exp1a_trial_69_colour2_distractors1_r.png,r,2,,,,,0,19,19,69,,,,,,,,,,,,,,45.596456146158744,None,2,1,0.2197630347800441,45.596456146158744,None,45.88010717387078,None,space,45.88010717387078,None,1.6160963656147942,2,001,2020_Oct_13_1228,searchDisc,2020.2.2,59.918089994065525,
images/exp1a_trial_30_colour0_distractors0_r.png,r,2,,,,,0,20,20,30,,,,,,,,,,,,,,47.5985697353608,None,1,0,0.6177289972547442,47.5985697353608,None,None,None,None,None,None,,2,001,2020_Oct_13_1228,searchDisc,2020.2.2,59.918089994065525,
images/exp1a_trial_33_colour1_distractors4_r.png,r,2,,,,,0,21,21,33,,,,,,,,,,,,,,48.33266581676435,None,2,1,0.30732930649537593,48.33266581676435,None,None,None,None,None,None,,2,001,2020_Oct_13_1228,searchDisc,2020.2.2,59.918089994065525,
images/exp1a_trial_67_colour1_distractors19_r.png,r,2,,,,,0,22,22,67,,,,,,,,,,,,,,48.76623575686244,None,1,0,0.18603296752553433,48.76623575686244,None,None,None,None,None,None,,2,001,2020_Oct_13_1228,searchDisc,2020.2.2,59.918089994065525,
images/exp1a_trial_59_colour3_distractors9_l.png,l,1,,,,,0,23,23,59,,,,,,,,,,,,,,49.08333301334642,None,2,0,0.18077059445204213,49.08333301334642,None,None,None,None,None,None,,2,001,2020_Oct_13_1228,searchDisc,2020.2.2,59.918089994065525,
images/exp1a_trial_31_colour0_distractors0_l.png,l,1,,,,,0,24,24,31,,,,,,,,,,,,,,49.38361051591346,None,1,1,0.21645265171537176,49.38361051591346,None,None,None,None,None,None,,2,001,2020_Oct_13_1228,searchDisc,2020.2.2,59.918089994065525,
images/exp1a_trial_64_colour1_distractors1_r.png,r,2,,,,,0,25,25,64,,,,,,,,,,,,,,49.71727664757054,None,2,1,0.20283960149390623,49.71727664757054,None,None,None,None,None,None,,2,001,2020_Oct_13_1228,searchDisc,2020.2.2,59.918089994065525,
images/exp1a_trial_11_colour3_distractors4_r.png,r,2,,,,,0,26,26,11,,,,,,,,,,,,,,50.05080901988549,None,1,0,0.20543286815518513,50.05080901988549,None,None,None,None,None,None,,2,001,2020_Oct_13_1228,searchDisc,2020.2.2,59.918089994065525,
images/exp1a_trial_47_colour1_distractors1_l.png,l,1,,,,,0,27,27,47,,,,,,,,,,,,,,50.38451291131787,None,2,0,0.18359457998303697,50.38451291131787,None,None,None,None,None,None,,2,001,2020_Oct_13_1228,searchDisc,2020.2.2,59.918089994065525,
images/exp1a_trial_12_colour3_distractors9_r.png,r,2,,,,,0,28,28,12,,,,,,,,,,,,,,50.684832333703525,None,1,0,0.22730667621362954,50.684832333703525,None,None,None,None,None,None,,2,001,2020_Oct_13_1228,searchDisc,2020.2.2,59.918089994065525,
images/exp1a_trial_1_colour1_distractors4_r.png,r,2,,,,,0,29,29,1,,,,,,,,,,,,,,51.051820214721374,None,2,1,0.172162318485789,51.051820214721374,None,None,None,None,None,None,,2,001,2020_Oct_13_1228,searchDisc,2020.2.2,59.918089994065525,
images/exp1a_trial_66_colour1_distractors9_r.png,r,2,,,,,0,30,30,66,,,,,,,,,,,,,,51.35215819696896,None,1,0,0.2399626113474369,51.35215819696896,None,None,None,None,None,None,,2,001,2020_Oct_13_1228,searchDisc,2020.2.2,59.918089994065525,
images/exp1a_trial_49_colour1_distractors9_l.png,l,1,,,,,0,31,31,49,,,,,,,,,,,,,,51.71933903702302,None,2,0,0.1607284570345655,51.71933903702302,None,None,None,None,None,None,,2,001,2020_Oct_13_1228,searchDisc,2020.2.2,59.918089994065525,
images/exp1a_trial_90_colour3_distractors4_l.png,l,1,,,,,0,32,32,90,,,,,,,,,,,,,,52.00275518593844,None,1,1,0.2215044658514671,52.00275518593844,None,None,None,None,None,None,,2,001,2020_Oct_13_1228,searchDisc,2020.2.2,59.918089994065525,
images/exp1a_trial_36_colour1_distractors31_r.png,r,2,,,,,0,33,33,36,,,,,,,,,,,,,,52.35314123192802,None,2,1,0.1989877811865881,52.35314123192802,None,None,None,None,None,None,,2,001,2020_Oct_13_1228,searchDisc,2020.2.2,59.918089994065525,
images/exp1a_trial_13_colour3_distractors19_r.png,r,2,,,,,0,34,34,13,,,,,,,,,,,,,,52.670082329190336,None,1,0,0.24215876014204696,52.670082329190336,None,None,None,None,None,None,,2,001,2020_Oct_13_1228,searchDisc,2020.2.2,59.918089994065525,
images/exp1a_trial_8_colour2_distractors19_r.png,r,2,,,,,0,35,35,8,,,,,,,,,,,,,,53.03711117000785,None,2,1,0.20321591955143958,53.03711117000785,None,None,None,None,None,None,,2,001,2020_Oct_13_1228,searchDisc,2020.2.2,59.918089994065525,
images/exp1a_trial_62_colour0_distractors0_r.png,r,2,,,,,0,36,36,62,,,,,,,,,,,,,,53.370895061059855,None,1,0,0.21317746851127595,53.370895061059855,None,None,None,None,None,None,,2,001,2020_Oct_13_1228,searchDisc,2020.2.2,59.918089994065525,
images/exp1a_trial_41_colour2_distractors31_r.png,r,2,,,,,0,37,37,41,,,,,,,,,,,,,,53.70462903229054,None,2,1,0.14352726517245173,53.70462903229054,None,None,None,None,None,None,,2,001,2020_Oct_13_1228,searchDisc,2020.2.2,59.918089994065525,
,,,,,,,,,,,,,,,,,,,,,,,,53.971557265671436,None,1,1,0.28455886302981526,53.971557265671436,None,,,,,,,,,,,,,
